{"resourceType":"Bundle","id":"tests-63050905-516c-41e9-8e97-c792143fdd0b-bundle","type":"transaction","entry":[{"fullUrl":"Encounter/83910273-9a49-4811-9014-47898895eef9","resource":{"resourceType":"Encounter","id":"83910273-9a49-4811-9014-47898895eef9","meta":{"profile":["http://hl7.org/fhir/us/qicore/StructureDefinition/qicore-encounter"]},"status":"finished","class":{"system":"http://terminology.hl7.org/CodeSystem/v3-ActCode","code":"IMP","display":"inpatient encounter"},"type":[{"coding":[{"system":"http://snomed.info/sct","code":"8715000"}]}],"subject":{"reference":"Patient/63050905-516c-41e9-8e97-c792143fdd0b"},"period":{"start":"2026-12-04T08:00:00.000+00:00","end":"2026-12-30T08:15:00.000+00:00"},"length":{"value":26.0,"unit":"days"},"location":[{"location":{"reference":"Location/e14aee20-eb5d-452b-a6f0-8ec33df9511f"},"period":{"start":"2026-12-26T08:00:00.000+00:00","end":"2026-12-28T08:15:00.000+00:00"}}]},"request":{"method":"PUT","url":"Encounter/83910273-9a49-4811-9014-47898895eef9"}},{"fullUrl":"Location/e7cfe6d7-ac5b-4b40-87d2-b84b52aaf886","resource":{"resourceType":"Location","id":"e7cfe6d7-ac5b-4b40-87d2-b84b52aaf886","type":[{"coding":[{"system":"http://cts.nlm.nih.gov/fhir/cs/hsloc","version":"2020","code":"1025-6","display":"Trauma Critical Care","userSelected":true}]}]},"request":{"method":"PUT","url":"Location/e7cfe6d7-ac5b-4b40-87d2-b84b52aaf886"}},{"fullUrl":"MeasureReport/56d371c9-719d-41a1-b0cb-5d44988ae40e","resource":{"resourceType":"MeasureReport","id":"56d371c9-719d-41a1-b0cb-5d44988ae40e","meta":{"profile":["http://hl7.org/fhir/us/cqfmeasures/StructureDefinition/test-case-cqfm"]},"contained":[{"resourceType":"Parameters","id":"9ac1e325-afd6-49c7-b2c7-3b19bf3848a7-parameters","parameter":[{"name":"subject","valueString":"63050905-516c-41e9-8e97-c792143fdd0b"}]}],"extension":[{"url":"http://hl7.org/fhir/StructureDefinition/cqf-inputParameters","valueReference":{"reference":"#9ac1e325-afd6-49c7-b2c7-3b19bf3848a7-parameters"}},{"url":"http://hl7.org/fhir/us/cqfmeasures/StructureDefinition/cqfm-testCaseDescription","valueMarkdown":"meets IPP and Denominator, inpatient visit starts <=1 hour after the end of ED visit AND Comfort Measures are ordered during ED visit\n"}],"modifierExtension":[{"url":"http://hl7.org/fhir/us/cqfmeasures/StructureDefinition/cqfm-isTestCase","valueBoolean":true}],"status":"complete","type":"individual","measure":"https://madie.cms.gov/Measure/CMS190VTEProphylaxisICUFHIR","period":{"start":"2026-01-01","end":"2026-12-31"},"group":[{"id":"Group_1","population":[{"id":"InitialPopulation_1","code":{"coding":[{"system":"http://terminology.hl7.org/CodeSystem/measure-population","code":"initial-population","display":"Initial Population"}]},"count":1},{"id":"Denominator_1","code":{"coding":[{"system":"http://terminology.hl7.org/CodeSystem/measure-population","code":"denominator","display":"Denominator"}]},"count":1},{"id":"DenominatorExclusion_1","code":{"coding":[{"system":"http://terminology.hl7.org/CodeSystem/measure-population","code":"denominator-exclusion","display":"Denominator Exclusion"}]},"count":1},{"id":"Numerator_1","code":{"coding":[{"system":"http://terminology.hl7.org/CodeSystem/measure-population","code":"numerator","display":"Numerator"}]},"count":0},{"id":"DenominatorException_1","code":{"coding":[{"system":"http://terminology.hl7.org/CodeSystem/measure-population","code":"denominator-exception","display":"Denominator Exception"}]},"count":0}],"measureScore":{"value":0.0}}],"evaluatedResource":[{"reference":"Patient/63050905-516c-41e9-8e97-c792143fdd0b"},{"reference":"Encounter/54400bd1-0682-4404-a8aa-c111e4e7635b"},{"reference":"Encounter/83910273-9a49-4811-9014-47898895eef9"},{"reference":"ServiceRequest/813caa71-32f8-4d74-ac36-8704350f1a28"},{"reference":"Coverage/a932bdfb-d1a9-4f0e-91f5-387e2a4cd9fe"},{"reference":"Location/e7cfe6d7-ac5b-4b40-87d2-b84b52aaf886"},{"reference":"Location/e14aee20-eb5d-452b-a6f0-8ec33df9511f"},{"reference":"Organization/a8b07506-98d8-4295-8a5a-687f06464a68"},{"reference":"Practitioner/1771fe4a-aeae-4a5c-ae7f-14e9dc2d080c"}]},"request":{"method":"PUT","url":"MeasureReport/56d371c9-719d-41a1-b0cb-5d44988ae40e"}},{"fullUrl":"Location/e14aee20-eb5d-452b-a6f0-8ec33df9511f","resource":{"resourceType":"Location","id":"e14aee20-eb5d-452b-a6f0-8ec33df9511f","meta":{"profile":["http://hl7.org/fhir/us/qicore/StructureDefinition/qicore-location"]},"identifier":[{"use":"usual","system":"http://exampleoflocation.com","value":"B1-S.F2"}],"name":"Medical Surgical East, first floor","type":[{"coding":[{"system":"https://www.cdc.gov/nhsn/cdaportal/terminology/codesystem/hsloc.html","code":"1025-6","display":"Trauma Critical Care","userSelected":true}]}]},"request":{"method":"PUT","url":"Location/e14aee20-eb5d-452b-a6f0-8ec33df9511f"}},{"fullUrl":"Encounter/54400bd1-0682-4404-a8aa-c111e4e7635b","resource":{"resourceType":"Encounter","id":"54400bd1-0682-4404-a8aa-c111e4e7635b","meta":{"profile":["http://hl7.org/fhir/us/qicore/StructureDefinition/qicore-encounter"]},"status":"finished","class":{"system":"http://terminology.hl7.org/CodeSystem/v3-ActCode","code":"EMER","display":"emergency"},"type":[{"coding":[{"system":"http://snomed.info/sct","code":"4525004"}]}],"subject":{"reference":"Patient/63050905-516c-41e9-8e97-c792143fdd0b"},"period":{"start":"2026-12-04T06:00:00.000+00:00","end":"2026-12-04T07:15:00.000+00:00"},"length":{"value":0.0,"unit":"days"}},"request":{"method":"PUT","url":"Encounter/54400bd1-0682-4404-a8aa-c111e4e7635b"}},{"fullUrl":"ServiceRequest/813caa71-32f8-4d74-ac36-8704350f1a28","resource":{"resourceType":"ServiceRequest","id":"813caa71-32f8-4d74-ac36-8704350f1a28","meta":{"profile":["http://hl7.org/fhir/us/qicore/StructureDefinition/qicore-servicerequest"]},"status":"completed","intent":"order","code":{"coding":[{"system":"http://snomed.info/sct","code":"133918004"}]},"subject":{"reference":"Patient/63050905-516c-41e9-8e97-c792143fdd0b"},"authoredOn":"2026-12-04T06:30:00.000+00:00"},"request":{"method":"PUT","url":"ServiceRequest/813caa71-32f8-4d74-ac36-8704350f1a28"}},{"fullUrl":"Practitioner/1771fe4a-aeae-4a5c-ae7f-14e9dc2d080c","resource":{"resourceType":"Practitioner","id":"1771fe4a-aeae-4a5c-ae7f-14e9dc2d080c","identifier":[{"system":"http://hl7.org/fhir/sid/us-npi","value":"123456"}],"name":[{"family":"Evil","prefix":["Dr"]}]},"request":{"method":"PUT","url":"Practitioner/1771fe4a-aeae-4a5c-ae7f-14e9dc2d080c"}},{"fullUrl":"Patient/63050905-516c-41e9-8e97-c792143fdd0b","resource":{"resourceType":"Patient","id":"63050905-516c-41e9-8e97-c792143fdd0b","meta":{"profile":["http://hl7.org/fhir/us/qicore/StructureDefinition/qicore-patient"]},"text":{"status":"generated","div":"<div xmlns=\"http://www.w3.org/1999/xhtml\"><div class=\"hapiHeaderText\">CMODuringED <b>DENEXPASS </b></div><table class=\"hapiPropertyTable\"><tbody><tr><td>Identifier</td><td>45452ea1dc23640e1878befc89e45fab</td></tr><tr><td>Date of birth</td><td><span>03 March 1974</span></td></tr></tbody></table></div>"},"extension":[{"url":"http://hl7.org/fhir/us/core/StructureDefinition/us-core-race","extension":[{"url":"ombCategory","valueCoding":{"system":"urn:oid:2.16.840.1.113883.6.238","code":"1002-5","display":"American Indian or Alaska Native","userSelected":true}},{"url":"text","valueString":"American Indian or Alaska Native"}]},{"url":"http://hl7.org/fhir/us/core/StructureDefinition/us-core-ethnicity","extension":[{"url":"ombCategory","valueCoding":{"system":"urn:oid:2.16.840.1.113883.6.238","code":"2135-2","display":"Hispanic or Latino","userSelected":true}},{"url":"text","valueString":"Hispanic or Latino"}]}],"identifier":[{"type":{"coding":[{"system":"http://terminology.hl7.org/CodeSystem/v2-0203","code":"MR"}]},"system":"https://bonnie-fhir.healthit.gov/","value":"612e6e7d02c62a011f2ee907"}],"active":true,"name":[{"use":"usual","family":"DENEXPass","given":["CMODuringED"]}],"gender":"female","birthDate":"1975-03-03"},"request":{"method":"PUT","url":"Patient/63050905-516c-41e9-8e97-c792143fdd0b"}},{"fullUrl":"Bundle/612e6e7d02c62a011f2ee907","resource":{"resourceType":"Bundle","id":"612e6e7d02c62a011f2ee907","type":"transaction","entry":[{"fullUrl":"https://madie.cms.gov/Patient/63050905-516c-41e9-8e97-c792143fdd0b","resource":{"resourceType":"Patient","id":"63050905-516c-41e9-8e97-c792143fdd0b","meta":{"profile":["http://hl7.org/fhir/us/qicore/StructureDefinition/qicore-patient"]},"text":{"status":"generated","div":"<div xmlns=\"http://www.w3.org/1999/xhtml\"><div class=\"hapiHeaderText\">CMODuringED <b>DENEXPASS </b></div><table class=\"hapiPropertyTable\"><tbody><tr><td>Identifier</td><td>45452ea1dc23640e1878befc89e45fab</td></tr><tr><td>Date of birth</td><td><span>03 March 1974</span></td></tr></tbody></table></div>"},"extension":[{"url":"http://hl7.org/fhir/us/core/StructureDefinition/us-core-race","extension":[{"url":"ombCategory","valueCoding":{"system":"urn:oid:2.16.840.1.113883.6.238","code":"1002-5","display":"American Indian or Alaska Native","userSelected":true}},{"url":"text","valueString":"American Indian or Alaska Native"}]},{"url":"http://hl7.org/fhir/us/core/StructureDefinition/us-core-ethnicity","extension":[{"url":"ombCategory","valueCoding":{"system":"urn:oid:2.16.840.1.113883.6.238","code":"2135-2","display":"Hispanic or Latino","userSelected":true}},{"url":"text","valueString":"Hispanic or Latino"}]}],"identifier":[{"type":{"coding":[{"system":"http://terminology.hl7.org/CodeSystem/v2-0203","code":"MR"}]},"system":"https://bonnie-fhir.healthit.gov/","value":"612e6e7d02c62a011f2ee907"}],"active":true,"name":[{"use":"usual","family":"DENEXPass","given":["CMODuringED"]}],"gender":"female","birthDate":"1975-03-03"},"request":{"method":"PUT","url":"Patient/63050905-516c-41e9-8e97-c792143fdd0b"}},{"fullUrl":"https://madie.cms.gov/Encounter/54400bd1-0682-4404-a8aa-c111e4e7635b","resource":{"resourceType":"Encounter","id":"54400bd1-0682-4404-a8aa-c111e4e7635b","meta":{"profile":["http://hl7.org/fhir/us/qicore/StructureDefinition/qicore-encounter"]},"status":"finished","class":{"system":"http://terminology.hl7.org/CodeSystem/v3-ActCode","code":"EMER","display":"emergency"},"type":[{"coding":[{"system":"http://snomed.info/sct","code":"4525004"}]}],"subject":{"reference":"Patient/63050905-516c-41e9-8e97-c792143fdd0b"},"period":{"start":"2026-12-04T06:00:00.000+00:00","end":"2026-12-04T07:15:00.000+00:00"},"length":{"value":0.0,"unit":"days"}},"request":{"method":"PUT","url":"Encounter/54400bd1-0682-4404-a8aa-c111e4e7635b"}},{"fullUrl":"https://madie.cms.gov/Encounter/83910273-9a49-4811-9014-47898895eef9","resource":{"resourceType":"Encounter","id":"83910273-9a49-4811-9014-47898895eef9","meta":{"profile":["http://hl7.org/fhir/us/qicore/StructureDefinition/qicore-encounter"]},"status":"finished","class":{"system":"http://terminology.hl7.org/CodeSystem/v3-ActCode","code":"IMP","display":"inpatient encounter"},"type":[{"coding":[{"system":"http://snomed.info/sct","code":"8715000"}]}],"subject":{"reference":"Patient/63050905-516c-41e9-8e97-c792143fdd0b"},"period":{"start":"2026-12-04T08:00:00.000+00:00","end":"2026-12-30T08:15:00.000+00:00"},"length":{"value":26.0,"unit":"days"},"location":[{"location":{"reference":"Location/e14aee20-eb5d-452b-a6f0-8ec33df9511f"},"period":{"start":"2026-12-26T08:00:00.000+00:00","end":"2026-12-28T08:15:00.000+00:00"}}]},"request":{"method":"PUT","url":"Encounter/83910273-9a49-4811-9014-47898895eef9"}},{"fullUrl":"https://madie.cms.gov/ServiceRequest/813caa71-32f8-4d74-ac36-8704350f1a28","resource":{"resourceType":"ServiceRequest","id":"813caa71-32f8-4d74-ac36-8704350f1a28","meta":{"profile":["http://hl7.org/fhir/us/qicore/StructureDefinition/qicore-servicerequest"]},"status":"completed","intent":"order","code":{"coding":[{"system":"http://snomed.info/sct","code":"133918004"}]},"subject":{"reference":"Patient/63050905-516c-41e9-8e97-c792143fdd0b"},"authoredOn":"2026-12-04T06:30:00.000+00:00"},"request":{"method":"PUT","url":"ServiceRequest/813caa71-32f8-4d74-ac36-8704350f1a28"}},{"fullUrl":"https://madie.cms.gov/Coverage/a932bdfb-d1a9-4f0e-91f5-387e2a4cd9fe","resource":{"resourceType":"Coverage","id":"a932bdfb-d1a9-4f0e-91f5-387e2a4cd9fe","status":"active","beneficiary":{"reference":"Patient/63050905-516c-41e9-8e97-c792143fdd0b"},"period":{"start":"1975-03-03T08:00:00.000+00:00"},"payor":[{"reference":"Organization/a8b07506-98d8-4295-8a5a-687f06464a68"}]},"request":{"method":"PUT","url":"Coverage/a932bdfb-d1a9-4f0e-91f5-387e2a4cd9fe"}},{"fullUrl":"https://madie.cms.gov/Location/e7cfe6d7-ac5b-4b40-87d2-b84b52aaf886","resource":{"resourceType":"Location","id":"e7cfe6d7-ac5b-4b40-87d2-b84b52aaf886","type":[{"coding":[{"system":"http://cts.nlm.nih.gov/fhir/cs/hsloc","version":"2020","code":"1025-6","display":"Trauma Critical Care","userSelected":true}]}]},"request":{"method":"PUT","url":"Location/e7cfe6d7-ac5b-4b40-87d2-b84b52aaf886"}},{"fullUrl":"https://madie.cms.gov/Location/e14aee20-eb5d-452b-a6f0-8ec33df9511f","resource":{"resourceType":"Location","id":"e14aee20-eb5d-452b-a6f0-8ec33df9511f","meta":{"profile":["http://hl7.org/fhir/us/qicore/StructureDefinition/qicore-location"]},"identifier":[{"use":"usual","system":"http://exampleoflocation.com","value":"B1-S.F2"}],"name":"Medical Surgical East, first floor","type":[{"coding":[{"system":"https://www.cdc.gov/nhsn/cdaportal/terminology/codesystem/hsloc.html","code":"1025-6","display":"Trauma Critical Care","userSelected":true}]}]},"request":{"method":"PUT","url":"Location/e14aee20-eb5d-452b-a6f0-8ec33df9511f"}},{"fullUrl":"https://madie.cms.gov/Organization/a8b07506-98d8-4295-8a5a-687f06464a68","resource":{"resourceType":"Organization","id":"a8b07506-98d8-4295-8a5a-687f06464a68","meta":{"profile":["http://hl7.org/fhir/us/qicore/StructureDefinition/qicore-organization"]},"identifier":[{"use":"temp","system":"urn:oid:2.16.840.1.113883.4.4","value":"21-3259825"}],"active":true,"type":[{"coding":[{"system":"http://terminology.hl7.org/CodeSystem/organization-type","code":"pay","display":"Payer"}]}],"name":"Blue Cross Blue Shield of Texas","telecom":[{"system":"phone","value":"(+1) 972-766-6900"}],"address":[{"use":"billing","type":"postal","line":["P.O. Box 660044"],"city":"Dallas","state":"TX","postalCode":"75266-0044","country":"USA"}]},"request":{"method":"PUT","url":"Organization/a8b07506-98d8-4295-8a5a-687f06464a68"}},{"fullUrl":"https://madie.cms.gov/Practitioner/1771fe4a-aeae-4a5c-ae7f-14e9dc2d080c","resource":{"resourceType":"Practitioner","id":"1771fe4a-aeae-4a5c-ae7f-14e9dc2d080c","identifier":[{"system":"http://hl7.org/fhir/sid/us-npi","value":"123456"}],"name":[{"family":"Evil","prefix":["Dr"]}]},"request":{"method":"PUT","url":"Practitioner/1771fe4a-aeae-4a5c-ae7f-14e9dc2d080c"}},{"fullUrl":"https://madie.cms.gov/MeasureReport/56d371c9-719d-41a1-b0cb-5d44988ae40e","resource":{"resourceType":"MeasureReport","id":"56d371c9-719d-41a1-b0cb-5d44988ae40e","meta":{"profile":["http://hl7.org/fhir/us/cqfmeasures/StructureDefinition/test-case-cqfm"]},"contained":[{"resourceType":"Parameters","id":"9ac1e325-afd6-49c7-b2c7-3b19bf3848a7-parameters","parameter":[{"name":"subject","valueString":"63050905-516c-41e9-8e97-c792143fdd0b"}]}],"extension":[{"url":"http://hl7.org/fhir/StructureDefinition/cqf-inputParameters","valueReference":{"reference":"#9ac1e325-afd6-49c7-b2c7-3b19bf3848a7-parameters"}},{"url":"http://hl7.org/fhir/us/cqfmeasures/StructureDefinition/cqfm-testCaseDescription","valueMarkdown":"meets IPP and Denominator, inpatient visit starts <=1 hour after the end of ED visit AND Comfort Measures are ordered during ED visit\n"}],"modifierExtension":[{"url":"http://hl7.org/fhir/us/cqfmeasures/StructureDefinition/cqfm-isTestCase","valueBoolean":true}],"status":"complete","type":"individual","measure":"https://madie.cms.gov/Measure/CMS190VTEProphylaxisICUFHIR","period":{"start":"2026-01-01","end":"2026-12-31"},"group":[{"id":"Group_1","population":[{"id":"InitialPopulation_1","code":{"coding":[{"system":"http://terminology.hl7.org/CodeSystem/measure-population","code":"initial-population","display":"Initial Population"}]},"count":1},{"id":"Denominator_1","code":{"coding":[{"system":"http://terminology.hl7.org/CodeSystem/measure-population","code":"denominator","display":"Denominator"}]},"count":1},{"id":"DenominatorExclusion_1","code":{"coding":[{"system":"http://terminology.hl7.org/CodeSystem/measure-population","code":"denominator-exclusion","display":"Denominator Exclusion"}]},"count":1},{"id":"Numerator_1","code":{"coding":[{"system":"http://terminology.hl7.org/CodeSystem/measure-population","code":"numerator","display":"Numerator"}]},"count":0},{"id":"DenominatorException_1","code":{"coding":[{"system":"http://terminology.hl7.org/CodeSystem/measure-population","code":"denominator-exception","display":"Denominator Exception"}]},"count":0}],"measureScore":{"value":0.0}}],"evaluatedResource":[{"reference":"Patient/63050905-516c-41e9-8e97-c792143fdd0b"},{"reference":"Encounter/54400bd1-0682-4404-a8aa-c111e4e7635b"},{"reference":"Encounter/83910273-9a49-4811-9014-47898895eef9"},{"reference":"ServiceRequest/813caa71-32f8-4d74-ac36-8704350f1a28"},{"reference":"Coverage/a932bdfb-d1a9-4f0e-91f5-387e2a4cd9fe"},{"reference":"Location/e7cfe6d7-ac5b-4b40-87d2-b84b52aaf886"},{"reference":"Location/e14aee20-eb5d-452b-a6f0-8ec33df9511f"},{"reference":"Organization/a8b07506-98d8-4295-8a5a-687f06464a68"},{"reference":"Practitioner/1771fe4a-aeae-4a5c-ae7f-14e9dc2d080c"}]},"request":{"method":"PUT","url":"MeasureReport/56d371c9-719d-41a1-b0cb-5d44988ae40e"}}]},"request":{"method":"PUT","url":"Bundle/612e6e7d02c62a011f2ee907"}},{"fullUrl":"Coverage/a932bdfb-d1a9-4f0e-91f5-387e2a4cd9fe","resource":{"resourceType":"Coverage","id":"a932bdfb-d1a9-4f0e-91f5-387e2a4cd9fe","status":"active","beneficiary":{"reference":"Patient/63050905-516c-41e9-8e97-c792143fdd0b"},"period":{"start":"1975-03-03T08:00:00.000+00:00"},"payor":[{"reference":"Organization/a8b07506-98d8-4295-8a5a-687f06464a68"}]},"request":{"method":"PUT","url":"Coverage/a932bdfb-d1a9-4f0e-91f5-387e2a4cd9fe"}},{"fullUrl":"Organization/a8b07506-98d8-4295-8a5a-687f06464a68","resource":{"resourceType":"Organization","id":"a8b07506-98d8-4295-8a5a-687f06464a68","meta":{"profile":["http://hl7.org/fhir/us/qicore/StructureDefinition/qicore-organization"]},"identifier":[{"use":"temp","system":"urn:oid:2.16.840.1.113883.4.4","value":"21-3259825"}],"active":true,"type":[{"coding":[{"system":"http://terminology.hl7.org/CodeSystem/organization-type","code":"pay","display":"Payer"}]}],"name":"Blue Cross Blue Shield of Texas","telecom":[{"system":"phone","value":"(+1) 972-766-6900"}],"address":[{"use":"billing","type":"postal","line":["P.O. Box 660044"],"city":"Dallas","state":"TX","postalCode":"75266-0044","country":"USA"}]},"request":{"method":"PUT","url":"Organization/a8b07506-98d8-4295-8a5a-687f06464a68"}}]}