{"resourceType":"Bundle","id":"tests-4cb01b91-c616-42bf-bee5-20bb0f94794b-bundle","type":"transaction","entry":[{"fullUrl":"Coverage/5c89ea77-e2de-4056-bcfb-78eb3e1d1414","resource":{"resourceType":"Coverage","id":"5c89ea77-e2de-4056-bcfb-78eb3e1d1414","status":"active","beneficiary":{"reference":"Patient/4cb01b91-c616-42bf-bee5-20bb0f94794b"},"period":{"start":"1975-03-03T08:00:00.000+00:00"},"payor":[{"reference":"Organization/39728b76-9761-4947-99a6-4b36e1efc61a"}]},"request":{"method":"PUT","url":"Coverage/5c89ea77-e2de-4056-bcfb-78eb3e1d1414"}},{"fullUrl":"Organization/39728b76-9761-4947-99a6-4b36e1efc61a","resource":{"resourceType":"Organization","id":"39728b76-9761-4947-99a6-4b36e1efc61a","meta":{"profile":["http://hl7.org/fhir/us/qicore/StructureDefinition/qicore-organization"]},"identifier":[{"use":"temp","system":"urn:oid:2.16.840.1.113883.4.4","value":"21-3259825"}],"active":true,"type":[{"coding":[{"system":"http://terminology.hl7.org/CodeSystem/organization-type","code":"pay","display":"Payer"}]}],"name":"Blue Cross Blue Shield of Texas","telecom":[{"system":"phone","value":"(+1) 972-766-6900"}],"address":[{"use":"billing","type":"postal","line":["P.O. Box 660044"],"city":"Dallas","state":"TX","postalCode":"75266-0044","country":"USA"}]},"request":{"method":"PUT","url":"Organization/39728b76-9761-4947-99a6-4b36e1efc61a"}},{"fullUrl":"MedicationAdministration/46ee89d4-b7b0-4db6-a93b-74fbd6613af8","resource":{"resourceType":"MedicationAdministration","id":"46ee89d4-b7b0-4db6-a93b-74fbd6613af8","meta":{"profile":["http://hl7.org/fhir/us/qicore/StructureDefinition/qicore-medicationadministration"]},"status":"completed","medicationCodeableConcept":{"coding":[{"system":"http://www.nlm.nih.gov/research/umls/rxnorm","code":"1599543","display":"edoxaban 15 MG Oral Tablet"}]},"subject":{"reference":"Patient/4cb01b91-c616-42bf-bee5-20bb0f94794b"},"effectivePeriod":{"start":"2026-12-06T11:30:00.000+00:00","end":"2026-12-06T11:35:00.000+00:00"}},"request":{"method":"PUT","url":"MedicationAdministration/46ee89d4-b7b0-4db6-a93b-74fbd6613af8"}},{"fullUrl":"Patient/4cb01b91-c616-42bf-bee5-20bb0f94794b","resource":{"resourceType":"Patient","id":"4cb01b91-c616-42bf-bee5-20bb0f94794b","meta":{"profile":["http://hl7.org/fhir/us/qicore/StructureDefinition/qicore-patient"]},"text":{"status":"generated","div":"<div xmlns=\"http://www.w3.org/1999/xhtml\"><div class=\"hapiHeaderText\">FactorXaDuringICUDxVTEResolved<b>NUMERPASS </b></div><table class=\"hapiPropertyTable\"><tbody><tr><td>Identifier</td><td>ba9e367399672c89721f9d3c22d115ac</td></tr><tr><td>Date of birth</td><td><span>03 March 1974</span></td></tr></tbody></table></div>"},"extension":[{"url":"http://hl7.org/fhir/us/core/StructureDefinition/us-core-race","extension":[{"url":"ombCategory","valueCoding":{"system":"urn:oid:2.16.840.1.113883.6.238","code":"1002-5","display":"American Indian or Alaska Native","userSelected":true}},{"url":"text","valueString":"American Indian or Alaska Native"}]},{"url":"http://hl7.org/fhir/us/core/StructureDefinition/us-core-ethnicity","extension":[{"url":"ombCategory","valueCoding":{"system":"urn:oid:2.16.840.1.113883.6.238","code":"2135-2","display":"Hispanic or Latino","userSelected":true}},{"url":"text","valueString":"Hispanic or Latino"}]}],"identifier":[{"type":{"coding":[{"system":"http://terminology.hl7.org/CodeSystem/v2-0203","code":"MR"}]},"system":"https://bonnie-fhir.healthit.gov/","value":"926d2075-8536-4e61-9154-934460890b9d"}],"active":true,"name":[{"use":"usual","family":"NUMERPass","given":["FactorXaDuringICUDxVTEResolved"]}],"gender":"female","birthDate":"1975-03-03"},"request":{"method":"PUT","url":"Patient/4cb01b91-c616-42bf-bee5-20bb0f94794b"}},{"fullUrl":"Encounter/d6e8eb8b-c698-474a-9c66-a958fd1dc263","resource":{"resourceType":"Encounter","id":"d6e8eb8b-c698-474a-9c66-a958fd1dc263","meta":{"profile":["http://hl7.org/fhir/us/qicore/StructureDefinition/qicore-encounter"]},"status":"finished","class":{"system":"http://terminology.hl7.org/CodeSystem/v3-ActCode","code":"IMP","display":"inpatient encounter"},"type":[{"coding":[{"system":"http://snomed.info/sct","code":"8715000"}]}],"subject":{"reference":"Patient/4cb01b91-c616-42bf-bee5-20bb0f94794b"},"period":{"start":"2026-12-04T08:00:00.000+00:00","end":"2026-12-30T08:15:00.000+00:00"},"length":{"value":26,"unit":"days"},"location":[{"location":{"reference":"Location/9d9625f0-e1c9-47f3-af37-af39282bf79c"},"period":{"start":"2026-12-06T08:00:00.000+00:00","end":"2026-12-08T08:15:00.000+00:00"}}]},"request":{"method":"PUT","url":"Encounter/d6e8eb8b-c698-474a-9c66-a958fd1dc263"}},{"fullUrl":"MeasureReport/041bceca-f754-4c26-954b-f4e07956b5d1","resource":{"resourceType":"MeasureReport","id":"041bceca-f754-4c26-954b-f4e07956b5d1","meta":{"profile":["http://hl7.org/fhir/us/cqfmeasures/StructureDefinition/test-case-cqfm"]},"contained":[{"resourceType":"Parameters","id":"b60c25d1-d34a-4080-b4a2-1b978134aaf4-parameters","parameter":[{"name":"subject","valueString":"4cb01b91-c616-42bf-bee5-20bb0f94794b"}]}],"extension":[{"url":"http://hl7.org/fhir/StructureDefinition/cqf-inputParameters","valueReference":{"reference":"#b60c25d1-d34a-4080-b4a2-1b978134aaf4-parameters"}},{"url":"http://hl7.org/fhir/us/cqfmeasures/StructureDefinition/cqfm-testCaseDescription","valueMarkdown":"test and cover condition clinicalstatus is resolved"}],"modifierExtension":[{"url":"http://hl7.org/fhir/us/cqfmeasures/StructureDefinition/cqfm-isTestCase","valueBoolean":true}],"status":"complete","type":"individual","measure":"https://madie.cms.gov/Measure/CMS190VTEProphylaxisICUFHIR","period":{"start":"2026-01-01","end":"2026-12-31"},"group":[{"id":"Group_1","population":[{"id":"InitialPopulation_1","code":{"coding":[{"system":"http://terminology.hl7.org/CodeSystem/measure-population","code":"initial-population","display":"Initial Population"}]},"count":1},{"id":"Denominator_1","code":{"coding":[{"system":"http://terminology.hl7.org/CodeSystem/measure-population","code":"denominator","display":"Denominator"}]},"count":1},{"id":"DenominatorExclusion_1","code":{"coding":[{"system":"http://terminology.hl7.org/CodeSystem/measure-population","code":"denominator-exclusion","display":"Denominator Exclusion"}]},"count":0},{"id":"Numerator_1","code":{"coding":[{"system":"http://terminology.hl7.org/CodeSystem/measure-population","code":"numerator","display":"Numerator"}]},"count":1},{"id":"DenominatorException_1","code":{"coding":[{"system":"http://terminology.hl7.org/CodeSystem/measure-population","code":"denominator-exception","display":"Denominator Exception"}]},"count":0}],"measureScore":{"value":0.0}}],"evaluatedResource":[{"reference":"Patient/4cb01b91-c616-42bf-bee5-20bb0f94794b"},{"reference":"Encounter/d6e8eb8b-c698-474a-9c66-a958fd1dc263"},{"reference":"Coverage/5c89ea77-e2de-4056-bcfb-78eb3e1d1414"},{"reference":"Condition/ee28d3b6-b22d-474e-a04f-a5a8ca671cc0"},{"reference":"MedicationAdministration/46ee89d4-b7b0-4db6-a93b-74fbd6613af8"},{"reference":"Location/9d9625f0-e1c9-47f3-af37-af39282bf79c"},{"reference":"Organization/39728b76-9761-4947-99a6-4b36e1efc61a"}]},"request":{"method":"PUT","url":"MeasureReport/041bceca-f754-4c26-954b-f4e07956b5d1"}},{"fullUrl":"Bundle/926d2075-8536-4e61-9154-934460890b9d","resource":{"resourceType":"Bundle","id":"926d2075-8536-4e61-9154-934460890b9d","type":"transaction","entry":[{"fullUrl":"https://madie.cms.gov/Patient/4cb01b91-c616-42bf-bee5-20bb0f94794b","resource":{"resourceType":"Patient","id":"4cb01b91-c616-42bf-bee5-20bb0f94794b","meta":{"profile":["http://hl7.org/fhir/us/qicore/StructureDefinition/qicore-patient"]},"text":{"status":"generated","div":"<div xmlns=\"http://www.w3.org/1999/xhtml\"><div class=\"hapiHeaderText\">FactorXaDuringICUDxVTEResolved<b>NUMERPASS </b></div><table class=\"hapiPropertyTable\"><tbody><tr><td>Identifier</td><td>ba9e367399672c89721f9d3c22d115ac</td></tr><tr><td>Date of birth</td><td><span>03 March 1974</span></td></tr></tbody></table></div>"},"extension":[{"url":"http://hl7.org/fhir/us/core/StructureDefinition/us-core-race","extension":[{"url":"ombCategory","valueCoding":{"system":"urn:oid:2.16.840.1.113883.6.238","code":"1002-5","display":"American Indian or Alaska Native","userSelected":true}},{"url":"text","valueString":"American Indian or Alaska Native"}]},{"url":"http://hl7.org/fhir/us/core/StructureDefinition/us-core-ethnicity","extension":[{"url":"ombCategory","valueCoding":{"system":"urn:oid:2.16.840.1.113883.6.238","code":"2135-2","display":"Hispanic or Latino","userSelected":true}},{"url":"text","valueString":"Hispanic or Latino"}]}],"identifier":[{"type":{"coding":[{"system":"http://terminology.hl7.org/CodeSystem/v2-0203","code":"MR"}]},"system":"https://bonnie-fhir.healthit.gov/","value":"926d2075-8536-4e61-9154-934460890b9d"}],"active":true,"name":[{"use":"usual","family":"NUMERPass","given":["FactorXaDuringICUDxVTEResolved"]}],"gender":"female","birthDate":"1975-03-03"},"request":{"method":"PUT","url":"Patient/4cb01b91-c616-42bf-bee5-20bb0f94794b"}},{"fullUrl":"https://madie.cms.gov/Encounter/d6e8eb8b-c698-474a-9c66-a958fd1dc263","resource":{"resourceType":"Encounter","id":"d6e8eb8b-c698-474a-9c66-a958fd1dc263","meta":{"profile":["http://hl7.org/fhir/us/qicore/StructureDefinition/qicore-encounter"]},"status":"finished","class":{"system":"http://terminology.hl7.org/CodeSystem/v3-ActCode","code":"IMP","display":"inpatient encounter"},"type":[{"coding":[{"system":"http://snomed.info/sct","code":"8715000"}]}],"subject":{"reference":"Patient/4cb01b91-c616-42bf-bee5-20bb0f94794b"},"period":{"start":"2026-12-04T08:00:00.000+00:00","end":"2026-12-30T08:15:00.000+00:00"},"length":{"value":26,"unit":"days"},"location":[{"location":{"reference":"Location/9d9625f0-e1c9-47f3-af37-af39282bf79c"},"period":{"start":"2026-12-06T08:00:00.000+00:00","end":"2026-12-08T08:15:00.000+00:00"}}]},"request":{"method":"PUT","url":"Encounter/d6e8eb8b-c698-474a-9c66-a958fd1dc263"}},{"fullUrl":"https://madie.cms.gov/Coverage/5c89ea77-e2de-4056-bcfb-78eb3e1d1414","resource":{"resourceType":"Coverage","id":"5c89ea77-e2de-4056-bcfb-78eb3e1d1414","status":"active","beneficiary":{"reference":"Patient/4cb01b91-c616-42bf-bee5-20bb0f94794b"},"period":{"start":"1975-03-03T08:00:00.000+00:00"},"payor":[{"reference":"Organization/39728b76-9761-4947-99a6-4b36e1efc61a"}]},"request":{"method":"PUT","url":"Coverage/5c89ea77-e2de-4056-bcfb-78eb3e1d1414"}},{"fullUrl":"https://madie.cms.gov/Condition/ee28d3b6-b22d-474e-a04f-a5a8ca671cc0","resource":{"resourceType":"Condition","id":"ee28d3b6-b22d-474e-a04f-a5a8ca671cc0","meta":{"profile":["http://hl7.org/fhir/us/qicore/StructureDefinition/qicore-condition-problems-health-concerns"]},"clinicalStatus":{"coding":[{"system":"http://terminology.hl7.org/CodeSystem/condition-clinical","code":"resolved"}]},"verificationStatus":{"coding":[{"system":"http://terminology.hl7.org/CodeSystem/condition-ver-status","code":"confirmed"}]},"category":[{"coding":[{"system":"http://terminology.hl7.org/CodeSystem/condition-category","code":"problem-list-item","display":"Problem List Item"}]}],"code":{"coding":[{"system":"http://hl7.org/fhir/sid/icd-10-cm","code":"I26.09","display":"Other pulmonary embolism with acute cor pulmonale"}]},"subject":{"reference":"Patient/4cb01b91-c616-42bf-bee5-20bb0f94794b"},"onsetPeriod":{"start":"2026-11-03T08:00:00.000+00:00","end":"2026-12-03T08:00:00.000+00:00"}},"request":{"method":"PUT","url":"Condition/ee28d3b6-b22d-474e-a04f-a5a8ca671cc0"}},{"fullUrl":"https://madie.cms.gov/MedicationAdministration/46ee89d4-b7b0-4db6-a93b-74fbd6613af8","resource":{"resourceType":"MedicationAdministration","id":"46ee89d4-b7b0-4db6-a93b-74fbd6613af8","meta":{"profile":["http://hl7.org/fhir/us/qicore/StructureDefinition/qicore-medicationadministration"]},"status":"completed","medicationCodeableConcept":{"coding":[{"system":"http://www.nlm.nih.gov/research/umls/rxnorm","code":"1599543","display":"edoxaban 15 MG Oral Tablet"}]},"subject":{"reference":"Patient/4cb01b91-c616-42bf-bee5-20bb0f94794b"},"effectivePeriod":{"start":"2026-12-06T11:30:00.000+00:00","end":"2026-12-06T11:35:00.000+00:00"}},"request":{"method":"PUT","url":"MedicationAdministration/46ee89d4-b7b0-4db6-a93b-74fbd6613af8"}},{"fullUrl":"https://madie.cms.gov/Location/9d9625f0-e1c9-47f3-af37-af39282bf79c","resource":{"resourceType":"Location","id":"9d9625f0-e1c9-47f3-af37-af39282bf79c","meta":{"profile":["http://hl7.org/fhir/us/qicore/StructureDefinition/qicore-location"]},"identifier":[{"use":"usual","system":"http://exampleoflocation.com","value":"B1-S.F2"}],"name":"Medical Surgical East, first floor","type":[{"coding":[{"system":"https://www.cdc.gov/nhsn/cdaportal/terminology/codesystem/hsloc.html","version":"2020","code":"1025-6","display":"Trauma Critical Care","userSelected":true}]}]},"request":{"method":"PUT","url":"Location/9d9625f0-e1c9-47f3-af37-af39282bf79c"}},{"fullUrl":"https://madie.cms.gov/Organization/39728b76-9761-4947-99a6-4b36e1efc61a","resource":{"resourceType":"Organization","id":"39728b76-9761-4947-99a6-4b36e1efc61a","meta":{"profile":["http://hl7.org/fhir/us/qicore/StructureDefinition/qicore-organization"]},"identifier":[{"use":"temp","system":"urn:oid:2.16.840.1.113883.4.4","value":"21-3259825"}],"active":true,"type":[{"coding":[{"system":"http://terminology.hl7.org/CodeSystem/organization-type","code":"pay","display":"Payer"}]}],"name":"Blue Cross Blue Shield of Texas","telecom":[{"system":"phone","value":"(+1) 972-766-6900"}],"address":[{"use":"billing","type":"postal","line":["P.O. Box 660044"],"city":"Dallas","state":"TX","postalCode":"75266-0044","country":"USA"}]},"request":{"method":"PUT","url":"Organization/39728b76-9761-4947-99a6-4b36e1efc61a"}},{"fullUrl":"https://madie.cms.gov/MeasureReport/041bceca-f754-4c26-954b-f4e07956b5d1","resource":{"resourceType":"MeasureReport","id":"041bceca-f754-4c26-954b-f4e07956b5d1","meta":{"profile":["http://hl7.org/fhir/us/cqfmeasures/StructureDefinition/test-case-cqfm"]},"contained":[{"resourceType":"Parameters","id":"b60c25d1-d34a-4080-b4a2-1b978134aaf4-parameters","parameter":[{"name":"subject","valueString":"4cb01b91-c616-42bf-bee5-20bb0f94794b"}]}],"extension":[{"url":"http://hl7.org/fhir/StructureDefinition/cqf-inputParameters","valueReference":{"reference":"#b60c25d1-d34a-4080-b4a2-1b978134aaf4-parameters"}},{"url":"http://hl7.org/fhir/us/cqfmeasures/StructureDefinition/cqfm-testCaseDescription","valueMarkdown":"test and cover condition clinicalstatus is resolved"}],"modifierExtension":[{"url":"http://hl7.org/fhir/us/cqfmeasures/StructureDefinition/cqfm-isTestCase","valueBoolean":true}],"status":"complete","type":"individual","measure":"https://madie.cms.gov/Measure/CMS190VTEProphylaxisICUFHIR","period":{"start":"2026-01-01","end":"2026-12-31"},"group":[{"id":"Group_1","population":[{"id":"InitialPopulation_1","code":{"coding":[{"system":"http://terminology.hl7.org/CodeSystem/measure-population","code":"initial-population","display":"Initial Population"}]},"count":1},{"id":"Denominator_1","code":{"coding":[{"system":"http://terminology.hl7.org/CodeSystem/measure-population","code":"denominator","display":"Denominator"}]},"count":1},{"id":"DenominatorExclusion_1","code":{"coding":[{"system":"http://terminology.hl7.org/CodeSystem/measure-population","code":"denominator-exclusion","display":"Denominator Exclusion"}]},"count":0},{"id":"Numerator_1","code":{"coding":[{"system":"http://terminology.hl7.org/CodeSystem/measure-population","code":"numerator","display":"Numerator"}]},"count":1},{"id":"DenominatorException_1","code":{"coding":[{"system":"http://terminology.hl7.org/CodeSystem/measure-population","code":"denominator-exception","display":"Denominator Exception"}]},"count":0}],"measureScore":{"value":0.0}}],"evaluatedResource":[{"reference":"Patient/4cb01b91-c616-42bf-bee5-20bb0f94794b"},{"reference":"Encounter/d6e8eb8b-c698-474a-9c66-a958fd1dc263"},{"reference":"Coverage/5c89ea77-e2de-4056-bcfb-78eb3e1d1414"},{"reference":"Condition/ee28d3b6-b22d-474e-a04f-a5a8ca671cc0"},{"reference":"MedicationAdministration/46ee89d4-b7b0-4db6-a93b-74fbd6613af8"},{"reference":"Location/9d9625f0-e1c9-47f3-af37-af39282bf79c"},{"reference":"Organization/39728b76-9761-4947-99a6-4b36e1efc61a"}]},"request":{"method":"PUT","url":"MeasureReport/041bceca-f754-4c26-954b-f4e07956b5d1"}}]},"request":{"method":"PUT","url":"Bundle/926d2075-8536-4e61-9154-934460890b9d"}},{"fullUrl":"Condition/ee28d3b6-b22d-474e-a04f-a5a8ca671cc0","resource":{"resourceType":"Condition","id":"ee28d3b6-b22d-474e-a04f-a5a8ca671cc0","meta":{"profile":["http://hl7.org/fhir/us/qicore/StructureDefinition/qicore-condition-problems-health-concerns"]},"clinicalStatus":{"coding":[{"system":"http://terminology.hl7.org/CodeSystem/condition-clinical","code":"resolved"}]},"verificationStatus":{"coding":[{"system":"http://terminology.hl7.org/CodeSystem/condition-ver-status","code":"confirmed"}]},"category":[{"coding":[{"system":"http://terminology.hl7.org/CodeSystem/condition-category","code":"problem-list-item","display":"Problem List Item"}]}],"code":{"coding":[{"system":"http://hl7.org/fhir/sid/icd-10-cm","code":"I26.09","display":"Other pulmonary embolism with acute cor pulmonale"}]},"subject":{"reference":"Patient/4cb01b91-c616-42bf-bee5-20bb0f94794b"},"onsetPeriod":{"start":"2026-11-03T08:00:00.000+00:00","end":"2026-12-03T08:00:00.000+00:00"}},"request":{"method":"PUT","url":"Condition/ee28d3b6-b22d-474e-a04f-a5a8ca671cc0"}},{"fullUrl":"Location/9d9625f0-e1c9-47f3-af37-af39282bf79c","resource":{"resourceType":"Location","id":"9d9625f0-e1c9-47f3-af37-af39282bf79c","meta":{"profile":["http://hl7.org/fhir/us/qicore/StructureDefinition/qicore-location"]},"identifier":[{"use":"usual","system":"http://exampleoflocation.com","value":"B1-S.F2"}],"name":"Medical Surgical East, first floor","type":[{"coding":[{"system":"https://www.cdc.gov/nhsn/cdaportal/terminology/codesystem/hsloc.html","version":"2020","code":"1025-6","display":"Trauma Critical Care","userSelected":true}]}]},"request":{"method":"PUT","url":"Location/9d9625f0-e1c9-47f3-af37-af39282bf79c"}}]}