{"resourceType":"Bundle","id":"tests-1242acd7-1a2b-4588-8d23-ea4f3dc1e0d5-bundle","type":"transaction","entry":[{"fullUrl":"Procedure/85cdcc43-36db-44d5-a202-5ab66c9f5878","resource":{"resourceType":"Procedure","id":"85cdcc43-36db-44d5-a202-5ab66c9f5878","meta":{"profile":["http://hl7.org/fhir/us/qicore/StructureDefinition/qicore-procedure"]},"extension":[{"url":"http://hl7.org/fhir/us/qicore/StructureDefinition/qicore-recorded","valueDateTime":"2013-12-06T13:35:00.000+00:00"}],"status":"completed","code":{"coding":[{"system":"http://snomed.info/sct","code":"533005"}]},"subject":{"reference":"Patient/1242acd7-1a2b-4588-8d23-ea4f3dc1e0d5"},"performedPeriod":{"start":"2026-12-06T08:15:00.000+00:00","end":"2026-12-06T11:15:00.000+00:00"}},"request":{"method":"PUT","url":"Procedure/85cdcc43-36db-44d5-a202-5ab66c9f5878"}},{"fullUrl":"Bundle/612e6e9602c62a011f2eef45","resource":{"resourceType":"Bundle","id":"612e6e9602c62a011f2eef45","type":"transaction","entry":[{"fullUrl":"https://madie.cms.gov/Patient/1242acd7-1a2b-4588-8d23-ea4f3dc1e0d5","resource":{"resourceType":"Patient","id":"1242acd7-1a2b-4588-8d23-ea4f3dc1e0d5","meta":{"profile":["http://hl7.org/fhir/us/qicore/StructureDefinition/qicore-patient"]},"text":{"status":"generated","div":"<div xmlns=\"http://www.w3.org/1999/xhtml\"><div class=\"hapiHeaderText\">UrologicalSurgeryNotPrin <b>DENEXFAIL </b></div><table class=\"hapiPropertyTable\"><tbody><tr><td>Identifier</td><td>134283073c75bbb3c7689c5516f3a169</td></tr><tr><td>Date of birth</td><td><span>03 March 1974</span></td></tr></tbody></table></div>"},"extension":[{"url":"http://hl7.org/fhir/us/core/StructureDefinition/us-core-race","extension":[{"url":"ombCategory","valueCoding":{"system":"urn:oid:2.16.840.1.113883.6.238","code":"1002-5","display":"American Indian or Alaska Native","userSelected":true}},{"url":"text","valueString":"American Indian or Alaska Native"}]},{"url":"http://hl7.org/fhir/us/core/StructureDefinition/us-core-ethnicity","extension":[{"url":"ombCategory","valueCoding":{"system":"urn:oid:2.16.840.1.113883.6.238","code":"2135-2","display":"Hispanic or Latino","userSelected":true}},{"url":"text","valueString":"Hispanic or Latino"}]}],"identifier":[{"type":{"coding":[{"system":"http://terminology.hl7.org/CodeSystem/v2-0203","code":"MR"}]},"system":"https://bonnie-fhir.healthit.gov/","value":"612e6e9602c62a011f2eef45"}],"active":true,"name":[{"use":"usual","family":"DENEXFail","given":["UrologicalSurgeryNotPrin"]}],"gender":"female","birthDate":"1975-03-03"},"request":{"method":"PUT","url":"Patient/1242acd7-1a2b-4588-8d23-ea4f3dc1e0d5"}},{"fullUrl":"https://madie.cms.gov/Encounter/457dd948-ab35-4c1b-8510-22b69ab5fa52","resource":{"resourceType":"Encounter","id":"457dd948-ab35-4c1b-8510-22b69ab5fa52","meta":{"profile":["http://hl7.org/fhir/us/qicore/StructureDefinition/qicore-encounter"]},"status":"finished","class":{"system":"http://terminology.hl7.org/CodeSystem/v3-ActCode","code":"IMP","display":"inpatient encounter"},"type":[{"coding":[{"system":"http://snomed.info/sct","code":"8715000"}]}],"subject":{"reference":"Patient/1242acd7-1a2b-4588-8d23-ea4f3dc1e0d5"},"period":{"start":"2026-12-04T08:00:00.000+00:00","end":"2026-12-30T08:15:00.000+00:00"},"length":{"value":26.0,"unit":"days"},"location":[{"location":{"reference":"Location/6199cbe2-52fe-43de-a8dd-415cc967b8ab"},"period":{"start":"2026-12-06T08:00:00.000+00:00","end":"2026-12-08T08:15:00.000+00:00"}}]},"request":{"method":"PUT","url":"Encounter/457dd948-ab35-4c1b-8510-22b69ab5fa52"}},{"fullUrl":"https://madie.cms.gov/Coverage/30d1ce31-9a94-4935-bbb4-5ad94c599f2e","resource":{"resourceType":"Coverage","id":"30d1ce31-9a94-4935-bbb4-5ad94c599f2e","status":"active","beneficiary":{"reference":"Patient/1242acd7-1a2b-4588-8d23-ea4f3dc1e0d5"},"period":{"start":"1975-03-03T08:00:00.000+00:00"},"payor":[{"reference":"Organization/758a85d5-5a54-4919-957b-cfbb5e3593fd"}]},"request":{"method":"PUT","url":"Coverage/30d1ce31-9a94-4935-bbb4-5ad94c599f2e"}},{"fullUrl":"https://madie.cms.gov/Procedure/85cdcc43-36db-44d5-a202-5ab66c9f5878","resource":{"resourceType":"Procedure","id":"85cdcc43-36db-44d5-a202-5ab66c9f5878","meta":{"profile":["http://hl7.org/fhir/us/qicore/StructureDefinition/qicore-procedure"]},"extension":[{"url":"http://hl7.org/fhir/us/qicore/StructureDefinition/qicore-recorded","valueDateTime":"2013-12-06T13:35:00.000+00:00"}],"status":"completed","code":{"coding":[{"system":"http://snomed.info/sct","code":"533005"}]},"subject":{"reference":"Patient/1242acd7-1a2b-4588-8d23-ea4f3dc1e0d5"},"performedPeriod":{"start":"2026-12-06T08:15:00.000+00:00","end":"2026-12-06T11:15:00.000+00:00"}},"request":{"method":"PUT","url":"Procedure/85cdcc43-36db-44d5-a202-5ab66c9f5878"}},{"fullUrl":"https://madie.cms.gov/Location/6199cbe2-52fe-43de-a8dd-415cc967b8ab","resource":{"resourceType":"Location","id":"6199cbe2-52fe-43de-a8dd-415cc967b8ab","meta":{"profile":["http://hl7.org/fhir/us/qicore/StructureDefinition/qicore-location"]},"identifier":[{"use":"usual","system":"http://exampleoflocation.com","value":"B1-S.F2"}],"name":"Medical Surgical East, first floor","type":[{"coding":[{"system":"https://www.cdc.gov/nhsn/cdaportal/terminology/codesystem/hsloc.html","code":"1025-6","display":"Trauma Critical Care","userSelected":true}]}]},"request":{"method":"PUT","url":"Location/6199cbe2-52fe-43de-a8dd-415cc967b8ab"}},{"fullUrl":"https://madie.cms.gov/Organization/758a85d5-5a54-4919-957b-cfbb5e3593fd","resource":{"resourceType":"Organization","id":"758a85d5-5a54-4919-957b-cfbb5e3593fd","meta":{"profile":["http://hl7.org/fhir/us/qicore/StructureDefinition/qicore-organization"]},"identifier":[{"use":"temp","system":"urn:oid:2.16.840.1.113883.4.4","value":"21-3259825"}],"active":true,"type":[{"coding":[{"system":"http://terminology.hl7.org/CodeSystem/organization-type","code":"pay","display":"Payer"}]}],"name":"Blue Cross Blue Shield of Texas","telecom":[{"system":"phone","value":"(+1) 972-766-6900"}],"address":[{"use":"billing","type":"postal","line":["P.O. Box 660044"],"city":"Dallas","state":"TX","postalCode":"75266-0044","country":"USA"}]},"request":{"method":"PUT","url":"Organization/758a85d5-5a54-4919-957b-cfbb5e3593fd"}},{"fullUrl":"https://madie.cms.gov/Practitioner/ea2732c8-f319-47bf-b689-1a758f1078df","resource":{"resourceType":"Practitioner","id":"ea2732c8-f319-47bf-b689-1a758f1078df","identifier":[{"system":"http://hl7.org/fhir/sid/us-npi","value":"123456"}],"name":[{"family":"Evil","prefix":["Dr"]}]},"request":{"method":"PUT","url":"Practitioner/ea2732c8-f319-47bf-b689-1a758f1078df"}},{"fullUrl":"https://madie.cms.gov/MeasureReport/fb131f10-c651-49dc-bf60-935096396eff","resource":{"resourceType":"MeasureReport","id":"fb131f10-c651-49dc-bf60-935096396eff","meta":{"profile":["http://hl7.org/fhir/us/cqfmeasures/StructureDefinition/test-case-cqfm"]},"contained":[{"resourceType":"Parameters","id":"b39c4003-1131-46e0-9218-64798fe953e8-parameters","parameter":[{"name":"subject","valueString":"1242acd7-1a2b-4588-8d23-ea4f3dc1e0d5"}]}],"extension":[{"url":"http://hl7.org/fhir/StructureDefinition/cqf-inputParameters","valueReference":{"reference":"#b39c4003-1131-46e0-9218-64798fe953e8-parameters"}},{"url":"http://hl7.org/fhir/us/cqfmeasures/StructureDefinition/cqfm-testCaseDescription","valueMarkdown":"Px urological surgery not principal\n"}],"modifierExtension":[{"url":"http://hl7.org/fhir/us/cqfmeasures/StructureDefinition/cqfm-isTestCase","valueBoolean":true}],"status":"complete","type":"individual","measure":"https://madie.cms.gov/Measure/CMS190VTEProphylaxisICUFHIR","period":{"start":"2026-01-01","end":"2026-12-31"},"group":[{"id":"Group_1","population":[{"id":"InitialPopulation_1","code":{"coding":[{"system":"http://terminology.hl7.org/CodeSystem/measure-population","code":"initial-population","display":"Initial Population"}]},"count":1},{"id":"Denominator_1","code":{"coding":[{"system":"http://terminology.hl7.org/CodeSystem/measure-population","code":"denominator","display":"Denominator"}]},"count":1},{"id":"DenominatorExclusion_1","code":{"coding":[{"system":"http://terminology.hl7.org/CodeSystem/measure-population","code":"denominator-exclusion","display":"Denominator Exclusion"}]},"count":0},{"id":"Numerator_1","code":{"coding":[{"system":"http://terminology.hl7.org/CodeSystem/measure-population","code":"numerator","display":"Numerator"}]},"count":0},{"id":"DenominatorException_1","code":{"coding":[{"system":"http://terminology.hl7.org/CodeSystem/measure-population","code":"denominator-exception","display":"Denominator Exception"}]},"count":0}],"measureScore":{"value":0.0}}],"evaluatedResource":[{"reference":"Patient/1242acd7-1a2b-4588-8d23-ea4f3dc1e0d5"},{"reference":"Encounter/457dd948-ab35-4c1b-8510-22b69ab5fa52"},{"reference":"Coverage/30d1ce31-9a94-4935-bbb4-5ad94c599f2e"},{"reference":"Procedure/85cdcc43-36db-44d5-a202-5ab66c9f5878"},{"reference":"Location/6199cbe2-52fe-43de-a8dd-415cc967b8ab"},{"reference":"Organization/758a85d5-5a54-4919-957b-cfbb5e3593fd"},{"reference":"Practitioner/ea2732c8-f319-47bf-b689-1a758f1078df"}]},"request":{"method":"PUT","url":"MeasureReport/fb131f10-c651-49dc-bf60-935096396eff"}}]},"request":{"method":"PUT","url":"Bundle/612e6e9602c62a011f2eef45"}},{"fullUrl":"Location/6199cbe2-52fe-43de-a8dd-415cc967b8ab","resource":{"resourceType":"Location","id":"6199cbe2-52fe-43de-a8dd-415cc967b8ab","meta":{"profile":["http://hl7.org/fhir/us/qicore/StructureDefinition/qicore-location"]},"identifier":[{"use":"usual","system":"http://exampleoflocation.com","value":"B1-S.F2"}],"name":"Medical Surgical East, first floor","type":[{"coding":[{"system":"https://www.cdc.gov/nhsn/cdaportal/terminology/codesystem/hsloc.html","code":"1025-6","display":"Trauma Critical Care","userSelected":true}]}]},"request":{"method":"PUT","url":"Location/6199cbe2-52fe-43de-a8dd-415cc967b8ab"}},{"fullUrl":"Practitioner/ea2732c8-f319-47bf-b689-1a758f1078df","resource":{"resourceType":"Practitioner","id":"ea2732c8-f319-47bf-b689-1a758f1078df","identifier":[{"system":"http://hl7.org/fhir/sid/us-npi","value":"123456"}],"name":[{"family":"Evil","prefix":["Dr"]}]},"request":{"method":"PUT","url":"Practitioner/ea2732c8-f319-47bf-b689-1a758f1078df"}},{"fullUrl":"Coverage/30d1ce31-9a94-4935-bbb4-5ad94c599f2e","resource":{"resourceType":"Coverage","id":"30d1ce31-9a94-4935-bbb4-5ad94c599f2e","status":"active","beneficiary":{"reference":"Patient/1242acd7-1a2b-4588-8d23-ea4f3dc1e0d5"},"period":{"start":"1975-03-03T08:00:00.000+00:00"},"payor":[{"reference":"Organization/758a85d5-5a54-4919-957b-cfbb5e3593fd"}]},"request":{"method":"PUT","url":"Coverage/30d1ce31-9a94-4935-bbb4-5ad94c599f2e"}},{"fullUrl":"Encounter/457dd948-ab35-4c1b-8510-22b69ab5fa52","resource":{"resourceType":"Encounter","id":"457dd948-ab35-4c1b-8510-22b69ab5fa52","meta":{"profile":["http://hl7.org/fhir/us/qicore/StructureDefinition/qicore-encounter"]},"status":"finished","class":{"system":"http://terminology.hl7.org/CodeSystem/v3-ActCode","code":"IMP","display":"inpatient encounter"},"type":[{"coding":[{"system":"http://snomed.info/sct","code":"8715000"}]}],"subject":{"reference":"Patient/1242acd7-1a2b-4588-8d23-ea4f3dc1e0d5"},"period":{"start":"2026-12-04T08:00:00.000+00:00","end":"2026-12-30T08:15:00.000+00:00"},"length":{"value":26.0,"unit":"days"},"location":[{"location":{"reference":"Location/6199cbe2-52fe-43de-a8dd-415cc967b8ab"},"period":{"start":"2026-12-06T08:00:00.000+00:00","end":"2026-12-08T08:15:00.000+00:00"}}]},"request":{"method":"PUT","url":"Encounter/457dd948-ab35-4c1b-8510-22b69ab5fa52"}},{"fullUrl":"Patient/1242acd7-1a2b-4588-8d23-ea4f3dc1e0d5","resource":{"resourceType":"Patient","id":"1242acd7-1a2b-4588-8d23-ea4f3dc1e0d5","meta":{"profile":["http://hl7.org/fhir/us/qicore/StructureDefinition/qicore-patient"]},"text":{"status":"generated","div":"<div xmlns=\"http://www.w3.org/1999/xhtml\"><div class=\"hapiHeaderText\">UrologicalSurgeryNotPrin <b>DENEXFAIL </b></div><table class=\"hapiPropertyTable\"><tbody><tr><td>Identifier</td><td>134283073c75bbb3c7689c5516f3a169</td></tr><tr><td>Date of birth</td><td><span>03 March 1974</span></td></tr></tbody></table></div>"},"extension":[{"url":"http://hl7.org/fhir/us/core/StructureDefinition/us-core-race","extension":[{"url":"ombCategory","valueCoding":{"system":"urn:oid:2.16.840.1.113883.6.238","code":"1002-5","display":"American Indian or Alaska Native","userSelected":true}},{"url":"text","valueString":"American Indian or Alaska Native"}]},{"url":"http://hl7.org/fhir/us/core/StructureDefinition/us-core-ethnicity","extension":[{"url":"ombCategory","valueCoding":{"system":"urn:oid:2.16.840.1.113883.6.238","code":"2135-2","display":"Hispanic or Latino","userSelected":true}},{"url":"text","valueString":"Hispanic or Latino"}]}],"identifier":[{"type":{"coding":[{"system":"http://terminology.hl7.org/CodeSystem/v2-0203","code":"MR"}]},"system":"https://bonnie-fhir.healthit.gov/","value":"612e6e9602c62a011f2eef45"}],"active":true,"name":[{"use":"usual","family":"DENEXFail","given":["UrologicalSurgeryNotPrin"]}],"gender":"female","birthDate":"1975-03-03"},"request":{"method":"PUT","url":"Patient/1242acd7-1a2b-4588-8d23-ea4f3dc1e0d5"}},{"fullUrl":"MeasureReport/fb131f10-c651-49dc-bf60-935096396eff","resource":{"resourceType":"MeasureReport","id":"fb131f10-c651-49dc-bf60-935096396eff","meta":{"profile":["http://hl7.org/fhir/us/cqfmeasures/StructureDefinition/test-case-cqfm"]},"contained":[{"resourceType":"Parameters","id":"b39c4003-1131-46e0-9218-64798fe953e8-parameters","parameter":[{"name":"subject","valueString":"1242acd7-1a2b-4588-8d23-ea4f3dc1e0d5"}]}],"extension":[{"url":"http://hl7.org/fhir/StructureDefinition/cqf-inputParameters","valueReference":{"reference":"#b39c4003-1131-46e0-9218-64798fe953e8-parameters"}},{"url":"http://hl7.org/fhir/us/cqfmeasures/StructureDefinition/cqfm-testCaseDescription","valueMarkdown":"Px urological surgery not principal\n"}],"modifierExtension":[{"url":"http://hl7.org/fhir/us/cqfmeasures/StructureDefinition/cqfm-isTestCase","valueBoolean":true}],"status":"complete","type":"individual","measure":"https://madie.cms.gov/Measure/CMS190VTEProphylaxisICUFHIR","period":{"start":"2026-01-01","end":"2026-12-31"},"group":[{"id":"Group_1","population":[{"id":"InitialPopulation_1","code":{"coding":[{"system":"http://terminology.hl7.org/CodeSystem/measure-population","code":"initial-population","display":"Initial Population"}]},"count":1},{"id":"Denominator_1","code":{"coding":[{"system":"http://terminology.hl7.org/CodeSystem/measure-population","code":"denominator","display":"Denominator"}]},"count":1},{"id":"DenominatorExclusion_1","code":{"coding":[{"system":"http://terminology.hl7.org/CodeSystem/measure-population","code":"denominator-exclusion","display":"Denominator Exclusion"}]},"count":0},{"id":"Numerator_1","code":{"coding":[{"system":"http://terminology.hl7.org/CodeSystem/measure-population","code":"numerator","display":"Numerator"}]},"count":0},{"id":"DenominatorException_1","code":{"coding":[{"system":"http://terminology.hl7.org/CodeSystem/measure-population","code":"denominator-exception","display":"Denominator Exception"}]},"count":0}],"measureScore":{"value":0.0}}],"evaluatedResource":[{"reference":"Patient/1242acd7-1a2b-4588-8d23-ea4f3dc1e0d5"},{"reference":"Encounter/457dd948-ab35-4c1b-8510-22b69ab5fa52"},{"reference":"Coverage/30d1ce31-9a94-4935-bbb4-5ad94c599f2e"},{"reference":"Procedure/85cdcc43-36db-44d5-a202-5ab66c9f5878"},{"reference":"Location/6199cbe2-52fe-43de-a8dd-415cc967b8ab"},{"reference":"Organization/758a85d5-5a54-4919-957b-cfbb5e3593fd"},{"reference":"Practitioner/ea2732c8-f319-47bf-b689-1a758f1078df"}]},"request":{"method":"PUT","url":"MeasureReport/fb131f10-c651-49dc-bf60-935096396eff"}},{"fullUrl":"Organization/758a85d5-5a54-4919-957b-cfbb5e3593fd","resource":{"resourceType":"Organization","id":"758a85d5-5a54-4919-957b-cfbb5e3593fd","meta":{"profile":["http://hl7.org/fhir/us/qicore/StructureDefinition/qicore-organization"]},"identifier":[{"use":"temp","system":"urn:oid:2.16.840.1.113883.4.4","value":"21-3259825"}],"active":true,"type":[{"coding":[{"system":"http://terminology.hl7.org/CodeSystem/organization-type","code":"pay","display":"Payer"}]}],"name":"Blue Cross Blue Shield of Texas","telecom":[{"system":"phone","value":"(+1) 972-766-6900"}],"address":[{"use":"billing","type":"postal","line":["P.O. Box 660044"],"city":"Dallas","state":"TX","postalCode":"75266-0044","country":"USA"}]},"request":{"method":"PUT","url":"Organization/758a85d5-5a54-4919-957b-cfbb5e3593fd"}}]}