{
    "entry": [
        {
            "request": {
                "method": "PUT",
                "url": "Patient/dda022c0-3234-4ad7-ad6e-d696b0b57440"
            },
            "resource": {
                "identifier": [{
                    "system": "https://bonnie-fhir.healthit.gov/",
                    "type": {"coding": [{
                        "system": "http://terminology.hl7.org/CodeSystem/v2-0203",
                        "code": "MR"
                    }]},
                    "value": "62d94c00f0347d1abcae6bff"
                }],
                "extension": [
                    {
                        "extension": [
                            {
                                "valueCoding": {
                                    "system": "urn:oid:2.16.840.1.113883.6.238",
                                    "code": "2054-5",
                                    "userSelected": true,
                                    "display": "Black or African American"
                                },
                                "url": "ombCategory"
                            },
                            {
                                "valueString": "Black or African American",
                                "url": "text"
                            }
                        ],
                        "url": "http://hl7.org/fhir/us/core/StructureDefinition/us-core-race"
                    },
                    {
                        "extension": [
                            {
                                "valueCoding": {
                                    "system": "urn:oid:2.16.840.1.113883.6.238",
                                    "code": "2135-2",
                                    "userSelected": true,
                                    "display": "Hispanic or Latino"
                                },
                                "url": "ombCategory"
                            },
                            {
                                "valueString": "Hispanic or Latino",
                                "url": "text"
                            }
                        ],
                        "url": "http://hl7.org/fhir/us/core/StructureDefinition/us-core-ethnicity"
                    }
                ],
                "gender": "female",
                "meta": {"profile": ["http://hl7.org/fhir/us/qicore/StructureDefinition/qicore-patient"]},
                "name": [{
                    "given": ["FirstHTN130DeclinedReferred"],
                    "family": "DENEXCEPPass"
                }],
                "id": "dda022c0-3234-4ad7-ad6e-d696b0b57440",
                "birthDate": "1962-02-28",
                "resourceType": "Patient"
            },
            "fullUrl": "https://madie.cms.gov/Patient/dda022c0-3234-4ad7-ad6e-d696b0b57440"
        },
        {
            "request": {
                "method": "PUT",
                "url": "Encounter/1a94e071-2695-40f9-aaa1-3a829ee59c1a"
            },
            "resource": {
                "period": {
                    "start": "2026-01-01T08:00:00.000+00:00",
                    "end": "2026-01-01T08:30:00.000+00:00"
                },
                "meta": {"profile": ["http://hl7.org/fhir/us/qicore/StructureDefinition/qicore-encounter"]},
                "subject": {"reference": "Patient/dda022c0-3234-4ad7-ad6e-d696b0b57440"},
                "id": "1a94e071-2695-40f9-aaa1-3a829ee59c1a",
                "type": [{"coding": [{
                    "system": "http://snomed.info/sct",
                    "code": "103705002",
                    "userSelected": true,
                    "display": "Patient status observation (procedure)",
                    "version": "2022-03"
                }]}],
                "class": {
                    "system": "http://terminology.hl7.org/CodeSystem/v3-ActCode",
                    "code": "AMB",
                    "display": "ambulatory"
                },
                "resourceType": "Encounter",
                "status": "finished"
            },
            "fullUrl": "https://madie.cms.gov/Encounter/1a94e071-2695-40f9-aaa1-3a829ee59c1a"
        },
        {
            "request": {
                "method": "PUT",
                "url": "Observation/1eb8875c-2e65-4569-a6d9-bdfe003bd72b"
            },
            "resource": {
                "component": [
                    {
                        "code": {"coding": [{
                            "system": "http://loinc.org",
                            "code": "8480-6",
                            "display": "Systolic blood pressure"
                        }]},
                        "valueQuantity": {
                            "unit": "mmHg",
                            "system": "http://unitsofmeasure.org",
                            "code": "mm[Hg]",
                            "value": 130
                        }
                    },
                    {
                        "code": {"coding": [{
                            "system": "http://loinc.org",
                            "code": "8462-4",
                            "display": "Diastolic blood pressure"
                        }]},
                        "valueQuantity": {
                            "unit": "mmHg",
                            "system": "http://unitsofmeasure.org",
                            "code": "mm[Hg]",
                            "value": 80
                        }
                    }
                ],
                "code": {"coding": [{
                    "system": "http://loinc.org",
                    "code": "85354-9",
                    "display": "Blood pressure panel"
                }]},
                "effectiveDateTime": "2026-01-01T08:05:00.000+00:00",
                "meta": {"profile": ["http://hl7.org/fhir/us/core/StructureDefinition/us-core-blood-pressure"]},
                "subject": {"reference": "Patient/dda022c0-3234-4ad7-ad6e-d696b0b57440"},
                "id": "1eb8875c-2e65-4569-a6d9-bdfe003bd72b",
                "category": [{
                    "coding": [{
                        "system": "http://terminology.hl7.org/CodeSystem/observation-category",
                        "code": "vital-signs",
                        "display": "Vital Signs"
                    }],
                    "text": "Vital Signs"
                }],
                "resourceType": "Observation",
                "status": "final"
            },
            "fullUrl": "https://madie.cms.gov/Observation/1eb8875c-2e65-4569-a6d9-bdfe003bd72b"
        },
        {
            "request": {
                "method": "PUT",
                "url": "ServiceRequest/cc01e6a2-2af2-4ea0-b4a6-8a19c59ac5c4"
            },
            "resource": {
                "extension": [{
                    "valueCodeableConcept": {"coding": [{
                        "system": "http://snomed.info/sct",
                        "code": "183945002",
                        "userSelected": true,
                        "display": "Procedure declined for religious reason (situation)",
                        "version": "2022-03"
                    }]},
                    "url": "http://hl7.org/fhir/us/qicore/StructureDefinition/qicore-doNotPerformReason"
                }],
                "code": {"coding": [{
                    "system": "http://snomed.info/sct",
                    "code": "134403003",
                    "userSelected": true,
                    "display": "Urgent referral (procedure)",
                    "version": "2022-03"
                }]},
                "authoredOn": "2026-01-01T08:25:00.000+00:00",
                "meta": {"profile": ["http://hl7.org/fhir/us/qicore/StructureDefinition/qicore-servicenotrequested"]},
                "subject": {"reference": "Patient/dda022c0-3234-4ad7-ad6e-d696b0b57440"},
                "id": "cc01e6a2-2af2-4ea0-b4a6-8a19c59ac5c4",
                "doNotPerform": true,
                "intent": "order",
                "resourceType": "ServiceRequest",
                "status": "completed"
            },
            "fullUrl": "https://madie.cms.gov/ServiceRequest/cc01e6a2-2af2-4ea0-b4a6-8a19c59ac5c4"
        },
        {
            "request": {
                "method": "PUT",
                "url": "Coverage/b70f8ea7-45dc-461c-9a06-a197a0334598"
            },
            "resource": {
                "payor": [{"reference": "Organization/da9e06e2-61fa-4141-bea6-977450cc98e1"}],
                "beneficiary": {"reference": "Patient/dda022c0-3234-4ad7-ad6e-d696b0b57440"},
                "meta": {"profile": ["http://hl7.org/fhir/us/qicore/StructureDefinition/qicore-coverage"]},
                "id": "b70f8ea7-45dc-461c-9a06-a197a0334598",
                "resourceType": "Coverage",
                "status": "active"
            },
            "fullUrl": "https://madie.cms.gov/Coverage/b70f8ea7-45dc-461c-9a06-a197a0334598"
        },
        {
            "request": {
                "method": "PUT",
                "url": "Organization/da9e06e2-61fa-4141-bea6-977450cc98e1"
            },
            "resource": {
                "identifier": [{
                    "system": "urn:oid:2.16.840.1.113883.4.4",
                    "use": "temp",
                    "value": "21-3259825"
                }],
                "address": [{
                    "country": "USA",
                    "city": "Dallas",
                    "use": "billing",
                    "line": ["P.O. Box 660044"],
                    "postalCode": "75266-0044",
                    "state": "TX",
                    "type": "postal"
                }],
                "meta": {"profile": ["http://hl7.org/fhir/us/qicore/StructureDefinition/qicore-organization"]},
                "name": "Blue Cross Blue Shield of Texas",
                "active": true,
                "telecom": [{
                    "system": "phone",
                    "value": "(+1) 972-766-6900"
                }],
                "id": "da9e06e2-61fa-4141-bea6-977450cc98e1",
                "type": [{"coding": [{
                    "system": "http://terminology.hl7.org/CodeSystem/organization-type",
                    "code": "pay",
                    "display": "Payer"
                }]}],
                "resourceType": "Organization"
            },
            "fullUrl": "https://madie.cms.gov/Organization/da9e06e2-61fa-4141-bea6-977450cc98e1"
        },
        {
            "request": {
                "method": "PUT",
                "url": "Practitioner/3fdd85be-26a2-45e0-a7ab-e634c35b0630"
            },
            "resource": {
                "identifier": [{
                    "system": "http://hl7.org/fhir/sid/us-npi",
                    "value": "123456"
                }],
                "meta": {"profile": ["http://hl7.org/fhir/us/qicore/StructureDefinition/qicore-practitioner"]},
                "name": [{
                    "prefix": ["Dr"],
                    "family": "Evil"
                }],
                "id": "3fdd85be-26a2-45e0-a7ab-e634c35b0630",
                "resourceType": "Practitioner"
            },
            "fullUrl": "https://madie.cms.gov/Practitioner/3fdd85be-26a2-45e0-a7ab-e634c35b0630"
        },
        {
            "request": {
                "method": "PUT",
                "url": "MeasureReport/5d9dd46f-230e-4002-a56b-007cc1ac038c"
            },
            "resource": {
                "contained": [{
                    "parameter": [{
                        "valueString": "dda022c0-3234-4ad7-ad6e-d696b0b57440",
                        "name": "subject"
                    }],
                    "id": "96425aa6-3866-4705-a5ad-611b9c86dccf-parameters",
                    "resourceType": "Parameters"
                }],
                "extension": [
                    {
                        "valueReference": {"reference": "#96425aa6-3866-4705-a5ad-611b9c86dccf-parameters"},
                        "url": "http://hl7.org/fhir/StructureDefinition/cqf-inputParameters"
                    },
                    {
                        "valueMarkdown": "Enc.01/01 0800-0830 during MP, age 64, BP 130/80, urgent referral declined for religious reasons.",
                        "url": "http://hl7.org/fhir/us/cqfmeasures/StructureDefinition/cqfm-testCaseDescription"
                    }
                ],
                "period": {
                    "start": "2026-01-01",
                    "end": "2026-12-31"
                },
                "measure": "https://madie.cms.gov/Measure/CMS22FHIRPCSBPScreeningFollowUp",
                "meta": {"profile": ["http://hl7.org/fhir/us/cqfmeasures/StructureDefinition/test-case-cqfm"]},
                "modifierExtension": [{
                    "valueBoolean": true,
                    "url": "http://hl7.org/fhir/us/cqfmeasures/StructureDefinition/cqfm-isTestCase"
                }],
                "id": "5d9dd46f-230e-4002-a56b-007cc1ac038c",
                "evaluatedResource": [
                    {"reference": "Patient/dda022c0-3234-4ad7-ad6e-d696b0b57440"},
                    {"reference": "Encounter/1a94e071-2695-40f9-aaa1-3a829ee59c1a"},
                    {"reference": "Observation/1eb8875c-2e65-4569-a6d9-bdfe003bd72b"},
                    {"reference": "ServiceRequest/cc01e6a2-2af2-4ea0-b4a6-8a19c59ac5c4"},
                    {"reference": "Coverage/b70f8ea7-45dc-461c-9a06-a197a0334598"},
                    {"reference": "Organization/da9e06e2-61fa-4141-bea6-977450cc98e1"},
                    {"reference": "Practitioner/3fdd85be-26a2-45e0-a7ab-e634c35b0630"}
                ],
                "type": "individual",
                "resourceType": "MeasureReport",
                "status": "complete",
                "group": [{
                    "id": "Group_1",
                    "measureScore": {"value": 0},
                    "population": [
                        {
                            "code": {"coding": [{
                                "system": "http://terminology.hl7.org/CodeSystem/measure-population",
                                "code": "initial-population",
                                "display": "Initial Population"
                            }]},
                            "count": 1,
                            "id": "InitialPopulation_1"
                        },
                        {
                            "code": {"coding": [{
                                "system": "http://terminology.hl7.org/CodeSystem/measure-population",
                                "code": "denominator",
                                "display": "Denominator"
                            }]},
                            "count": 1,
                            "id": "Denominator_1"
                        },
                        {
                            "code": {"coding": [{
                                "system": "http://terminology.hl7.org/CodeSystem/measure-population",
                                "code": "denominator-exclusion",
                                "display": "Denominator Exclusion"
                            }]},
                            "count": 0,
                            "id": "DenominatorExclusion_1"
                        },
                        {
                            "code": {"coding": [{
                                "system": "http://terminology.hl7.org/CodeSystem/measure-population",
                                "code": "numerator",
                                "display": "Numerator"
                            }]},
                            "count": 0,
                            "id": "Numerator_1"
                        },
                        {
                            "code": {"coding": [{
                                "system": "http://terminology.hl7.org/CodeSystem/measure-population",
                                "code": "denominator-exception",
                                "display": "Denominator Exception"
                            }]},
                            "count": 1,
                            "id": "DenominatorException_1"
                        }
                    ]
                }]
            },
            "fullUrl": "https://madie.cms.gov/MeasureReport/5d9dd46f-230e-4002-a56b-007cc1ac038c"
        }
    ],
    "id": "62d94c00f0347d1abcae6bff",
    "type": "transaction",
    "resourceType": "Bundle"
}