{
  "resourceType": "Bundle",
  "id": "DENEXPass-ChronicKidneyDiseaseStage5DuringMP",
  "type": "transaction",
  "entry": [ {
    "fullUrl": "https://madie.cms.gov/Patient/0b9cb569-149a-4b47-a535-66b59a77bceb",
    "resource": {
      "resourceType": "Patient",
      "id": "0b9cb569-149a-4b47-a535-66b59a77bceb",
      "meta": {
        "profile": [ "http://hl7.org/fhir/us/qicore/StructureDefinition/qicore-patient" ]
      },
      "extension": [ {
        "url": "http://hl7.org/fhir/us/core/StructureDefinition/us-core-race",
        "extension": [ {
          "url": "ombCategory",
          "valueCoding": {
            "system": "urn:oid:2.16.840.1.113883.6.238",
            "code": "2028-9",
            "display": "Asian"
          }
        }, {
          "url": "text",
          "valueString": "Asian"
        } ]
      }, {
        "url": "http://hl7.org/fhir/us/core/StructureDefinition/us-core-ethnicity",
        "extension": [ {
          "url": "ombCategory",
          "valueCoding": {
            "system": "urn:oid:2.16.840.1.113883.6.238",
            "code": "2135-2",
            "display": "Hispanic or Latino"
          }
        }, {
          "url": "text",
          "valueString": "Hispanic or Latino"
        } ]
      } ],
      "identifier": [ {
        "system": "http://hospital.smarthealthit.org",
        "value": "999999995"
      } ],
      "name": [ {
        "family": "DENEXPass",
        "given": [ "ChronicKidneyDiseaseStage5DuringMP" ]
      } ],
      "gender": "female",
      "birthDate": "2007-12-31"
    },
    "request": {
      "method": "PUT",
      "url": "Patient/0b9cb569-149a-4b47-a535-66b59a77bceb"
    }
  }, {
    "fullUrl": "https://madie.cms.gov/Encounter/332ae235-07e1-4278-9167-eff331e7dbbc",
    "resource": {
      "resourceType": "Encounter",
      "id": "332ae235-07e1-4278-9167-eff331e7dbbc",
      "meta": {
        "profile": [ "http://hl7.org/fhir/us/qicore/StructureDefinition/qicore-encounter" ]
      },
      "status": "finished",
      "class": {
        "system": "http://terminology.hl7.org/CodeSystem/v3-ActCode",
        "code": "AMB",
        "display": "ambulatory"
      },
      "type": [ {
        "coding": [ {
          "system": "http://snomed.info/sct",
          "code": "3391000175108",
          "display": "Office visit for pediatric care and assessment (procedure)"
        } ]
      } ],
      "subject": {
        "reference": "Patient/0b9cb569-149a-4b47-a535-66b59a77bceb"
      },
      "period": {
        "start": "2026-01-01T00:00:00.000+00:00",
        "end": "2026-01-01T01:00:00.000+00:00"
      }
    },
    "request": {
      "method": "PUT",
      "url": "Encounter/332ae235-07e1-4278-9167-eff331e7dbbc"
    }
  }, {
    "fullUrl": "https://madie.cms.gov/Condition/ddd1b28c-636d-472d-ac77-3ca6cb9dc0fb",
    "resource": {
      "resourceType": "Condition",
      "id": "ddd1b28c-636d-472d-ac77-3ca6cb9dc0fb",
      "meta": {
        "profile": [ "http://hl7.org/fhir/us/qicore/StructureDefinition/qicore-condition-encounter-diagnosis" ]
      },
      "clinicalStatus": {
        "coding": [ {
          "system": "http://terminology.hl7.org/CodeSystem/condition-clinical",
          "code": "active"
        } ]
      },
      "category": [ {
        "coding": [ {
          "system": "http://terminology.hl7.org/CodeSystem/condition-category",
          "code": "encounter-diagnosis",
          "display": "Encounter Diagnosis"
        } ]
      } ],
      "code": {
        "coding": [ {
          "system": "http://snomed.info/sct",
          "code": "371125006",
          "display": "Labile essential hypertension (disorder)"
        } ]
      },
      "subject": {
        "reference": "Patient/0b9cb569-149a-4b47-a535-66b59a77bceb"
      },
      "onsetDateTime": "2026-06-30T23:59:59.000+00:00"
    },
    "request": {
      "method": "PUT",
      "url": "Condition/ddd1b28c-636d-472d-ac77-3ca6cb9dc0fb"
    }
  }, {
    "fullUrl": "https://madie.cms.gov/Condition/147a95d3-151c-45f9-881c-f3549e20c68e",
    "resource": {
      "resourceType": "Condition",
      "id": "147a95d3-151c-45f9-881c-f3549e20c68e",
      "meta": {
        "profile": [ "http://hl7.org/fhir/us/qicore/StructureDefinition/qicore-condition-problems-health-concerns" ]
      },
      "clinicalStatus": {
        "coding": [ {
          "system": "http://terminology.hl7.org/CodeSystem/condition-clinical",
          "code": "active"
        } ]
      },
      "category": [ {
        "coding": [ {
          "system": "http://terminology.hl7.org/CodeSystem/condition-category",
          "code": "problem-list-item",
          "display": "Problem List Item"
        } ]
      } ],
      "code": {
        "coding": [ {
          "system": "http://hl7.org/fhir/sid/icd-10-cm",
          "code": "N18.5",
          "display": "Chronic kidney disease, stage 5"
        } ]
      },
      "subject": {
        "reference": "Patient/0b9cb569-149a-4b47-a535-66b59a77bceb"
      },
      "onsetDateTime": "2026-06-30T23:59:59.000+00:00"
    },
    "request": {
      "method": "PUT",
      "url": "Condition/147a95d3-151c-45f9-881c-f3549e20c68e"
    }
  }, {
    "fullUrl": "https://madie.cms.gov/MeasureReport/1f78cc7b-56f4-45be-b999-ed60b7ce6258",
    "resource": {
      "resourceType": "MeasureReport",
      "id": "1f78cc7b-56f4-45be-b999-ed60b7ce6258",
      "meta": {
        "profile": [ "http://hl7.org/fhir/us/cqfmeasures/StructureDefinition/test-case-cqfm" ]
      },
      "contained": [ {
        "resourceType": "Parameters",
        "id": "2299bd30-daae-49b0-9e5c-319fd5e0c6c7-parameters",
        "parameter": [ {
          "name": "subject",
          "valueString": "0b9cb569-149a-4b47-a535-66b59a77bceb"
        } ]
      } ],
      "extension": [ {
        "url": "http://hl7.org/fhir/StructureDefinition/cqf-inputParameters",
        "valueReference": {
          "reference": "#2299bd30-daae-49b0-9e5c-319fd5e0c6c7-parameters"
        }
      }, {
        "url": "http://hl7.org/fhir/us/cqfmeasures/StructureDefinition/cqfm-testCaseDescription",
        "valueMarkdown": "Chronic kidney disease stage 5 during MP - ConditionProblemsHealthConcerns"
      } ],
      "modifierExtension": [ {
        "url": "http://hl7.org/fhir/us/cqfmeasures/StructureDefinition/cqfm-isTestCase",
        "valueBoolean": true
      } ],
      "status": "complete",
      "type": "individual",
      "measure": "https://madie.cms.gov/Measure/CMS165FHIRControllingHighBloodPressure",
      "period": {
        "start": "2026-01-01",
        "end": "2026-12-31"
      },
      "group": [ {
        "id": "Group_1",
        "population": [ {
          "id": "InitialPopulation_1",
          "code": {
            "coding": [ {
              "system": "http://terminology.hl7.org/CodeSystem/measure-population",
              "code": "initial-population",
              "display": "Initial Population"
            } ]
          },
          "count": 1
        }, {
          "id": "Denominator_1",
          "code": {
            "coding": [ {
              "system": "http://terminology.hl7.org/CodeSystem/measure-population",
              "code": "denominator",
              "display": "Denominator"
            } ]
          },
          "count": 1
        }, {
          "id": "DenominatorExclusion_1",
          "code": {
            "coding": [ {
              "system": "http://terminology.hl7.org/CodeSystem/measure-population",
              "code": "denominator-exclusion",
              "display": "Denominator Exclusion"
            } ]
          },
          "count": 1
        }, {
          "id": "Numerator_1",
          "code": {
            "coding": [ {
              "system": "http://terminology.hl7.org/CodeSystem/measure-population",
              "code": "numerator",
              "display": "Numerator"
            } ]
          },
          "count": 0
        } ],
        "measureScore": {
          "value": 1.0
        }
      } ],
      "evaluatedResource": [ {
        "reference": "Patient/0b9cb569-149a-4b47-a535-66b59a77bceb"
      }, {
        "reference": "Encounter/332ae235-07e1-4278-9167-eff331e7dbbc"
      }, {
        "reference": "Condition/ddd1b28c-636d-472d-ac77-3ca6cb9dc0fb"
      }, {
        "reference": "Condition/147a95d3-151c-45f9-881c-f3549e20c68e"
      } ]
    },
    "request": {
      "method": "PUT",
      "url": "MeasureReport/1f78cc7b-56f4-45be-b999-ed60b7ce6258"
    }
  } ]
}