{"resourceType":"Bundle","id":"tests-0278fdf0-f067-46e8-aeb1-fb96dff3c947-bundle","type":"transaction","entry":[{"resource":{"resourceType":"Bundle","id":"62d061a9f924c8924458d151","type":"transaction","entry":[{"fullUrl":"https://madie.cms.gov/Patient/0278fdf0-f067-46e8-aeb1-fb96dff3c947","resource":{"resourceType":"Patient","id":"0278fdf0-f067-46e8-aeb1-fb96dff3c947","meta":{"profile":["http://hl7.org/fhir/us/qicore/StructureDefinition/qicore-patient"]},"extension":[{"url":"http://hl7.org/fhir/us/core/StructureDefinition/us-core-race","extension":[{"url":"ombCategory","valueCoding":{"system":"urn:oid:2.16.840.1.113883.6.238","code":"2054-5","display":"Black or African American","userSelected":true}},{"url":"text","valueString":"Black or African American"}]},{"url":"http://hl7.org/fhir/us/core/StructureDefinition/us-core-ethnicity","extension":[{"url":"ombCategory","valueCoding":{"system":"urn:oid:2.16.840.1.113883.6.238","code":"2135-2","display":"Hispanic or Latino","userSelected":true}},{"url":"text","valueString":"Hispanic or Latino"}]}],"identifier":[{"type":{"coding":[{"system":"http://terminology.hl7.org/CodeSystem/v2-0203","code":"MR"}]},"system":"https://bonnie-fhir.healthit.gov/","value":"62d061a9f924c8924458d151"}],"name":[{"family":"DENEXCEPPass","given":["HTN130DeclinedNonPharm"]}],"gender":"male","birthDate":"2005-01-31"},"request":{"method":"POST","url":"Patient/0278fdf0-f067-46e8-aeb1-fb96dff3c947"}},{"fullUrl":"https://madie.cms.gov/Encounter/encounter-to-screen-for-blood-pressure-d1ae","resource":{"resourceType":"Encounter","id":"encounter-to-screen-for-blood-pressure-d1ae","meta":{"profile":["http://hl7.org/fhir/us/qicore/StructureDefinition/qicore-encounter"]},"status":"finished","class":{"system":"http://terminology.hl7.org/CodeSystem/v3-ActCode","code":"AMB","display":"ambulatory"},"type":[{"coding":[{"system":"http://snomed.info/sct","version":"2022-03","code":"185465003","display":"Weekend visit (procedure)","userSelected":true}]}],"subject":{"reference":"Patient/0278fdf0-f067-46e8-aeb1-fb96dff3c947"},"period":{"start":"2025-01-01T08:00:00.000+00:00","end":"2025-01-01T08:30:00.000+00:00"}},"request":{"method":"POST","url":"Encounter/encounter-to-screen-for-blood-pressure-d1ae"}},{"fullUrl":"https://madie.cms.gov/Observation/blood-pressure-1","resource":{"resourceType":"Observation","id":"blood-pressure-1","meta":{"profile":["http://hl7.org/fhir/us/core/StructureDefinition/us-core-blood-pressure"]},"status":"final","category":[{"coding":[{"system":"http://terminology.hl7.org/CodeSystem/observation-category","code":"vital-signs","display":"Vital Signs"}],"text":"Vital Signs"}],"code":{"coding":[{"system":"http://loinc.org","code":"85354-9","display":"Blood pressure panel"}]},"subject":{"reference":"Patient/0278fdf0-f067-46e8-aeb1-fb96dff3c947"},"effectiveDateTime":"2025-01-01T08:29:00.000Z","component":[{"code":{"coding":[{"system":"http://loinc.org","code":"8480-6","display":"Systolic blood pressure"}]},"valueQuantity":{"value":130,"unit":"mmHg","system":"http://unitsofmeasure.org","code":"mm[Hg]"}},{"code":{"coding":[{"system":"http://loinc.org","code":"8462-4","display":"Diastolic blood pressure"}]},"valueQuantity":{"value":79,"unit":"mmHg","system":"http://unitsofmeasure.org","code":"mm[Hg]"}}]},"request":{"method":"POST","url":"Observation/blood-pressure-1"}},{"fullUrl":"https://madie.cms.gov/ServiceRequest/recommendation-to-increase-physical-activity-41cf","resource":{"resourceType":"ServiceRequest","id":"recommendation-to-increase-physical-activity-41cf","meta":{"profile":["http://hl7.org/fhir/us/qicore/StructureDefinition/qicore-servicenotrequested"]},"extension":[{"url":"http://hl7.org/fhir/us/qicore/StructureDefinition/qicore-doNotPerformReason","valueCodeableConcept":{"coding":[{"system":"http://snomed.info/sct","code":"407563006","display":"Treatment not tolerated (situation)","userSelected":true}]}}],"status":"completed","intent":"order","doNotPerform":true,"code":{"coding":[{"system":"http://snomed.info/sct","version":"2022-03","code":"386292004","display":"Exercise promotion: stretching (procedure)","userSelected":true}]},"subject":{"reference":"Patient/0278fdf0-f067-46e8-aeb1-fb96dff3c947"},"authoredOn":"2025-01-01T08:01:00.000+00:00"},"request":{"method":"POST","url":"ServiceRequest/recommendation-to-increase-physical-activity-41cf"}},{"fullUrl":"https://madie.cms.gov/Coverage/1","resource":{"resourceType":"Coverage","id":"1","meta":{"profile":["http://hl7.org/fhir/us/qicore/StructureDefinition/qicore-coverage"]},"status":"active","beneficiary":{"reference":"Patient/0278fdf0-f067-46e8-aeb1-fb96dff3c947"},"payor":[{"reference":"Organization/123456"}]},"request":{"method":"POST","url":"Coverage/1"}},{"fullUrl":"https://madie.cms.gov/Organization/123456","resource":{"resourceType":"Organization","id":"123456","meta":{"profile":["http://hl7.org/fhir/us/qicore/StructureDefinition/qicore-organization"]},"identifier":[{"use":"temp","system":"urn:oid:2.16.840.1.113883.4.4","value":"21-3259825"}],"active":true,"type":[{"coding":[{"system":"http://terminology.hl7.org/CodeSystem/organization-type","code":"pay","display":"Payer"}]}],"name":"Blue Cross Blue Shield of Texas","telecom":[{"system":"phone","value":"(+1) 972-766-6900"}],"address":[{"use":"billing","type":"postal","line":["P.O. Box 660044"],"city":"Dallas","state":"TX","postalCode":"75266-0044","country":"USA"}]},"request":{"method":"POST","url":"Organization/123456"}},{"fullUrl":"https://madie.cms.gov/Practitioner/practitioner-123456","resource":{"resourceType":"Practitioner","id":"practitioner-123456","meta":{"profile":["http://hl7.org/fhir/us/qicore/StructureDefinition/qicore-practitioner"]},"identifier":[{"system":"http://hl7.org/fhir/sid/us-npi","value":"123456"}],"name":[{"family":"Evil","prefix":["Dr"]}]},"request":{"method":"POST","url":"Practitioner/practitioner-123456"}},{"fullUrl":"https://madie.cms.gov/MeasureReport/e1f4c84f-6b3e-48ab-aada-43236e14a738","resource":{"resourceType":"MeasureReport","id":"e1f4c84f-6b3e-48ab-aada-43236e14a738","meta":{"profile":["http://hl7.org/fhir/us/cqfmeasures/StructureDefinition/test-case-cqfm"]},"contained":[{"resourceType":"Parameters","id":"4a29d0b9-eafe-4784-b32f-a7edba9d25f7-parameters","parameter":[{"name":"subject","valueString":"0278fdf0-f067-46e8-aeb1-fb96dff3c947"}]}],"extension":[{"url":"http://hl7.org/fhir/us/cqfmeasures/StructureDefinition/cqfm-inputParameters","valueReference":{"reference":"#4a29d0b9-eafe-4784-b32f-a7edba9d25f7-parameters"}},{"url":"http://hl7.org/fhir/us/cqfmeasures/StructureDefinition/cqfm-testCaseDescription","valueMarkdown":"Enc. 01/01 0800-0830 during MP, age 20, BP 130/79 at 0829, declined recommendation to exercise."}],"modifierExtension":[{"url":"http://hl7.org/fhir/us/cqfmeasures/StructureDefinition/cqfm-isTestCase","valueBoolean":true}],"status":"complete","type":"individual","measure":"https://madie.cms.gov/Measure/PCSBMIScreenAndFollowUpFHIR","period":{"start":"2025-01-01","end":"2025-12-31"},"group":[{"population":[{"code":{"coding":[{"system":"http://terminology.hl7.org/CodeSystem/measure-population","code":"initial-population","display":"Initial Population"}]},"count":1},{"code":{"coding":[{"system":"http://terminology.hl7.org/CodeSystem/measure-population","code":"denominator","display":"Denominator"}]},"count":1},{"code":{"coding":[{"system":"http://terminology.hl7.org/CodeSystem/measure-population","code":"denominator-exclusion","display":"Denominator Exclusion"}]},"count":0},{"code":{"coding":[{"system":"http://terminology.hl7.org/CodeSystem/measure-population","code":"numerator","display":"Numerator"}]},"count":0},{"code":{"coding":[{"system":"http://terminology.hl7.org/CodeSystem/measure-population","code":"denominator-exception","display":"Denominator Exception"}]},"count":1}]}],"evaluatedResource":[{"reference":"https://madie.cms.gov/Patient/0278fdf0-f067-46e8-aeb1-fb96dff3c947"},{"reference":"https://madie.cms.gov/Encounter/encounter-to-screen-for-blood-pressure-d1ae"},{"reference":"https://madie.cms.gov/Observation/blood-pressure-1"},{"reference":"https://madie.cms.gov/ServiceRequest/recommendation-to-increase-physical-activity-41cf"},{"reference":"https://madie.cms.gov/Coverage/1"},{"reference":"https://madie.cms.gov/Organization/123456"},{"reference":"https://madie.cms.gov/Practitioner/practitioner-123456"}]},"request":{"method":"POST","url":"MeasureReport/e1f4c84f-6b3e-48ab-aada-43236e14a738"}}]},"request":{"method":"PUT","url":"Bundle/62d061a9f924c8924458d151"}},{"resource":{"resourceType":"Coverage","id":"1","meta":{"profile":["http://hl7.org/fhir/us/qicore/StructureDefinition/qicore-coverage"]},"status":"active","beneficiary":{"reference":"Patient/0278fdf0-f067-46e8-aeb1-fb96dff3c947"},"payor":[{"reference":"Organization/123456"}]},"request":{"method":"PUT","url":"Coverage/1"}},{"resource":{"resourceType":"Encounter","id":"encounter-to-screen-for-blood-pressure-d1ae","meta":{"profile":["http://hl7.org/fhir/us/qicore/StructureDefinition/qicore-encounter"]},"status":"finished","class":{"system":"http://terminology.hl7.org/CodeSystem/v3-ActCode","code":"AMB","display":"ambulatory"},"type":[{"coding":[{"system":"http://snomed.info/sct","version":"2022-03","code":"185465003","display":"Weekend visit (procedure)","userSelected":true}]}],"subject":{"reference":"Patient/0278fdf0-f067-46e8-aeb1-fb96dff3c947"},"period":{"start":"2025-01-01T08:00:00.000+00:00","end":"2025-01-01T08:30:00.000+00:00"}},"request":{"method":"PUT","url":"Encounter/encounter-to-screen-for-blood-pressure-d1ae"}},{"resource":{"resourceType":"MeasureReport","id":"e1f4c84f-6b3e-48ab-aada-43236e14a738","meta":{"profile":["http://hl7.org/fhir/us/cqfmeasures/StructureDefinition/test-case-cqfm"]},"contained":[{"resourceType":"Parameters","id":"4a29d0b9-eafe-4784-b32f-a7edba9d25f7-parameters","parameter":[{"name":"subject","valueString":"0278fdf0-f067-46e8-aeb1-fb96dff3c947"}]}],"extension":[{"url":"http://hl7.org/fhir/us/cqfmeasures/StructureDefinition/cqfm-inputParameters","valueReference":{"reference":"#4a29d0b9-eafe-4784-b32f-a7edba9d25f7-parameters"}},{"url":"http://hl7.org/fhir/us/cqfmeasures/StructureDefinition/cqfm-testCaseDescription","valueMarkdown":"Enc. 01/01 0800-0830 during MP, age 20, BP 130/79 at 0829, declined recommendation to exercise."}],"modifierExtension":[{"url":"http://hl7.org/fhir/us/cqfmeasures/StructureDefinition/cqfm-isTestCase","valueBoolean":true}],"status":"complete","type":"individual","measure":"https://madie.cms.gov/Measure/PCSBMIScreenAndFollowUpFHIR","period":{"start":"2025-01-01","end":"2025-12-31"},"group":[{"population":[{"code":{"coding":[{"system":"http://terminology.hl7.org/CodeSystem/measure-population","code":"initial-population","display":"Initial Population"}]},"count":1},{"code":{"coding":[{"system":"http://terminology.hl7.org/CodeSystem/measure-population","code":"denominator","display":"Denominator"}]},"count":1},{"code":{"coding":[{"system":"http://terminology.hl7.org/CodeSystem/measure-population","code":"denominator-exclusion","display":"Denominator Exclusion"}]},"count":0},{"code":{"coding":[{"system":"http://terminology.hl7.org/CodeSystem/measure-population","code":"numerator","display":"Numerator"}]},"count":0},{"code":{"coding":[{"system":"http://terminology.hl7.org/CodeSystem/measure-population","code":"denominator-exception","display":"Denominator Exception"}]},"count":1}]}],"evaluatedResource":[{"reference":"https://madie.cms.gov/Patient/0278fdf0-f067-46e8-aeb1-fb96dff3c947"},{"reference":"https://madie.cms.gov/Encounter/encounter-to-screen-for-blood-pressure-d1ae"},{"reference":"https://madie.cms.gov/Observation/blood-pressure-1"},{"reference":"https://madie.cms.gov/ServiceRequest/recommendation-to-increase-physical-activity-41cf"},{"reference":"https://madie.cms.gov/Coverage/1"},{"reference":"https://madie.cms.gov/Organization/123456"},{"reference":"https://madie.cms.gov/Practitioner/practitioner-123456"}]},"request":{"method":"PUT","url":"MeasureReport/e1f4c84f-6b3e-48ab-aada-43236e14a738"}},{"resource":{"resourceType":"Observation","id":"blood-pressure-1","meta":{"profile":["http://hl7.org/fhir/us/core/StructureDefinition/us-core-blood-pressure"]},"status":"final","category":[{"coding":[{"system":"http://terminology.hl7.org/CodeSystem/observation-category","code":"vital-signs","display":"Vital Signs"}],"text":"Vital Signs"}],"code":{"coding":[{"system":"http://loinc.org","code":"85354-9","display":"Blood pressure panel"}]},"subject":{"reference":"Patient/0278fdf0-f067-46e8-aeb1-fb96dff3c947"},"effectiveDateTime":"2025-01-01T08:29:00.000Z","component":[{"code":{"coding":[{"system":"http://loinc.org","code":"8480-6","display":"Systolic blood pressure"}]},"valueQuantity":{"value":130,"unit":"mmHg","system":"http://unitsofmeasure.org","code":"mm[Hg]"}},{"code":{"coding":[{"system":"http://loinc.org","code":"8462-4","display":"Diastolic blood pressure"}]},"valueQuantity":{"value":79,"unit":"mmHg","system":"http://unitsofmeasure.org","code":"mm[Hg]"}}]},"request":{"method":"PUT","url":"Observation/blood-pressure-1"}},{"resource":{"resourceType":"Organization","id":"123456","meta":{"profile":["http://hl7.org/fhir/us/qicore/StructureDefinition/qicore-organization"]},"identifier":[{"use":"temp","system":"urn:oid:2.16.840.1.113883.4.4","value":"21-3259825"}],"active":true,"type":[{"coding":[{"system":"http://terminology.hl7.org/CodeSystem/organization-type","code":"pay","display":"Payer"}]}],"name":"Blue Cross Blue Shield of Texas","telecom":[{"system":"phone","value":"(+1) 972-766-6900"}],"address":[{"use":"billing","type":"postal","line":["P.O. Box 660044"],"city":"Dallas","state":"TX","postalCode":"75266-0044","country":"USA"}]},"request":{"method":"PUT","url":"Organization/123456"}},{"resource":{"resourceType":"Patient","id":"0278fdf0-f067-46e8-aeb1-fb96dff3c947","meta":{"profile":["http://hl7.org/fhir/us/qicore/StructureDefinition/qicore-patient"]},"extension":[{"url":"http://hl7.org/fhir/us/core/StructureDefinition/us-core-race","extension":[{"url":"ombCategory","valueCoding":{"system":"urn:oid:2.16.840.1.113883.6.238","code":"2054-5","display":"Black or African American","userSelected":true}},{"url":"text","valueString":"Black or African American"}]},{"url":"http://hl7.org/fhir/us/core/StructureDefinition/us-core-ethnicity","extension":[{"url":"ombCategory","valueCoding":{"system":"urn:oid:2.16.840.1.113883.6.238","code":"2135-2","display":"Hispanic or Latino","userSelected":true}},{"url":"text","valueString":"Hispanic or Latino"}]}],"identifier":[{"type":{"coding":[{"system":"http://terminology.hl7.org/CodeSystem/v2-0203","code":"MR"}]},"system":"https://bonnie-fhir.healthit.gov/","value":"62d061a9f924c8924458d151"}],"name":[{"family":"DENEXCEPPass","given":["HTN130DeclinedNonPharm"]}],"gender":"male","birthDate":"2005-01-31"},"request":{"method":"PUT","url":"Patient/0278fdf0-f067-46e8-aeb1-fb96dff3c947"}},{"resource":{"resourceType":"Practitioner","id":"practitioner-123456","meta":{"profile":["http://hl7.org/fhir/us/qicore/StructureDefinition/qicore-practitioner"]},"identifier":[{"system":"http://hl7.org/fhir/sid/us-npi","value":"123456"}],"name":[{"family":"Evil","prefix":["Dr"]}]},"request":{"method":"PUT","url":"Practitioner/practitioner-123456"}},{"resource":{"resourceType":"ServiceRequest","id":"recommendation-to-increase-physical-activity-41cf","meta":{"profile":["http://hl7.org/fhir/us/qicore/StructureDefinition/qicore-servicenotrequested"]},"extension":[{"url":"http://hl7.org/fhir/us/qicore/StructureDefinition/qicore-doNotPerformReason","valueCodeableConcept":{"coding":[{"system":"http://snomed.info/sct","code":"407563006","display":"Treatment not tolerated (situation)","userSelected":true}]}}],"status":"completed","intent":"order","doNotPerform":true,"code":{"coding":[{"system":"http://snomed.info/sct","version":"2022-03","code":"386292004","display":"Exercise promotion: stretching (procedure)","userSelected":true}]},"subject":{"reference":"Patient/0278fdf0-f067-46e8-aeb1-fb96dff3c947"},"authoredOn":"2025-01-01T08:01:00.000+00:00"},"request":{"method":"PUT","url":"ServiceRequest/recommendation-to-increase-physical-activity-41cf"}}]}