{"resourceType":"Bundle","id":"tests-27849d59-3cef-40bf-8338-a6ec7c0bcf81-bundle","type":"transaction","entry":[{"resource":{"resourceType":"Bundle","id":"62df25800056b6e23ec675a1","type":"transaction","entry":[{"fullUrl":"https://madie.cms.gov/Patient/27849d59-3cef-40bf-8338-a6ec7c0bcf81","resource":{"resourceType":"Patient","id":"27849d59-3cef-40bf-8338-a6ec7c0bcf81","meta":{"profile":["http://hl7.org/fhir/us/qicore/StructureDefinition/qicore-patient"]},"extension":[{"url":"http://hl7.org/fhir/us/core/StructureDefinition/us-core-race","extension":[{"url":"ombCategory","valueCoding":{"system":"urn:oid:2.16.840.1.113883.6.238","code":"2106-3","display":"White","userSelected":true}},{"url":"text","valueString":"White"}]},{"url":"http://hl7.org/fhir/us/core/StructureDefinition/us-core-ethnicity","extension":[{"url":"ombCategory","valueCoding":{"system":"urn:oid:2.16.840.1.113883.6.238","code":"2186-5","display":"Not Hispanic or Latino","userSelected":true}},{"url":"text","valueString":"Not Hispanic or Latino"}]}],"identifier":[{"type":{"coding":[{"system":"http://terminology.hl7.org/CodeSystem/v2-0203","code":"MR"}]},"system":"https://bonnie-fhir.healthit.gov/","value":"62df25800056b6e23ec675a1"}],"name":[{"family":"NUMERPass","given":["LowBMIAndInterventionOrderedMedication"]}],"gender":"male","birthDate":"1956-11-07"},"request":{"method":"POST","url":"Patient/27849d59-3cef-40bf-8338-a6ec7c0bcf81"}},{"fullUrl":"https://madie.cms.gov/Encounter/encounter-to-evaluate-bmi-533b","resource":{"resourceType":"Encounter","id":"encounter-to-evaluate-bmi-533b","meta":{"profile":["http://hl7.org/fhir/us/qicore/StructureDefinition/qicore-encounter"]},"status":"finished","class":{"system":"http://terminology.hl7.org/CodeSystem/v3-ActCode","code":"AMB","display":"ambulatory"},"type":[{"coding":[{"system":"http://snomed.info/sct","version":"2022-03","code":"10197000","display":"Psychiatric interview and evaluation (procedure)","userSelected":true}]}],"subject":{"reference":"Patient/27849d59-3cef-40bf-8338-a6ec7c0bcf81"},"period":{"start":"2025-12-31T23:30:00.000+00:00","end":"2025-12-31T23:59:00.000+00:00"}},"request":{"method":"POST","url":"Encounter/encounter-to-evaluate-bmi-533b"}},{"fullUrl":"https://madie.cms.gov/Observation/body-mass-index-bmi-ratio-534c","resource":{"resourceType":"Observation","id":"body-mass-index-bmi-ratio-534c","meta":{"profile":["http://hl7.org/fhir/us/core/StructureDefinition/us-core-bmi"]},"status":"final","category":[{"coding":[{"system":"http://terminology.hl7.org/CodeSystem/observation-category","code":"vital-signs","display":"Vital Signs"}]}],"code":{"coding":[{"system":"http://loinc.org","code":"39156-5","display":"Body mass index (BMI) [Ratio]","userSelected":true}]},"subject":{"reference":"Patient/27849d59-3cef-40bf-8338-a6ec7c0bcf81"},"effectiveDateTime":"2025-12-31T23:59:00.000+00:00","valueQuantity":{"value":18.4,"unit":"kg/m2","system":"http://unitsofmeasure.org","code":"kg/m2"}},"request":{"method":"POST","url":"Observation/body-mass-index-bmi-ratio-534c"}},{"fullUrl":"https://madie.cms.gov/MedicationRequest/medications-for-below-normal-bmi-75a2","resource":{"resourceType":"MedicationRequest","id":"medications-for-below-normal-bmi-75a2","meta":{"profile":["http://hl7.org/fhir/us/qicore/StructureDefinition/qicore-medicationrequest"]},"status":"active","intent":"order","medicationCodeableConcept":{"coding":[{"system":"http://www.nlm.nih.gov/research/umls/rxnorm","code":"1928948","display":"dronabinol 5 MG/ML Oral Solution","userSelected":true}]},"subject":{"reference":"Patient/27849d59-3cef-40bf-8338-a6ec7c0bcf81"},"authoredOn":"2025-12-31T23:59:00.000+00:00","requester":{"reference":"Practitioner/example","display":"Patrick Pump"},"reasonCode":[{"coding":[{"system":"http://hl7.org/fhir/sid/icd-10-cm","code":"R63.6","display":"Underweight","userSelected":true}]}]},"request":{"method":"POST","url":"MedicationRequest/medications-for-below-normal-bmi-75a2"}},{"fullUrl":"https://madie.cms.gov/Coverage/1","resource":{"resourceType":"Coverage","id":"1","meta":{"profile":["http://hl7.org/fhir/us/qicore/StructureDefinition/qicore-coverage"]},"status":"active","beneficiary":{"reference":"Patient/27849d59-3cef-40bf-8338-a6ec7c0bcf81"},"payor":[{"reference":"Organization/123456"}]},"request":{"method":"POST","url":"Coverage/1"}},{"fullUrl":"https://madie.cms.gov/Organization/123456","resource":{"resourceType":"Organization","id":"123456","meta":{"profile":["http://hl7.org/fhir/us/qicore/StructureDefinition/qicore-organization"]},"identifier":[{"use":"temp","system":"urn:oid:2.16.840.1.113883.4.4","value":"21-3259825"}],"active":true,"type":[{"coding":[{"system":"http://terminology.hl7.org/CodeSystem/organization-type","code":"pay","display":"Payer"}]}],"name":"Blue Cross Blue Shield of Texas","telecom":[{"system":"phone","value":"(+1) 972-766-6900"}],"address":[{"use":"billing","type":"postal","line":["P.O. Box 660044"],"city":"Dallas","state":"TX","postalCode":"75266-0044","country":"USA"}]},"request":{"method":"POST","url":"Organization/123456"}},{"fullUrl":"https://madie.cms.gov/MeasureReport/4c308ada-5a4b-44a5-a9f9-7f8320695d7b","resource":{"resourceType":"MeasureReport","id":"4c308ada-5a4b-44a5-a9f9-7f8320695d7b","meta":{"profile":["http://hl7.org/fhir/us/cqfmeasures/StructureDefinition/test-case-cqfm"]},"contained":[{"resourceType":"Parameters","id":"aaac7cd1-2d6b-404f-8172-8f4314d6d508-parameters","parameter":[{"name":"subject","valueString":"27849d59-3cef-40bf-8338-a6ec7c0bcf81"}]}],"extension":[{"url":"http://hl7.org/fhir/us/cqfmeasures/StructureDefinition/cqfm-inputParameters","valueReference":{"reference":"#aaac7cd1-2d6b-404f-8172-8f4314d6d508-parameters"}},{"url":"http://hl7.org/fhir/us/cqfmeasures/StructureDefinition/cqfm-testCaseDescription","valueMarkdown":"Amb enc last 30 minutes of the last day of MP Low BMI at 18.4 kg/m2 with intervention ordered - medications, reason code"}],"modifierExtension":[{"url":"http://hl7.org/fhir/us/cqfmeasures/StructureDefinition/cqfm-isTestCase","valueBoolean":true}],"status":"complete","type":"individual","measure":"https://madie.cms.gov/Measure/PCSBMIScreenAndFollowUpFHIR","period":{"start":"2025-01-01","end":"2025-12-31"},"group":[{"population":[{"code":{"coding":[{"system":"http://terminology.hl7.org/CodeSystem/measure-population","code":"initial-population","display":"Initial Population"}]},"count":1},{"code":{"coding":[{"system":"http://terminology.hl7.org/CodeSystem/measure-population","code":"denominator","display":"Denominator"}]},"count":1},{"code":{"coding":[{"system":"http://terminology.hl7.org/CodeSystem/measure-population","code":"denominator-exclusion","display":"Denominator Exclusion"}]},"count":0},{"code":{"coding":[{"system":"http://terminology.hl7.org/CodeSystem/measure-population","code":"denominator-exception","display":"Denominator Exception"}]},"count":0},{"code":{"coding":[{"system":"http://terminology.hl7.org/CodeSystem/measure-population","code":"numerator","display":"Numerator"}]},"count":1}]}],"evaluatedResource":[{"reference":"https://madie.cms.gov/Patient/27849d59-3cef-40bf-8338-a6ec7c0bcf81"},{"reference":"https://madie.cms.gov/Encounter/encounter-to-evaluate-bmi-533b"},{"reference":"https://madie.cms.gov/Observation/body-mass-index-bmi-ratio-534c"},{"reference":"https://madie.cms.gov/MedicationRequest/medications-for-below-normal-bmi-75a2"},{"reference":"https://madie.cms.gov/Coverage/1"},{"reference":"https://madie.cms.gov/Organization/123456"}]},"request":{"method":"POST","url":"MeasureReport/4c308ada-5a4b-44a5-a9f9-7f8320695d7b"}}]},"request":{"method":"PUT","url":"Bundle/62df25800056b6e23ec675a1"}},{"resource":{"resourceType":"Coverage","id":"1","meta":{"profile":["http://hl7.org/fhir/us/qicore/StructureDefinition/qicore-coverage"]},"status":"active","beneficiary":{"reference":"Patient/27849d59-3cef-40bf-8338-a6ec7c0bcf81"},"payor":[{"reference":"Organization/123456"}]},"request":{"method":"PUT","url":"Coverage/1"}},{"resource":{"resourceType":"Encounter","id":"encounter-to-evaluate-bmi-533b","meta":{"profile":["http://hl7.org/fhir/us/qicore/StructureDefinition/qicore-encounter"]},"status":"finished","class":{"system":"http://terminology.hl7.org/CodeSystem/v3-ActCode","code":"AMB","display":"ambulatory"},"type":[{"coding":[{"system":"http://snomed.info/sct","version":"2022-03","code":"10197000","display":"Psychiatric interview and evaluation (procedure)","userSelected":true}]}],"subject":{"reference":"Patient/27849d59-3cef-40bf-8338-a6ec7c0bcf81"},"period":{"start":"2025-12-31T23:30:00.000+00:00","end":"2025-12-31T23:59:00.000+00:00"}},"request":{"method":"PUT","url":"Encounter/encounter-to-evaluate-bmi-533b"}},{"resource":{"resourceType":"MeasureReport","id":"4c308ada-5a4b-44a5-a9f9-7f8320695d7b","meta":{"profile":["http://hl7.org/fhir/us/cqfmeasures/StructureDefinition/test-case-cqfm"]},"contained":[{"resourceType":"Parameters","id":"aaac7cd1-2d6b-404f-8172-8f4314d6d508-parameters","parameter":[{"name":"subject","valueString":"27849d59-3cef-40bf-8338-a6ec7c0bcf81"}]}],"extension":[{"url":"http://hl7.org/fhir/us/cqfmeasures/StructureDefinition/cqfm-inputParameters","valueReference":{"reference":"#aaac7cd1-2d6b-404f-8172-8f4314d6d508-parameters"}},{"url":"http://hl7.org/fhir/us/cqfmeasures/StructureDefinition/cqfm-testCaseDescription","valueMarkdown":"Amb enc last 30 minutes of the last day of MP Low BMI at 18.4 kg/m2 with intervention ordered - medications, reason code"}],"modifierExtension":[{"url":"http://hl7.org/fhir/us/cqfmeasures/StructureDefinition/cqfm-isTestCase","valueBoolean":true}],"status":"complete","type":"individual","measure":"https://madie.cms.gov/Measure/PCSBMIScreenAndFollowUpFHIR","period":{"start":"2025-01-01","end":"2025-12-31"},"group":[{"population":[{"code":{"coding":[{"system":"http://terminology.hl7.org/CodeSystem/measure-population","code":"initial-population","display":"Initial Population"}]},"count":1},{"code":{"coding":[{"system":"http://terminology.hl7.org/CodeSystem/measure-population","code":"denominator","display":"Denominator"}]},"count":1},{"code":{"coding":[{"system":"http://terminology.hl7.org/CodeSystem/measure-population","code":"denominator-exclusion","display":"Denominator Exclusion"}]},"count":0},{"code":{"coding":[{"system":"http://terminology.hl7.org/CodeSystem/measure-population","code":"denominator-exception","display":"Denominator Exception"}]},"count":0},{"code":{"coding":[{"system":"http://terminology.hl7.org/CodeSystem/measure-population","code":"numerator","display":"Numerator"}]},"count":1}]}],"evaluatedResource":[{"reference":"https://madie.cms.gov/Patient/27849d59-3cef-40bf-8338-a6ec7c0bcf81"},{"reference":"https://madie.cms.gov/Encounter/encounter-to-evaluate-bmi-533b"},{"reference":"https://madie.cms.gov/Observation/body-mass-index-bmi-ratio-534c"},{"reference":"https://madie.cms.gov/MedicationRequest/medications-for-below-normal-bmi-75a2"},{"reference":"https://madie.cms.gov/Coverage/1"},{"reference":"https://madie.cms.gov/Organization/123456"}]},"request":{"method":"PUT","url":"MeasureReport/4c308ada-5a4b-44a5-a9f9-7f8320695d7b"}},{"resource":{"resourceType":"MedicationRequest","id":"medications-for-below-normal-bmi-75a2","meta":{"profile":["http://hl7.org/fhir/us/qicore/StructureDefinition/qicore-medicationrequest"]},"status":"active","intent":"order","medicationCodeableConcept":{"coding":[{"system":"http://www.nlm.nih.gov/research/umls/rxnorm","code":"1928948","display":"dronabinol 5 MG/ML Oral Solution","userSelected":true}]},"subject":{"reference":"Patient/27849d59-3cef-40bf-8338-a6ec7c0bcf81"},"authoredOn":"2025-12-31T23:59:00.000+00:00","requester":{"reference":"Practitioner/example","display":"Patrick Pump"},"reasonCode":[{"coding":[{"system":"http://hl7.org/fhir/sid/icd-10-cm","code":"R63.6","display":"Underweight","userSelected":true}]}]},"request":{"method":"PUT","url":"MedicationRequest/medications-for-below-normal-bmi-75a2"}},{"resource":{"resourceType":"Observation","id":"body-mass-index-bmi-ratio-534c","meta":{"profile":["http://hl7.org/fhir/us/core/StructureDefinition/us-core-bmi"]},"status":"final","category":[{"coding":[{"system":"http://terminology.hl7.org/CodeSystem/observation-category","code":"vital-signs","display":"Vital Signs"}]}],"code":{"coding":[{"system":"http://loinc.org","code":"39156-5","display":"Body mass index (BMI) [Ratio]","userSelected":true}]},"subject":{"reference":"Patient/27849d59-3cef-40bf-8338-a6ec7c0bcf81"},"effectiveDateTime":"2025-12-31T23:59:00.000+00:00","valueQuantity":{"value":18.4,"unit":"kg/m2","system":"http://unitsofmeasure.org","code":"kg/m2"}},"request":{"method":"PUT","url":"Observation/body-mass-index-bmi-ratio-534c"}},{"resource":{"resourceType":"Organization","id":"123456","meta":{"profile":["http://hl7.org/fhir/us/qicore/StructureDefinition/qicore-organization"]},"identifier":[{"use":"temp","system":"urn:oid:2.16.840.1.113883.4.4","value":"21-3259825"}],"active":true,"type":[{"coding":[{"system":"http://terminology.hl7.org/CodeSystem/organization-type","code":"pay","display":"Payer"}]}],"name":"Blue Cross Blue Shield of Texas","telecom":[{"system":"phone","value":"(+1) 972-766-6900"}],"address":[{"use":"billing","type":"postal","line":["P.O. Box 660044"],"city":"Dallas","state":"TX","postalCode":"75266-0044","country":"USA"}]},"request":{"method":"PUT","url":"Organization/123456"}},{"resource":{"resourceType":"Patient","id":"27849d59-3cef-40bf-8338-a6ec7c0bcf81","meta":{"profile":["http://hl7.org/fhir/us/qicore/StructureDefinition/qicore-patient"]},"extension":[{"url":"http://hl7.org/fhir/us/core/StructureDefinition/us-core-race","extension":[{"url":"ombCategory","valueCoding":{"system":"urn:oid:2.16.840.1.113883.6.238","code":"2106-3","display":"White","userSelected":true}},{"url":"text","valueString":"White"}]},{"url":"http://hl7.org/fhir/us/core/StructureDefinition/us-core-ethnicity","extension":[{"url":"ombCategory","valueCoding":{"system":"urn:oid:2.16.840.1.113883.6.238","code":"2186-5","display":"Not Hispanic or Latino","userSelected":true}},{"url":"text","valueString":"Not Hispanic or Latino"}]}],"identifier":[{"type":{"coding":[{"system":"http://terminology.hl7.org/CodeSystem/v2-0203","code":"MR"}]},"system":"https://bonnie-fhir.healthit.gov/","value":"62df25800056b6e23ec675a1"}],"name":[{"family":"NUMERPass","given":["LowBMIAndInterventionOrderedMedication"]}],"gender":"male","birthDate":"1956-11-07"},"request":{"method":"PUT","url":"Patient/27849d59-3cef-40bf-8338-a6ec7c0bcf81"}}]}