{"resourceType":"Bundle","id":"tests-405d4940-7ab2-4d26-b55f-3c27e07eba33-bundle","type":"transaction","entry":[{"resource":{"resourceType":"Bundle","id":"62fbf0eebf5132f90ee35d42","type":"transaction","entry":[{"fullUrl":"https://madie.cms.gov/Patient/405d4940-7ab2-4d26-b55f-3c27e07eba33","resource":{"resourceType":"Patient","id":"405d4940-7ab2-4d26-b55f-3c27e07eba33","meta":{"profile":["http://hl7.org/fhir/us/qicore/StructureDefinition/qicore-patient"]},"extension":[{"url":"http://hl7.org/fhir/us/core/StructureDefinition/us-core-race","extension":[{"url":"ombCategory","valueCoding":{"system":"urn:oid:2.16.840.1.113883.6.238","code":"2106-3","display":"White","userSelected":true}},{"url":"text","valueString":"White"}]},{"url":"http://hl7.org/fhir/us/core/StructureDefinition/us-core-ethnicity","extension":[{"url":"ombCategory","valueCoding":{"system":"urn:oid:2.16.840.1.113883.6.238","code":"2186-5","display":"Not Hispanic or Latino","userSelected":true}},{"url":"text","valueString":"Not Hispanic or Latino"}]}],"identifier":[{"type":{"coding":[{"system":"http://terminology.hl7.org/CodeSystem/v2-0203","code":"MR"}]},"system":"https://bonnie-fhir.healthit.gov/","value":"62fbf0eebf5132f90ee35d42"}],"name":[{"family":"NUMERFail","given":["LowBMIAndConditionEndsBeforeInterventionPerformed (1)"]}],"gender":"unknown","birthDate":"1956-11-07"},"request":{"method":"POST","url":"Patient/405d4940-7ab2-4d26-b55f-3c27e07eba33"}},{"fullUrl":"https://madie.cms.gov/Encounter/encounter-to-evaluate-bmi-533b","resource":{"resourceType":"Encounter","id":"encounter-to-evaluate-bmi-533b","meta":{"profile":["http://hl7.org/fhir/us/qicore/StructureDefinition/qicore-encounter"]},"status":"finished","class":{"system":"http://terminology.hl7.org/CodeSystem/v3-ActCode","code":"AMB","display":"ambulatory"},"type":[{"coding":[{"system":"http://snomed.info/sct","version":"2022-03","code":"10197000","display":"Psychiatric interview and evaluation (procedure)","userSelected":true}]}],"subject":{"reference":"Patient/405d4940-7ab2-4d26-b55f-3c27e07eba33"},"period":{"start":"2025-12-31T23:30:00.000+00:00","end":"2025-12-31T23:59:00.000+00:00"}},"request":{"method":"POST","url":"Encounter/encounter-to-evaluate-bmi-533b"}},{"fullUrl":"https://madie.cms.gov/Observation/body-mass-index-bmi-ratio-534c","resource":{"resourceType":"Observation","id":"body-mass-index-bmi-ratio-534c","meta":{"profile":["http://hl7.org/fhir/us/core/StructureDefinition/us-core-bmi"]},"status":"final","category":[{"coding":[{"system":"http://terminology.hl7.org/CodeSystem/observation-category","code":"vital-signs","display":"Vital Signs"}]}],"code":{"coding":[{"system":"http://loinc.org","code":"39156-5","display":"Body mass index (BMI) [Ratio]","userSelected":true}]},"subject":{"reference":"Patient/405d4940-7ab2-4d26-b55f-3c27e07eba33"},"effectiveDateTime":"2025-12-31T08:05:00.000+00:00","valueQuantity":{"value":15.0,"unit":"kg/m2","system":"http://unitsofmeasure.org","code":"kg/m2"}},"request":{"method":"POST","url":"Observation/body-mass-index-bmi-ratio-534c"}},{"fullUrl":"https://madie.cms.gov/Procedure/follow-up-for-below-normal-bmi-5d43","resource":{"resourceType":"Procedure","id":"follow-up-for-below-normal-bmi-5d43","meta":{"profile":["http://hl7.org/fhir/us/qicore/StructureDefinition/qicore-procedure"]},"extension":[{"url":"http://hl7.org/fhir/us/qicore/StructureDefinition/qicore-recorded","valueDateTime":"2025-12-31T23:59:00.000+00:00"}],"status":"completed","code":{"coding":[{"system":"http://snomed.info/sct","version":"2022-03","code":"182922004","display":"Dietary regime (regime/therapy)","userSelected":true}]},"subject":{"reference":"Patient/405d4940-7ab2-4d26-b55f-3c27e07eba33"},"performedDateTime":"2025-12-31T23:59:00.000+00:00"},"request":{"method":"POST","url":"Procedure/follow-up-for-below-normal-bmi-5d43"}},{"fullUrl":"https://madie.cms.gov/Condition/underweight-5d44","resource":{"resourceType":"Condition","id":"underweight-5d44","clinicalStatus":{"coding":[{"system":"http://terminology.hl7.org/CodeSystem/condition-clinical","code":"inactive","display":"inActive","userSelected":true}]},"code":{"coding":[{"system":"http://snomed.info/sct","version":"2022-03","code":"248342006","display":"Underweight (finding)","userSelected":true}]},"subject":{"reference":"Patient/405d4940-7ab2-4d26-b55f-3c27e07eba33"},"abatementPeriod":{"start":"2023-01-01T08:00:00.000+00:00","end":"2025-08-15T23:59:00.000+00:00"}},"request":{"method":"POST","url":"Condition/underweight-5d44"}},{"fullUrl":"https://madie.cms.gov/Coverage/1","resource":{"resourceType":"Coverage","id":"1","meta":{"profile":["http://hl7.org/fhir/us/qicore/StructureDefinition/qicore-coverage"]},"status":"active","beneficiary":{"reference":"Patient/405d4940-7ab2-4d26-b55f-3c27e07eba33"},"payor":[{"reference":"Organization/123456"}]},"request":{"method":"POST","url":"Coverage/1"}},{"fullUrl":"https://madie.cms.gov/Organization/123456","resource":{"resourceType":"Organization","id":"123456","meta":{"profile":["http://hl7.org/fhir/us/qicore/StructureDefinition/qicore-organization"]},"identifier":[{"use":"temp","system":"urn:oid:2.16.840.1.113883.4.4","value":"21-3259825"}],"active":true,"type":[{"coding":[{"system":"http://terminology.hl7.org/CodeSystem/organization-type","code":"pay","display":"Payer"}]}],"name":"Blue Cross Blue Shield of Texas","telecom":[{"system":"phone","value":"(+1) 972-766-6900"}],"address":[{"use":"billing","type":"postal","line":["P.O. Box 660044"],"city":"Dallas","state":"TX","postalCode":"75266-0044","country":"USA"}]},"request":{"method":"POST","url":"Organization/123456"}},{"fullUrl":"https://madie.cms.gov/MeasureReport/b74566e4-5e74-4a0a-b0c7-183e8554a588","resource":{"resourceType":"MeasureReport","id":"b74566e4-5e74-4a0a-b0c7-183e8554a588","meta":{"profile":["http://hl7.org/fhir/us/cqfmeasures/StructureDefinition/test-case-cqfm"]},"contained":[{"resourceType":"Parameters","id":"6eba3cac-623a-4476-b4ca-48ca12b7e137-parameters","parameter":[{"name":"subject","valueString":"405d4940-7ab2-4d26-b55f-3c27e07eba33"}]}],"extension":[{"url":"http://hl7.org/fhir/us/cqfmeasures/StructureDefinition/cqfm-inputParameters","valueReference":{"reference":"#6eba3cac-623a-4476-b4ca-48ca12b7e137-parameters"}},{"url":"http://hl7.org/fhir/us/cqfmeasures/StructureDefinition/cqfm-testCaseDescription","valueMarkdown":"Low BMI with intervention performed using condition but condition prevalence period ends before the intervention is performed. "}],"modifierExtension":[{"url":"http://hl7.org/fhir/us/cqfmeasures/StructureDefinition/cqfm-isTestCase","valueBoolean":true}],"status":"complete","type":"individual","measure":"https://madie.cms.gov/Measure/PCSBMIScreenAndFollowUpFHIR","period":{"start":"2025-01-01","end":"2025-12-31"},"group":[{"population":[{"code":{"coding":[{"system":"http://terminology.hl7.org/CodeSystem/measure-population","code":"initial-population","display":"Initial Population"}]},"count":1},{"code":{"coding":[{"system":"http://terminology.hl7.org/CodeSystem/measure-population","code":"denominator","display":"Denominator"}]},"count":1},{"code":{"coding":[{"system":"http://terminology.hl7.org/CodeSystem/measure-population","code":"denominator-exclusion","display":"Denominator Exclusion"}]},"count":0},{"code":{"coding":[{"system":"http://terminology.hl7.org/CodeSystem/measure-population","code":"denominator-exception","display":"Denominator Exception"}]},"count":0},{"code":{"coding":[{"system":"http://terminology.hl7.org/CodeSystem/measure-population","code":"numerator","display":"Numerator"}]},"count":0}]}],"evaluatedResource":[{"reference":"https://madie.cms.gov/Patient/405d4940-7ab2-4d26-b55f-3c27e07eba33"},{"reference":"https://madie.cms.gov/Encounter/encounter-to-evaluate-bmi-533b"},{"reference":"https://madie.cms.gov/Observation/body-mass-index-bmi-ratio-534c"},{"reference":"https://madie.cms.gov/Procedure/follow-up-for-below-normal-bmi-5d43"},{"reference":"https://madie.cms.gov/Condition/underweight-5d44"},{"reference":"https://madie.cms.gov/Coverage/1"},{"reference":"https://madie.cms.gov/Organization/123456"}]},"request":{"method":"POST","url":"MeasureReport/b74566e4-5e74-4a0a-b0c7-183e8554a588"}}]},"request":{"method":"PUT","url":"Bundle/62fbf0eebf5132f90ee35d42"}},{"resource":{"resourceType":"Condition","id":"underweight-5d44","clinicalStatus":{"coding":[{"system":"http://terminology.hl7.org/CodeSystem/condition-problems-health-concerns","code":"inactive","display":"inActive","userSelected":true}]},"code":{"coding":[{"system":"http://snomed.info/sct","version":"2022-03","code":"248342006","display":"Underweight (finding)","userSelected":true}]},"subject":{"reference":"Patient/405d4940-7ab2-4d26-b55f-3c27e07eba33"},"abatementPeriod":{"start":"2023-01-01T08:00:00.000+00:00","end":"2025-08-15T23:59:00.000+00:00"}},"request":{"method":"PUT","url":"Condition/underweight-5d44"}},{"resource":{"resourceType":"Coverage","id":"1","meta":{"profile":["http://hl7.org/fhir/us/qicore/StructureDefinition/qicore-coverage"]},"status":"active","beneficiary":{"reference":"Patient/405d4940-7ab2-4d26-b55f-3c27e07eba33"},"payor":[{"reference":"Organization/123456"}]},"request":{"method":"PUT","url":"Coverage/1"}},{"resource":{"resourceType":"Encounter","id":"encounter-to-evaluate-bmi-533b","meta":{"profile":["http://hl7.org/fhir/us/qicore/StructureDefinition/qicore-encounter"]},"status":"finished","class":{"system":"http://terminology.hl7.org/CodeSystem/v3-ActCode","code":"AMB","display":"ambulatory"},"type":[{"coding":[{"system":"http://snomed.info/sct","version":"2022-03","code":"10197000","display":"Psychiatric interview and evaluation (procedure)","userSelected":true}]}],"subject":{"reference":"Patient/405d4940-7ab2-4d26-b55f-3c27e07eba33"},"period":{"start":"2025-12-31T23:30:00.000+00:00","end":"2025-12-31T23:59:00.000+00:00"}},"request":{"method":"PUT","url":"Encounter/encounter-to-evaluate-bmi-533b"}},{"resource":{"resourceType":"MeasureReport","id":"b74566e4-5e74-4a0a-b0c7-183e8554a588","meta":{"profile":["http://hl7.org/fhir/us/cqfmeasures/StructureDefinition/test-case-cqfm"]},"contained":[{"resourceType":"Parameters","id":"6eba3cac-623a-4476-b4ca-48ca12b7e137-parameters","parameter":[{"name":"subject","valueString":"405d4940-7ab2-4d26-b55f-3c27e07eba33"}]}],"extension":[{"url":"http://hl7.org/fhir/us/cqfmeasures/StructureDefinition/cqfm-inputParameters","valueReference":{"reference":"#6eba3cac-623a-4476-b4ca-48ca12b7e137-parameters"}},{"url":"http://hl7.org/fhir/us/cqfmeasures/StructureDefinition/cqfm-testCaseDescription","valueMarkdown":"Low BMI with intervention performed using condition but condition prevalence period ends before the intervention is performed. "}],"modifierExtension":[{"url":"http://hl7.org/fhir/us/cqfmeasures/StructureDefinition/cqfm-isTestCase","valueBoolean":true}],"status":"complete","type":"individual","measure":"https://madie.cms.gov/Measure/PCSBMIScreenAndFollowUpFHIR","period":{"start":"2025-01-01","end":"2025-12-31"},"group":[{"population":[{"code":{"coding":[{"system":"http://terminology.hl7.org/CodeSystem/measure-population","code":"initial-population","display":"Initial Population"}]},"count":1},{"code":{"coding":[{"system":"http://terminology.hl7.org/CodeSystem/measure-population","code":"denominator","display":"Denominator"}]},"count":1},{"code":{"coding":[{"system":"http://terminology.hl7.org/CodeSystem/measure-population","code":"denominator-exclusion","display":"Denominator Exclusion"}]},"count":0},{"code":{"coding":[{"system":"http://terminology.hl7.org/CodeSystem/measure-population","code":"denominator-exception","display":"Denominator Exception"}]},"count":0},{"code":{"coding":[{"system":"http://terminology.hl7.org/CodeSystem/measure-population","code":"numerator","display":"Numerator"}]},"count":0}]}],"evaluatedResource":[{"reference":"https://madie.cms.gov/Patient/405d4940-7ab2-4d26-b55f-3c27e07eba33"},{"reference":"https://madie.cms.gov/Encounter/encounter-to-evaluate-bmi-533b"},{"reference":"https://madie.cms.gov/Observation/body-mass-index-bmi-ratio-534c"},{"reference":"https://madie.cms.gov/Procedure/follow-up-for-below-normal-bmi-5d43"},{"reference":"https://madie.cms.gov/Condition/underweight-5d44"},{"reference":"https://madie.cms.gov/Coverage/1"},{"reference":"https://madie.cms.gov/Organization/123456"}]},"request":{"method":"PUT","url":"MeasureReport/b74566e4-5e74-4a0a-b0c7-183e8554a588"}},{"resource":{"resourceType":"Observation","id":"body-mass-index-bmi-ratio-534c","meta":{"profile":["http://hl7.org/fhir/us/core/StructureDefinition/us-core-bmi"]},"status":"final","category":[{"coding":[{"system":"http://terminology.hl7.org/CodeSystem/observation-category","code":"vital-signs","display":"Vital Signs"}]}],"code":{"coding":[{"system":"http://loinc.org","code":"39156-5","display":"Body mass index (BMI) [Ratio]","userSelected":true}]},"subject":{"reference":"Patient/405d4940-7ab2-4d26-b55f-3c27e07eba33"},"effectiveDateTime":"2025-12-31T08:05:00.000+00:00","valueQuantity":{"value":15.0,"unit":"kg/m2","system":"http://unitsofmeasure.org","code":"kg/m2"}},"request":{"method":"PUT","url":"Observation/body-mass-index-bmi-ratio-534c"}},{"resource":{"resourceType":"Organization","id":"123456","meta":{"profile":["http://hl7.org/fhir/us/qicore/StructureDefinition/qicore-organization"]},"identifier":[{"use":"temp","system":"urn:oid:2.16.840.1.113883.4.4","value":"21-3259825"}],"active":true,"type":[{"coding":[{"system":"http://terminology.hl7.org/CodeSystem/organization-type","code":"pay","display":"Payer"}]}],"name":"Blue Cross Blue Shield of Texas","telecom":[{"system":"phone","value":"(+1) 972-766-6900"}],"address":[{"use":"billing","type":"postal","line":["P.O. Box 660044"],"city":"Dallas","state":"TX","postalCode":"75266-0044","country":"USA"}]},"request":{"method":"PUT","url":"Organization/123456"}},{"resource":{"resourceType":"Patient","id":"405d4940-7ab2-4d26-b55f-3c27e07eba33","meta":{"profile":["http://hl7.org/fhir/us/qicore/StructureDefinition/qicore-patient"]},"extension":[{"url":"http://hl7.org/fhir/us/core/StructureDefinition/us-core-race","extension":[{"url":"ombCategory","valueCoding":{"system":"urn:oid:2.16.840.1.113883.6.238","code":"2106-3","display":"White","userSelected":true}},{"url":"text","valueString":"White"}]},{"url":"http://hl7.org/fhir/us/core/StructureDefinition/us-core-ethnicity","extension":[{"url":"ombCategory","valueCoding":{"system":"urn:oid:2.16.840.1.113883.6.238","code":"2186-5","display":"Not Hispanic or Latino","userSelected":true}},{"url":"text","valueString":"Not Hispanic or Latino"}]}],"identifier":[{"type":{"coding":[{"system":"http://terminology.hl7.org/CodeSystem/v2-0203","code":"MR"}]},"system":"https://bonnie-fhir.healthit.gov/","value":"62fbf0eebf5132f90ee35d42"}],"name":[{"family":"NUMERFail","given":["LowBMIAndConditionEndsBeforeInterventionPerformed (1)"]}],"gender":"unknown","birthDate":"1956-11-07"},"request":{"method":"PUT","url":"Patient/405d4940-7ab2-4d26-b55f-3c27e07eba33"}},{"resource":{"resourceType":"Procedure","id":"follow-up-for-below-normal-bmi-5d43","meta":{"profile":["http://hl7.org/fhir/us/qicore/StructureDefinition/qicore-procedure"]},"extension":[{"url":"http://hl7.org/fhir/us/qicore/StructureDefinition/qicore-recorded","valueDateTime":"2025-12-31T23:59:00.000+00:00"}],"status":"completed","code":{"coding":[{"system":"http://snomed.info/sct","version":"2022-03","code":"182922004","display":"Dietary regime (regime/therapy)","userSelected":true}]},"subject":{"reference":"Patient/405d4940-7ab2-4d26-b55f-3c27e07eba33"},"performedDateTime":"2025-12-31T23:59:00.000+00:00"},"request":{"method":"PUT","url":"Procedure/follow-up-for-below-normal-bmi-5d43"}}]}