{
  "resourceType": "Bundle",
  "id": "DENEXPass-ElectiveTHAProc1YrB4THAProc",
  "type": "transaction",
  "entry": [ {
    "fullUrl": "https://madie.cms.gov/Patient/1535feaa-e79e-4154-85b3-dd9e15f914fe",
    "resource": {
      "resourceType": "Patient",
      "id": "1535feaa-e79e-4154-85b3-dd9e15f914fe",
      "meta": {
        "profile": [ "http://hl7.org/fhir/us/qicore/StructureDefinition/qicore-patient" ]
      },
      "extension": [ {
        "url": "http://hl7.org/fhir/us/core/StructureDefinition/us-core-race",
        "extension": [ {
          "url": "ombCategory",
          "valueCoding": {
            "system": "urn:oid:2.16.840.1.113883.6.238",
            "code": "2028-9",
            "display": "Asian"
          }
        }, {
          "url": "text",
          "valueString": "Asian"
        } ]
      }, {
        "url": "http://hl7.org/fhir/us/core/StructureDefinition/us-core-ethnicity",
        "extension": [ {
          "url": "ombCategory",
          "valueCoding": {
            "system": "urn:oid:2.16.840.1.113883.6.238",
            "code": "2135-2",
            "display": "Hispanic or Latino"
          }
        }, {
          "url": "text",
          "valueString": "Hispanic or Latino"
        } ]
      } ],
      "identifier": [ {
        "system": "http://hospital.smarthealthit.org",
        "value": "999999995"
      } ],
      "name": [ {
        "family": "Bertha",
        "given": [ "Betty" ]
      } ],
      "gender": "female",
      "birthDate": "2007-01-01"
    },
    "request": {
      "method": "PUT",
      "url": "Patient/1535feaa-e79e-4154-85b3-dd9e15f914fe"
    }
  }, {
    "fullUrl": "https://madie.cms.gov/Procedure/a28d99fd-5cd3-4972-a2fe-616fd17d9929",
    "resource": {
      "resourceType": "Procedure",
      "id": "a28d99fd-5cd3-4972-a2fe-616fd17d9929",
      "meta": {
        "profile": [ "http://hl7.org/fhir/us/qicore/StructureDefinition/qicore-procedure" ]
      },
      "extension": [ {
        "url": "http://hl7.org/fhir/us/qicore/StructureDefinition/qicore-recorded",
        "valueDateTime": "2026-11-01T00:00:00.000Z"
      } ],
      "status": "completed",
      "code": {
        "coding": [ {
          "system": "http://www.cms.gov/Medicare/Coding/ICD10",
          "code": "0SR9019",
          "display": "Replacement of Right Hip Joint with Metal Synthetic Substitute, Cemented, Open Approach"
        } ]
      },
      "subject": {
        "reference": "Patient/1535feaa-e79e-4154-85b3-dd9e15f914fe"
      },
      "performedPeriod": {
        "start": "2024-11-01T00:00:00.000Z",
        "end": "2024-11-01T01:00:00.000Z"
      }
    },
    "request": {
      "method": "PUT",
      "url": "Procedure/a28d99fd-5cd3-4972-a2fe-616fd17d9929"
    }
  }, {
    "fullUrl": "https://madie.cms.gov/Encounter/ab817f4c-4ee2-47c2-8532-4e7cb37dac79",
    "resource": {
      "resourceType": "Encounter",
      "id": "ab817f4c-4ee2-47c2-8532-4e7cb37dac79",
      "meta": {
        "profile": [ "http://hl7.org/fhir/us/qicore/StructureDefinition/qicore-encounter" ]
      },
      "status": "finished",
      "class": {
        "system": "http://terminology.hl7.org/CodeSystem/v3-ActCode",
        "code": "AMB",
        "display": "ambulatory"
      },
      "type": [ {
        "coding": [ {
          "system": "http://snomed.info/sct",
          "code": "281036007",
          "display": "Follow-up consultation (procedure)"
        } ]
      } ],
      "subject": {
        "reference": "Patient/1535feaa-e79e-4154-85b3-dd9e15f914fe"
      },
      "period": {
        "start": "2025-11-01T00:00:00.000Z",
        "end": "2025-11-01T01:15:00.000Z"
      }
    },
    "request": {
      "method": "PUT",
      "url": "Encounter/ab817f4c-4ee2-47c2-8532-4e7cb37dac79"
    }
  }, {
    "fullUrl": "https://madie.cms.gov/Procedure/a28d99fd-5cd3-4972-a2fe-616fd17d9929.1",
    "resource": {
      "resourceType": "Procedure",
      "id": "a28d99fd-5cd3-4972-a2fe-616fd17d9929.1",
      "meta": {
        "profile": [ "http://hl7.org/fhir/us/qicore/StructureDefinition/qicore-procedure" ]
      },
      "extension": [ {
        "url": "http://hl7.org/fhir/us/qicore/StructureDefinition/qicore-recorded",
        "valueDateTime": "2024-11-01T00:00:00.000Z"
      } ],
      "status": "completed",
      "code": {
        "coding": [ {
          "system": "http://www.cms.gov/Medicare/Coding/ICD10",
          "code": "0SRB019",
          "display": "Replacement of Left Hip Joint with Metal Synthetic Substitute, Cemented, Open Approach"
        } ]
      },
      "subject": {
        "reference": "Patient/1535feaa-e79e-4154-85b3-dd9e15f914fe"
      },
      "performedPeriod": {
        "start": "2023-11-01T00:00:00.000Z",
        "end": "2023-11-01T01:00:00.000Z"
      }
    },
    "request": {
      "method": "PUT",
      "url": "Procedure/a28d99fd-5cd3-4972-a2fe-616fd17d9929.1"
    }
  }, {
    "fullUrl": "https://madie.cms.gov/MeasureReport/6c70162a-ebdf-42ba-a4d1-024d33bbe420",
    "resource": {
      "resourceType": "MeasureReport",
      "id": "6c70162a-ebdf-42ba-a4d1-024d33bbe420",
      "meta": {
        "profile": [ "http://hl7.org/fhir/us/cqfmeasures/StructureDefinition/test-case-cqfm" ]
      },
      "contained": [ {
        "resourceType": "Parameters",
        "id": "538c99df-734a-4717-95fa-afc6f5549227-parameters",
        "parameter": [ {
          "name": "subject",
          "valueString": "1535feaa-e79e-4154-85b3-dd9e15f914fe"
        } ]
      } ],
      "extension": [ {
        "url": "http://hl7.org/fhir/StructureDefinition/cqf-inputParameters",
        "valueReference": {
          "reference": "#538c99df-734a-4717-95fa-afc6f5549227-parameters"
        }
      }, {
        "url": "http://hl7.org/fhir/us/cqfmeasures/StructureDefinition/cqfm-testCaseDescription",
        "valueMarkdown": "Patient Has Elective THAProcedure 1 year before Initial THAProcedure"
      } ],
      "modifierExtension": [ {
        "url": "http://hl7.org/fhir/us/cqfmeasures/StructureDefinition/cqfm-isTestCase",
        "valueBoolean": true
      } ],
      "status": "complete",
      "type": "individual",
      "measure": "https://madie.cms.gov/Measure/CMS56FHIRFunctionalStatusAssessmentforTotalHipReplacement",
      "period": {
        "start": "2026-01-01",
        "end": "2026-12-31"
      },
      "group": [ {
        "id": "Group_1",
        "population": [ {
          "id": "InitialPopulation_1",
          "code": {
            "coding": [ {
              "system": "http://terminology.hl7.org/CodeSystem/measure-population",
              "code": "initial-population",
              "display": "Initial Population"
            } ]
          },
          "count": 1
        }, {
          "id": "Denominator_1",
          "code": {
            "coding": [ {
              "system": "http://terminology.hl7.org/CodeSystem/measure-population",
              "code": "denominator",
              "display": "Denominator"
            } ]
          },
          "count": 1
        }, {
          "id": "DenominatorExclusion_1",
          "code": {
            "coding": [ {
              "system": "http://terminology.hl7.org/CodeSystem/measure-population",
              "code": "denominator-exclusion",
              "display": "Denominator Exclusion"
            } ]
          },
          "count": 1
        }, {
          "id": "Numerator_1",
          "code": {
            "coding": [ {
              "system": "http://terminology.hl7.org/CodeSystem/measure-population",
              "code": "numerator",
              "display": "Numerator"
            } ]
          },
          "count": 0
        } ],
        "measureScore": {
          "value": 1.0
        }
      } ],
      "evaluatedResource": [ {
        "reference": "Patient/1535feaa-e79e-4154-85b3-dd9e15f914fe"
      }, {
        "reference": "Procedure/a28d99fd-5cd3-4972-a2fe-616fd17d9929"
      }, {
        "reference": "Encounter/ab817f4c-4ee2-47c2-8532-4e7cb37dac79"
      }, {
        "reference": "Procedure/a28d99fd-5cd3-4972-a2fe-616fd17d9929.1"
      } ]
    },
    "request": {
      "method": "PUT",
      "url": "MeasureReport/6c70162a-ebdf-42ba-a4d1-024d33bbe420"
    }
  } ]
}