{
  "resourceType": "Bundle",
  "id": "612e6a9402c62a011f2ea747",
  "type": "transaction",
  "entry": [ {
    "fullUrl": "https://madie.cms.gov/Patient/7520f4b4-3bde-465e-b6b0-07c5ac3da4de",
    "resource": {
      "resourceType": "Patient",
      "id": "7520f4b4-3bde-465e-b6b0-07c5ac3da4de",
      "meta": {
        "profile": [ "http://hl7.org/fhir/us/qicore/StructureDefinition/qicore-patient" ]
      },
      "text": {
        "status": "generated",
        "div": "<div xmlns=\"http://www.w3.org/1999/xhtml\"><div class=\"hapiHeaderText\">MedReason_MA_Warf_DO_IPC_DayOfAnes <b>NUMERPASS </b></div><table class=\"hapiPropertyTable\"><tbody><tr><td>Identifier</td><td>7b1692125190d12df658f3578aa84ca8</td></tr><tr><td>Date of birth</td><td><span>02 January 1974</span></td></tr></tbody></table></div>"
      },
      "extension": [ {
        "url": "http://hl7.org/fhir/us/core/StructureDefinition/us-core-race",
        "extension": [ {
          "url": "ombCategory",
          "valueCoding": {
            "system": "urn:oid:2.16.840.1.113883.6.238",
            "code": "1002-5",
            "display": "American Indian or Alaska Native",
            "userSelected": true
          }
        }, {
          "url": "text",
          "valueString": "American Indian or Alaska Native"
        } ]
      }, {
        "url": "http://hl7.org/fhir/us/core/StructureDefinition/us-core-ethnicity",
        "extension": [ {
          "url": "ombCategory",
          "valueCoding": {
            "system": "urn:oid:2.16.840.1.113883.6.238",
            "code": "2135-2",
            "display": "Hispanic or Latino",
            "userSelected": true
          }
        }, {
          "url": "text",
          "valueString": "Hispanic or Latino"
        } ]
      } ],
      "identifier": [ {
        "type": {
          "coding": [ {
            "system": "http://terminology.hl7.org/CodeSystem/v2-0203",
            "code": "MR"
          } ]
        },
        "system": "https://bonnie-fhir.healthit.gov/",
        "value": "612e6a9402c62a011f2ea747"
      } ],
      "active": true,
      "name": [ {
        "use": "usual",
        "family": "NUMERPass",
        "given": [ "MedReasonMAWarfDOIPCDayOfAnes" ]
      } ],
      "gender": "male",
      "birthDate": "1975-01-02"
    },
    "request": {
      "method": "PUT",
      "url": "Patient/7520f4b4-3bde-465e-b6b0-07c5ac3da4de"
    }
  }, {
    "fullUrl": "https://madie.cms.gov/Encounter/61dc98d9-ca6f-4dbf-b8b4-905c4db8c371",
    "resource": {
      "resourceType": "Encounter",
      "id": "61dc98d9-ca6f-4dbf-b8b4-905c4db8c371",
      "meta": {
        "profile": [ "http://hl7.org/fhir/us/qicore/StructureDefinition/qicore-encounter" ]
      },
      "status": "finished",
      "class": {
        "system": "http://terminology.hl7.org/CodeSystem/v3-ActCode",
        "code": "IMP",
        "display": "inpatient encounter"
      },
      "type": [ {
        "coding": [ {
          "system": "http://snomed.info/sct",
          "code": "8715000"
        } ]
      } ],
      "subject": {
        "reference": "Patient/7520f4b4-3bde-465e-b6b0-07c5ac3da4de"
      },
      "period": {
        "start": "2026-11-01T08:00:00.000+00:00",
        "end": "2026-11-26T08:15:00.000+00:00"
      },
      "length": {
        "value": 25,
        "unit": "days"
      }
    },
    "request": {
      "method": "PUT",
      "url": "Encounter/61dc98d9-ca6f-4dbf-b8b4-905c4db8c371"
    }
  }, {
    "fullUrl": "https://madie.cms.gov/Coverage/04bf339d-941c-4940-b986-0f45d8f09f03",
    "resource": {
      "resourceType": "Coverage",
      "id": "04bf339d-941c-4940-b986-0f45d8f09f03",
      "status": "active",
      "beneficiary": {
        "reference": "Patient/7520f4b4-3bde-465e-b6b0-07c5ac3da4de"
      },
      "period": {
        "start": "1975-01-02T08:00:00.000+00:00"
      },
      "payor": [ {
        "reference": "Organization/1138d19c-6a8c-47bd-ab80-6cff3f156ebd"
      } ]
    },
    "request": {
      "method": "PUT",
      "url": "Coverage/04bf339d-941c-4940-b986-0f45d8f09f03"
    }
  }, {
    "fullUrl": "https://madie.cms.gov/MedicationAdministration/e088893b-281c-4fc5-819f-fc95a0e8ca0a",
    "resource": {
      "resourceType": "MedicationAdministration",
      "id": "e088893b-281c-4fc5-819f-fc95a0e8ca0a",
      "meta": {
        "profile": [ "http://hl7.org/fhir/us/qicore/StructureDefinition/qicore-medicationadministrationnotdone" ]
      },
      "extension": [ {
        "url": "http://hl7.org/fhir/us/qicore/StructureDefinition/qicore-recorded",
        "valueDateTime": "2026-11-02T11:00:00.000+00:00"
      } ],
      "status": "not-done",
      "statusReason": [ {
        "coding": [ {
          "system": "http://snomed.info/sct",
          "code": "183932001"
        } ]
      } ],
      "medicationCodeableConcept": {
        "coding": [ {
          "system": "http://www.nlm.nih.gov/research/umls/rxnorm",
          "code": "855288"
        } ]
      },
      "subject": {
        "reference": "Patient/7520f4b4-3bde-465e-b6b0-07c5ac3da4de"
      },
      "effectivePeriod": {
        "start": "2026-11-02T11:00:00.000+00:00"
      }
    },
    "request": {
      "method": "PUT",
      "url": "MedicationAdministration/e088893b-281c-4fc5-819f-fc95a0e8ca0a"
    }
  }, {
    "fullUrl": "https://madie.cms.gov/Procedure/abcd4f11-6d8b-4dad-9220-aa601920655b",
    "resource": {
      "resourceType": "Procedure",
      "id": "abcd4f11-6d8b-4dad-9220-aa601920655b",
      "meta": {
        "profile": [ "http://hl7.org/fhir/us/qicore/StructureDefinition/qicore-procedure" ]
      },
      "extension": [ {
        "url": "http://hl7.org/fhir/us/qicore/StructureDefinition/qicore-recorded",
        "valueDateTime": "2013-11-02T13:35:00.000+00:00"
      } ],
      "status": "completed",
      "code": {
        "coding": [ {
          "system": "http://snomed.info/sct",
          "code": "18946005"
        } ]
      },
      "subject": {
        "reference": "Patient/7520f4b4-3bde-465e-b6b0-07c5ac3da4de"
      },
      "performedPeriod": {
        "start": "2026-11-02T09:00:00.000+00:00",
        "end": "2026-11-02T09:15:00.000+00:00"
      }
    },
    "request": {
      "method": "PUT",
      "url": "Procedure/abcd4f11-6d8b-4dad-9220-aa601920655b"
    }
  }, {
    "fullUrl": "https://madie.cms.gov/ServiceRequest/e32a15fa-8801-48cf-8143-019568ce396a",
    "resource": {
      "resourceType": "ServiceRequest",
      "id": "e32a15fa-8801-48cf-8143-019568ce396a",
      "meta": {
        "profile": [ "http://hl7.org/fhir/us/qicore/StructureDefinition/qicore-servicenotrequested" ]
      },
      "extension": [ {
        "url": "http://hl7.org/fhir/us/qicore/StructureDefinition/qicore-doNotPerformReason",
        "valueCodeableConcept": {
          "coding": [ {
            "system": "http://snomed.info/sct",
            "code": "183932001",
            "display": "Procedure contraindicated (situation)"
          } ]
        }
      } ],
      "status": "completed",
      "intent": "order",
      "doNotPerform": true,
      "code": {
        "coding": [ {
          "system": "http://snomed.info/sct",
          "version": "2025-03",
          "code": "428411000124104",
          "display": "Intermittent pneumatic compression boot (physical object)",
          "userSelected": true
        } ]
      },
      "subject": {
        "reference": "Patient/7520f4b4-3bde-465e-b6b0-07c5ac3da4de"
      },
      "authoredOn": "2026-11-02T10:00:00.000+00:00"
    },
    "request": {
      "method": "PUT",
      "url": "ServiceRequest/e32a15fa-8801-48cf-8143-019568ce396a"
    }
  }, {
    "fullUrl": "https://madie.cms.gov/Organization/1138d19c-6a8c-47bd-ab80-6cff3f156ebd",
    "resource": {
      "resourceType": "Organization",
      "id": "1138d19c-6a8c-47bd-ab80-6cff3f156ebd",
      "meta": {
        "profile": [ "http://hl7.org/fhir/us/qicore/StructureDefinition/qicore-organization" ]
      },
      "identifier": [ {
        "use": "temp",
        "system": "urn:oid:2.16.840.1.113883.4.4",
        "value": "21-3259825"
      } ],
      "active": true,
      "type": [ {
        "coding": [ {
          "system": "http://terminology.hl7.org/CodeSystem/organization-type",
          "code": "pay",
          "display": "Payer"
        } ]
      } ],
      "name": "Blue Cross Blue Shield of Texas",
      "telecom": [ {
        "system": "phone",
        "value": "(+1) 972-766-6900"
      } ],
      "address": [ {
        "use": "billing",
        "type": "postal",
        "line": [ "P.O. Box 660044" ],
        "city": "Dallas",
        "state": "TX",
        "postalCode": "75266-0044",
        "country": "USA"
      } ]
    },
    "request": {
      "method": "PUT",
      "url": "Organization/1138d19c-6a8c-47bd-ab80-6cff3f156ebd"
    }
  }, {
    "fullUrl": "https://madie.cms.gov/Practitioner/c5a3edbd-b443-44b9-8fa7-548d39527e63",
    "resource": {
      "resourceType": "Practitioner",
      "id": "c5a3edbd-b443-44b9-8fa7-548d39527e63",
      "identifier": [ {
        "system": "http://hl7.org/fhir/sid/us-npi",
        "value": "123456"
      } ],
      "name": [ {
        "family": "Evil",
        "prefix": [ "Dr" ]
      } ]
    },
    "request": {
      "method": "PUT",
      "url": "Practitioner/c5a3edbd-b443-44b9-8fa7-548d39527e63"
    }
  }, {
    "fullUrl": "https://madie.cms.gov/MeasureReport/1ddc5c54-4d45-4c5d-9fd3-a2b520e20387",
    "resource": {
      "resourceType": "MeasureReport",
      "id": "1ddc5c54-4d45-4c5d-9fd3-a2b520e20387",
      "meta": {
        "profile": [ "http://hl7.org/fhir/us/cqfmeasures/StructureDefinition/test-case-cqfm" ]
      },
      "contained": [ {
        "resourceType": "Parameters",
        "id": "73c3d8c6-f284-4962-a9a3-d5023eefe123-parameters",
        "parameter": [ {
          "name": "subject",
          "valueString": "7520f4b4-3bde-465e-b6b0-07c5ac3da4de"
        } ]
      } ],
      "extension": [ {
        "url": "http://hl7.org/fhir/StructureDefinition/cqf-inputParameters",
        "valueReference": {
          "reference": "#73c3d8c6-f284-4962-a9a3-d5023eefe123-parameters"
        }
      }, {
        "url": "http://hl7.org/fhir/us/cqfmeasures/StructureDefinition/cqfm-testCaseDescription",
        "valueMarkdown": "IPC not ordered and warfarin not administered due to medical reason <= 1 day after end of anesthesia\n"
      } ],
      "modifierExtension": [ {
        "url": "http://hl7.org/fhir/us/cqfmeasures/StructureDefinition/cqfm-isTestCase",
        "valueBoolean": true
      } ],
      "status": "complete",
      "type": "individual",
      "measure": "https://madie.cms.gov/Measure/CMS108FHIRVTEProphylaxis",
      "period": {
        "start": "2026-01-01",
        "end": "2026-12-31"
      },
      "group": [ {
        "id": "Group_1",
        "population": [ {
          "id": "InitialPopulation_1",
          "code": {
            "coding": [ {
              "system": "http://terminology.hl7.org/CodeSystem/measure-population",
              "code": "initial-population",
              "display": "Initial Population"
            } ]
          },
          "count": 1
        }, {
          "id": "Denominator_1",
          "code": {
            "coding": [ {
              "system": "http://terminology.hl7.org/CodeSystem/measure-population",
              "code": "denominator",
              "display": "Denominator"
            } ]
          },
          "count": 1
        }, {
          "id": "DenominatorExclusion_1",
          "code": {
            "coding": [ {
              "system": "http://terminology.hl7.org/CodeSystem/measure-population",
              "code": "denominator-exclusion",
              "display": "Denominator Exclusion"
            } ]
          },
          "count": 0
        }, {
          "id": "Numerator_1",
          "code": {
            "coding": [ {
              "system": "http://terminology.hl7.org/CodeSystem/measure-population",
              "code": "numerator",
              "display": "Numerator"
            } ]
          },
          "count": 1
        } ],
        "measureScore": {
          "value": 0.0
        }
      } ],
      "evaluatedResource": [ {
        "reference": "Patient/7520f4b4-3bde-465e-b6b0-07c5ac3da4de"
      }, {
        "reference": "Encounter/61dc98d9-ca6f-4dbf-b8b4-905c4db8c371"
      }, {
        "reference": "Coverage/04bf339d-941c-4940-b986-0f45d8f09f03"
      }, {
        "reference": "MedicationAdministration/e088893b-281c-4fc5-819f-fc95a0e8ca0a"
      }, {
        "reference": "Procedure/abcd4f11-6d8b-4dad-9220-aa601920655b"
      }, {
        "reference": "ServiceRequest/e32a15fa-8801-48cf-8143-019568ce396a"
      }, {
        "reference": "Organization/1138d19c-6a8c-47bd-ab80-6cff3f156ebd"
      }, {
        "reference": "Practitioner/c5a3edbd-b443-44b9-8fa7-548d39527e63"
      } ]
    },
    "request": {
      "method": "PUT",
      "url": "MeasureReport/1ddc5c54-4d45-4c5d-9fd3-a2b520e20387"
    }
  } ]
}