{
  "resourceType": "Bundle",
  "id": "98116841646686466847",
  "type": "transaction",
  "entry": [ {
    "fullUrl": "https://madie.cms.gov/Patient/b0477f12-22e7-4717-9c67-879cd8336308",
    "resource": {
      "resourceType": "Patient",
      "id": "b0477f12-22e7-4717-9c67-879cd8336308",
      "meta": {
        "profile": [ "http://hl7.org/fhir/us/qicore/StructureDefinition/qicore-patient" ]
      },
      "extension": [ {
        "url": "http://hl7.org/fhir/us/core/StructureDefinition/us-core-race",
        "extension": [ {
          "url": "ombCategory",
          "valueCoding": {
            "system": "urn:oid:2.16.840.1.113883.6.238",
            "code": "2106-3",
            "display": "White"
          }
        }, {
          "url": "text",
          "valueString": "White"
        } ]
      }, {
        "url": "http://hl7.org/fhir/us/core/StructureDefinition/us-core-ethnicity",
        "extension": [ {
          "url": "ombCategory",
          "valueCoding": {
            "system": "urn:oid:2.16.840.1.113883.6.238",
            "code": "2186-5",
            "display": "Not Hispanic or Latino"
          }
        }, {
          "url": "text",
          "valueString": "Not Hispanic or Latino"
        } ]
      } ],
      "identifier": [ {
        "type": {
          "coding": [ {
            "system": "http://terminology.hl7.org/CodeSystem/v2-0203",
            "code": "MR"
          } ]
        },
        "system": "https://bonnie-fhir.healthit.gov/",
        "value": "6546841651641616513421"
      } ],
      "name": [ {
        "family": "DENEXPopStrat1Pass",
        "given": [ "PallCareDXDuringMP" ]
      } ],
      "gender": "female",
      "birthDate": "2011-01-01"
    },
    "request": {
      "method": "PUT",
      "url": "Patient/b0477f12-22e7-4717-9c67-879cd8336308"
    }
  }, {
    "fullUrl": "https://madie.cms.gov/Encounter/9444ce5b-e1d4-4f07-bf0b-dcb033fc448e",
    "resource": {
      "resourceType": "Encounter",
      "id": "9444ce5b-e1d4-4f07-bf0b-dcb033fc448e",
      "meta": {
        "profile": [ "http://hl7.org/fhir/us/qicore/StructureDefinition/qicore-encounter" ]
      },
      "status": "finished",
      "class": {
        "system": "http://terminology.hl7.org/CodeSystem/v3-ActCode",
        "code": "AMB",
        "display": "ambulatory"
      },
      "type": [ {
        "coding": [ {
          "system": "http://www.ama-assn.org/go/cpt",
          "version": "2024",
          "code": "90791"
        } ]
      } ],
      "subject": {
        "reference": "Patient/b0477f12-22e7-4717-9c67-879cd8336308"
      },
      "period": {
        "start": "2025-02-25T14:30:00+00:00",
        "end": "2025-02-25T14:50:00+00:00"
      },
      "length": {
        "value": 0,
        "unit": "days"
      }
    },
    "request": {
      "method": "PUT",
      "url": "Encounter/9444ce5b-e1d4-4f07-bf0b-dcb033fc448e"
    }
  }, {
    "fullUrl": "https://madie.cms.gov/Observation/120b216f-0ebc-49b7-831f-16b3190f4034",
    "resource": {
      "resourceType": "Observation",
      "id": "120b216f-0ebc-49b7-831f-16b3190f4034",
      "meta": {
        "profile": [ "http://hl7.org/fhir/us/qicore/StructureDefinition/qicore-observation-screening-assessment" ]
      },
      "status": "final",
      "category": [ {
        "coding": [ {
          "system": "http://terminology.hl7.org/CodeSystem/observation-category",
          "code": "survey",
          "display": "Survey"
        } ]
      } ],
      "code": {
        "coding": [ {
          "system": "http://loinc.org",
          "version": "2.76",
          "code": "44261-6"
        } ]
      },
      "subject": {
        "reference": "Patient/b0477f12-22e7-4717-9c67-879cd8336308"
      },
      "effectiveDateTime": "2025-02-25T14:35:00+00:00",
      "valueInteger": 10
    },
    "request": {
      "method": "PUT",
      "url": "Observation/120b216f-0ebc-49b7-831f-16b3190f4034"
    }
  }, {
    "fullUrl": "https://madie.cms.gov/Observation/2b76a974-cfa5-4d19-9037-bf53269d064e",
    "resource": {
      "resourceType": "Observation",
      "id": "2b76a974-cfa5-4d19-9037-bf53269d064e",
      "meta": {
        "profile": [ "http://hl7.org/fhir/us/qicore/StructureDefinition/qicore-observation-screening-assessment" ]
      },
      "status": "final",
      "category": [ {
        "coding": [ {
          "system": "http://terminology.hl7.org/CodeSystem/observation-category",
          "code": "survey",
          "display": "Survey"
        } ]
      } ],
      "code": {
        "coding": [ {
          "system": "http://loinc.org",
          "version": "2.76",
          "code": "44261-6"
        } ]
      },
      "subject": {
        "reference": "Patient/b0477f12-22e7-4717-9c67-879cd8336308"
      },
      "effectiveDateTime": "2025-02-19T14:30:00+00:00",
      "valueInteger": 3
    },
    "request": {
      "method": "PUT",
      "url": "Observation/2b76a974-cfa5-4d19-9037-bf53269d064e"
    }
  }, {
    "fullUrl": "https://madie.cms.gov/Condition/73661914-135c-4d13-b0ba-c859bc3e626d",
    "resource": {
      "resourceType": "Condition",
      "id": "73661914-135c-4d13-b0ba-c859bc3e626d",
      "meta": {
        "profile": [ "http://hl7.org/fhir/us/qicore/StructureDefinition/qicore-condition-problems-health-concerns" ]
      },
      "clinicalStatus": {
        "coding": [ {
          "system": "http://terminology.hl7.org/CodeSystem/condition-clinical",
          "code": "active",
          "display": "active"
        } ]
      },
      "verificationStatus": {
        "coding": [ {
          "system": "http://terminology.hl7.org/CodeSystem/condition-ver-status",
          "code": "confirmed"
        } ]
      },
      "category": [ {
        "coding": [ {
          "system": "http://terminology.hl7.org/CodeSystem/condition-category",
          "code": "problem-list-item",
          "display": "Problem List Item"
        } ]
      } ],
      "code": {
        "coding": [ {
          "system": "http://hl7.org/fhir/sid/icd-10-cm",
          "version": "2024",
          "code": "F32.9"
        } ]
      },
      "subject": {
        "reference": "Patient/b0477f12-22e7-4717-9c67-879cd8336308"
      },
      "onsetDateTime": "2025-02-25T14:35:00+00:00"
    },
    "request": {
      "method": "PUT",
      "url": "Condition/73661914-135c-4d13-b0ba-c859bc3e626d"
    }
  }, {
    "fullUrl": "https://madie.cms.gov/Condition/95103b48-cec2-4476-a14f-cec92ab48692",
    "resource": {
      "resourceType": "Condition",
      "id": "95103b48-cec2-4476-a14f-cec92ab48692",
      "meta": {
        "profile": [ "http://hl7.org/fhir/us/qicore/StructureDefinition/qicore-condition-problems-health-concerns" ]
      },
      "clinicalStatus": {
        "coding": [ {
          "system": "http://terminology.hl7.org/CodeSystem/condition-clinical",
          "code": "active",
          "display": "active"
        } ]
      },
      "verificationStatus": {
        "coding": [ {
          "system": "http://terminology.hl7.org/CodeSystem/condition-ver-status",
          "code": "confirmed"
        } ]
      },
      "category": [ {
        "coding": [ {
          "system": "http://terminology.hl7.org/CodeSystem/condition-category",
          "code": "problem-list-item",
          "display": "Problem List Item"
        } ]
      } ],
      "code": {
        "coding": [ {
          "system": "http://hl7.org/fhir/sid/icd-10-cm",
          "version": "2024",
          "code": "Z51.5"
        } ]
      },
      "subject": {
        "reference": "Patient/b0477f12-22e7-4717-9c67-879cd8336308"
      },
      "onsetDateTime": "2026-01-25T14:35:00+00:00"
    },
    "request": {
      "method": "PUT",
      "url": "Condition/95103b48-cec2-4476-a14f-cec92ab48692"
    }
  }, {
    "fullUrl": "https://madie.cms.gov/MeasureReport/7005e9fb-dcf0-4e22-8373-2c9ae8e8d50d",
    "resource": {
      "resourceType": "MeasureReport",
      "id": "7005e9fb-dcf0-4e22-8373-2c9ae8e8d50d",
      "meta": {
        "profile": [ "http://hl7.org/fhir/us/cqfmeasures/StructureDefinition/test-case-cqfm" ]
      },
      "contained": [ {
        "resourceType": "Parameters",
        "id": "ae378a61-d8d3-4942-bfd7-f3362e00a7da-parameters",
        "parameter": [ {
          "name": "subject",
          "valueString": "b0477f12-22e7-4717-9c67-879cd8336308"
        } ]
      } ],
      "extension": [ {
        "url": "http://hl7.org/fhir/StructureDefinition/cqf-inputParameters",
        "valueReference": {
          "reference": "#ae378a61-d8d3-4942-bfd7-f3362e00a7da-parameters"
        }
      }, {
        "url": "http://hl7.org/fhir/us/cqfmeasures/StructureDefinition/cqfm-testCaseDescription",
        "valueMarkdown": "Patient is 15 years old and has a Major Depressive Dx and PHQ-9>9 during the denom ID period. Patient has palliative care DX before end of MAP Should be in denominator exclusion for Strat 1. "
      } ],
      "modifierExtension": [ {
        "url": "http://hl7.org/fhir/us/cqfmeasures/StructureDefinition/cqfm-isTestCase",
        "valueBoolean": true
      } ],
      "status": "complete",
      "type": "individual",
      "measure": "https://madie.cms.gov/Measure/CMS159FHIRDepressionRemissionatTwelveMonths",
      "period": {
        "start": "2026-01-01",
        "end": "2026-12-31"
      },
      "group": [ {
        "id": "Group_1",
        "population": [ {
          "id": "InitialPopulation_1",
          "code": {
            "coding": [ {
              "system": "http://terminology.hl7.org/CodeSystem/measure-population",
              "code": "initial-population",
              "display": "Initial Population"
            } ]
          },
          "count": 1
        }, {
          "id": "Denominator_1",
          "code": {
            "coding": [ {
              "system": "http://terminology.hl7.org/CodeSystem/measure-population",
              "code": "denominator",
              "display": "Denominator"
            } ]
          },
          "count": 1
        }, {
          "id": "DenominatorExclusion_1",
          "code": {
            "coding": [ {
              "system": "http://terminology.hl7.org/CodeSystem/measure-population",
              "code": "denominator-exclusion",
              "display": "Denominator Exclusion"
            } ]
          },
          "count": 1
        }, {
          "id": "Numerator_1",
          "code": {
            "coding": [ {
              "system": "http://terminology.hl7.org/CodeSystem/measure-population",
              "code": "numerator",
              "display": "Numerator"
            } ]
          },
          "count": 0
        } ],
        "measureScore": {
          "value": 1.0
        }
      } ],
      "evaluatedResource": [ {
        "reference": "Patient/b0477f12-22e7-4717-9c67-879cd8336308"
      }, {
        "reference": "Encounter/9444ce5b-e1d4-4f07-bf0b-dcb033fc448e"
      }, {
        "reference": "Observation/120b216f-0ebc-49b7-831f-16b3190f4034"
      }, {
        "reference": "Observation/2b76a974-cfa5-4d19-9037-bf53269d064e"
      }, {
        "reference": "Condition/73661914-135c-4d13-b0ba-c859bc3e626d"
      }, {
        "reference": "Condition/95103b48-cec2-4476-a14f-cec92ab48692"
      } ]
    },
    "request": {
      "method": "PUT",
      "url": "MeasureReport/7005e9fb-dcf0-4e22-8373-2c9ae8e8d50d"
    }
  } ]
}