{
  "resourceType": "Bundle",
  "id": "6129134d02c62a011f2e7130",
  "type": "transaction",
  "entry": [ {
    "fullUrl": "https://madie.cms.gov/Patient/52a258e1-0a79-4bb7-8f50-1aa519aa4e00",
    "resource": {
      "resourceType": "Patient",
      "id": "52a258e1-0a79-4bb7-8f50-1aa519aa4e00",
      "meta": {
        "profile": [ "http://hl7.org/fhir/us/qicore/StructureDefinition/qicore-patient" ]
      },
      "text": {
        "status": "generated",
        "div": "<div xmlns=\"http://www.w3.org/1999/xhtml\"><div class=\"hapiHeaderText\">CMOdurED_ED&lt;1hrObs&lt;1hrBFEnc <b>DENEXPASS </b></div><table class=\"hapiPropertyTable\"><tbody><tr><td>Identifier</td><td>9f33229f87c10a35f78ce016aca297879ccda928800ebb32cb3005131188e0c3</td></tr><tr><td>Date of birth</td><td><span>21 August 1994</span></td></tr></tbody></table></div>"
      },
      "extension": [ {
        "url": "http://hl7.org/fhir/us/core/StructureDefinition/us-core-race",
        "extension": [ {
          "url": "ombCategory",
          "valueCoding": {
            "system": "urn:oid:2.16.840.1.113883.6.238",
            "code": "1002-5",
            "display": "American Indian or Alaska Native",
            "userSelected": true
          }
        }, {
          "url": "text",
          "valueString": "American Indian or Alaska Native"
        } ]
      }, {
        "url": "http://hl7.org/fhir/us/core/StructureDefinition/us-core-ethnicity",
        "extension": [ {
          "url": "ombCategory",
          "valueCoding": {
            "system": "urn:oid:2.16.840.1.113883.6.238",
            "code": "2135-2",
            "display": "Hispanic or Latino",
            "userSelected": true
          }
        }, {
          "url": "text",
          "valueString": "Hispanic or Latino"
        } ]
      } ],
      "identifier": [ {
        "type": {
          "coding": [ {
            "system": "http://terminology.hl7.org/CodeSystem/v2-0203",
            "code": "MR"
          } ]
        },
        "system": "https://bonnie-fhir.healthit.gov/",
        "value": "6129134d02c62a011f2e7130"
      } ],
      "active": true,
      "name": [ {
        "use": "usual",
        "family": "DENEXPass",
        "given": [ "CMOdurED_ED<1hrObs<1hrBFEnc" ]
      } ],
      "gender": "male",
      "birthDate": "1995-08-21"
    },
    "request": {
      "method": "PUT",
      "url": "Patient/52a258e1-0a79-4bb7-8f50-1aa519aa4e00"
    }
  }, {
    "fullUrl": "https://madie.cms.gov/Encounter/dd5820b8-1ac8-4f52-b5a7-5707e2ae54e4",
    "resource": {
      "resourceType": "Encounter",
      "id": "dd5820b8-1ac8-4f52-b5a7-5707e2ae54e4",
      "meta": {
        "profile": [ "http://hl7.org/fhir/us/qicore/StructureDefinition/qicore-encounter" ]
      },
      "status": "finished",
      "class": {
        "system": "http://terminology.hl7.org/CodeSystem/v3-ActCode",
        "code": "EMER",
        "display": "emergency",
        "userSelected": true
      },
      "type": [ {
        "coding": [ {
          "system": "http://snomed.info/sct",
          "code": "4525004"
        } ]
      } ],
      "subject": {
        "reference": "Patient/52a258e1-0a79-4bb7-8f50-1aa519aa4e00"
      },
      "period": {
        "start": "2026-10-10T09:30:00+00:00",
        "end": "2026-10-10T10:30:00.000+00:00"
      },
      "length": {
        "value": 0,
        "unit": "days"
      }
    },
    "request": {
      "method": "PUT",
      "url": "Encounter/dd5820b8-1ac8-4f52-b5a7-5707e2ae54e4"
    }
  }, {
    "fullUrl": "https://madie.cms.gov/Encounter/1b9a4628-9790-4152-9bda-7c6c5e0fa9fa",
    "resource": {
      "resourceType": "Encounter",
      "id": "1b9a4628-9790-4152-9bda-7c6c5e0fa9fa",
      "meta": {
        "profile": [ "http://hl7.org/fhir/us/qicore/StructureDefinition/qicore-encounter" ]
      },
      "status": "finished",
      "class": {
        "system": "http://terminology.hl7.org/CodeSystem/v3-ActCode",
        "code": "OBSENC",
        "display": "observation encounter",
        "userSelected": true
      },
      "type": [ {
        "coding": [ {
          "system": "http://snomed.info/sct",
          "code": "448851000124103"
        } ]
      } ],
      "subject": {
        "reference": "Patient/52a258e1-0a79-4bb7-8f50-1aa519aa4e00"
      },
      "period": {
        "start": "2026-10-10T10:31:00+00:00",
        "end": "2026-10-10T10:35:00.000+00:00"
      },
      "length": {
        "value": 0,
        "unit": "days"
      }
    },
    "request": {
      "method": "PUT",
      "url": "Encounter/1b9a4628-9790-4152-9bda-7c6c5e0fa9fa"
    }
  }, {
    "fullUrl": "https://madie.cms.gov/Encounter/1953de9a-9e3c-445d-954e-a50c619de10a",
    "resource": {
      "resourceType": "Encounter",
      "id": "1953de9a-9e3c-445d-954e-a50c619de10a",
      "meta": {
        "profile": [ "http://hl7.org/fhir/us/qicore/StructureDefinition/qicore-encounter" ]
      },
      "status": "finished",
      "class": {
        "system": "http://terminology.hl7.org/CodeSystem/v3-ActCode",
        "code": "IMP",
        "display": "inpatient encounter",
        "userSelected": true
      },
      "type": [ {
        "coding": [ {
          "system": "http://snomed.info/sct",
          "code": "32485007"
        } ]
      } ],
      "subject": {
        "reference": "Patient/52a258e1-0a79-4bb7-8f50-1aa519aa4e00"
      },
      "period": {
        "start": "2026-10-10T10:36:00+00:00",
        "end": "2026-10-12T11:30:00.000+00:00"
      },
      "length": {
        "value": 2,
        "unit": "days"
      },
      "diagnosis": [ {
        "condition": {
          "reference": "Condition/6572ef6b-5e23-477f-9094-39e455283ba7"
        },
        "use": {
          "coding": [ {
            "system": "http://terminology.hl7.org/CodeSystem/diagnosis-role",
            "code": "billing",
            "display": "Billing"
          } ]
        },
        "rank": 1
      } ]
    },
    "request": {
      "method": "PUT",
      "url": "Encounter/1953de9a-9e3c-445d-954e-a50c619de10a"
    }
  }, {
    "fullUrl": "https://madie.cms.gov/claim/5ca62962b8484628b8de1ec5",
    "resource": {
      "resourceType": "Claim",
      "id": "5ca62962b8484628b8de1ec5",
      "meta": {
        "profile": [ "http://hl7.org/fhir/us/qicore/StructureDefinition/qicore-claim" ]
      },
      "status": "active",
      "type": {
        "coding": [ {
          "system": "http://terminology.hl7.org/CodeSystem/claim-type",
          "code": "institutional"
        } ]
      },
      "use": "claim",
      "patient": {
        "reference": "Patient/d170a0a8-b5ad-4303-b6df-e304dd5f92ad"
      },
      "created": "2026-12-01",
      "provider": {
        "reference": "Practitioner/practitioner-123456"
      },
      "priority": {
        "coding": [ {
          "system": "http://terminology.hl7.org/CodeSystem/processpriority",
          "code": "normal"
        } ]
      },
      "diagnosis": [ {
        "sequence": 1,
        "diagnosisCodeableConcept": {
          "coding": [ {
            "system": "http://hl7.org/fhir/sid/icd-10-cm",
            "code": "I63.00"
          } ]
        },
        "type": [ {
          "coding": [ {
            "system": "http://terminology.hl7.org/CodeSystem/ex-diagnosistype",
            "code": "principal"
          } ]
        } ]
      } ],
      "insurance": [ {
        "sequence": 1,
        "focal": true,
        "coverage": {
          "reference": "Coverage/5fa041661c76ba66d9959367"
        }
      } ],
      "item": [ {
        "sequence": 1,
        "diagnosisSequence": [ 1 ],
        "productOrService": {
          "coding": [ {
            "system": "http://terminology.hl7.org/CodeSystem/ex-USCLS",
            "code": "99555"
          } ]
        },
        "encounter": [ {
          "reference": "Encounter/1953de9a-9e3c-445d-954e-a50c619de10a"
        } ]
      } ]
    },
    "request": {
      "method": "PUT",
      "url": "Claim/5ca62962b8484628b8de1ec5"
    }
  }, {
    "fullUrl": "https://madie.cms.gov/ServiceRequest/d8e92c6f-fa96-455f-94cc-22586f065bc1",
    "resource": {
      "resourceType": "ServiceRequest",
      "id": "d8e92c6f-fa96-455f-94cc-22586f065bc1",
      "meta": {
        "profile": [ "http://hl7.org/fhir/us/qicore/StructureDefinition/qicore-servicerequest" ]
      },
      "status": "active",
      "intent": "order",
      "code": {
        "coding": [ {
          "system": "http://snomed.info/sct",
          "code": "133918004"
        } ]
      },
      "subject": {
        "reference": "Patient/52a258e1-0a79-4bb7-8f50-1aa519aa4e00"
      },
      "authoredOn": "2026-10-10T09:30:00+00:00"
    },
    "request": {
      "method": "PUT",
      "url": "ServiceRequest/d8e92c6f-fa96-455f-94cc-22586f065bc1"
    }
  }, {
    "fullUrl": "https://madie.cms.gov/Condition/6572ef6b-5e23-477f-9094-39e455283ba7",
    "resource": {
      "resourceType": "Condition",
      "id": "6572ef6b-5e23-477f-9094-39e455283ba7",
      "meta": {
        "profile": [ "http://hl7.org/fhir/us/qicore/StructureDefinition/qicore-condition" ]
      },
      "clinicalStatus": {
        "coding": [ {
          "system": "http://terminology.hl7.org/CodeSystem/condition-clinical",
          "code": "active"
        } ]
      },
      "verificationStatus": {
        "coding": [ {
          "system": "http://terminology.hl7.org/CodeSystem/condition-ver-status",
          "code": "confirmed"
        } ]
      },
      "category": [ {
        "coding": [ {
          "system": "http://terminology.hl7.org/CodeSystem/condition-category",
          "code": "encounter-diagnosis",
          "display": "Encounter Diagnosis"
        } ]
      } ],
      "code": {
        "coding": [ {
          "system": "http://snomed.info/sct",
          "version": "2020-09",
          "code": "111297002",
          "display": "Nonparalytic stroke (disorder)",
          "userSelected": true
        } ]
      },
      "subject": {
        "reference": "Patient/52a258e1-0a79-4bb7-8f50-1aa519aa4e00"
      },
      "recordedDate": "2026-07-14T08:00:00+00:00"
    },
    "request": {
      "method": "PUT",
      "url": "Condition/6572ef6b-5e23-477f-9094-39e455283ba7"
    }
  }, {
    "fullUrl": "https://madie.cms.gov/Coverage/e17fbdc2-1ddb-4706-a012-98088e717a31",
    "resource": {
      "resourceType": "Coverage",
      "id": "e17fbdc2-1ddb-4706-a012-98088e717a31",
      "meta": {
        "profile": [ "http://hl7.org/fhir/us/qicore/StructureDefinition/qicore-coverage" ]
      },
      "status": "active",
      "beneficiary": {
        "reference": "Patient/52a258e1-0a79-4bb7-8f50-1aa519aa4e00"
      },
      "payor": [ {
        "reference": "Organization/f44b9ab2-5b86-4dc7-9938-9bee97e148b7"
      } ]
    },
    "request": {
      "method": "PUT",
      "url": "Coverage/e17fbdc2-1ddb-4706-a012-98088e717a31"
    }
  }, {
    "fullUrl": "https://madie.cms.gov/Organization/f44b9ab2-5b86-4dc7-9938-9bee97e148b7",
    "resource": {
      "resourceType": "Organization",
      "id": "f44b9ab2-5b86-4dc7-9938-9bee97e148b7",
      "meta": {
        "profile": [ "http://hl7.org/fhir/us/qicore/StructureDefinition/qicore-organization" ]
      },
      "identifier": [ {
        "use": "temp",
        "system": "urn:oid:2.16.840.1.113883.4.4",
        "value": "21-3259825"
      } ],
      "active": true,
      "type": [ {
        "coding": [ {
          "system": "http://terminology.hl7.org/CodeSystem/organization-type",
          "code": "pay",
          "display": "Payer"
        } ]
      } ],
      "name": "Blue Cross Blue Shield of Texas",
      "telecom": [ {
        "system": "phone",
        "value": "(+1) 972-766-6900"
      } ],
      "address": [ {
        "use": "billing",
        "type": "postal",
        "line": [ "P.O. Box 660044" ],
        "city": "Dallas",
        "state": "TX",
        "postalCode": "75266-0044",
        "country": "USA"
      } ]
    },
    "request": {
      "method": "PUT",
      "url": "Organization/f44b9ab2-5b86-4dc7-9938-9bee97e148b7"
    }
  }, {
    "fullUrl": "https://madie.cms.gov/MeasureReport/b0c9310d-e1e4-449b-ba08-7daed43503b7",
    "resource": {
      "resourceType": "MeasureReport",
      "id": "b0c9310d-e1e4-449b-ba08-7daed43503b7",
      "meta": {
        "profile": [ "http://hl7.org/fhir/us/cqfmeasures/StructureDefinition/test-case-cqfm" ]
      },
      "contained": [ {
        "resourceType": "Parameters",
        "id": "5220eb8c-04b3-4258-95ae-b73b39af8d76-parameters",
        "parameter": [ {
          "name": "subject",
          "valueString": "52a258e1-0a79-4bb7-8f50-1aa519aa4e00"
        } ]
      } ],
      "extension": [ {
        "url": "http://hl7.org/fhir/StructureDefinition/cqf-inputParameters",
        "valueReference": {
          "reference": "#5220eb8c-04b3-4258-95ae-b73b39af8d76-parameters"
        }
      }, {
        "url": "http://hl7.org/fhir/us/cqfmeasures/StructureDefinition/cqfm-testCaseDescription",
        "valueMarkdown": "Patient receives CMO during ED. ED ends 1 minute before Observation. Obs ends 1 min before IP start. Testing day of operator with HospitalizationWithObservation function."
      } ],
      "modifierExtension": [ {
        "url": "http://hl7.org/fhir/us/cqfmeasures/StructureDefinition/cqfm-isTestCase",
        "valueBoolean": true
      } ],
      "status": "complete",
      "type": "individual",
      "measure": "https://madie.cms.gov/Measure/CMS104FHIRSTKDCAntithrombotic",
      "period": {
        "start": "2026-01-01",
        "end": "2026-12-31"
      },
      "group": [ {
        "id": "Group_1",
        "population": [ {
          "id": "InitialPopulation_1",
          "code": {
            "coding": [ {
              "system": "http://terminology.hl7.org/CodeSystem/measure-population",
              "code": "initial-population",
              "display": "Initial Population"
            } ]
          },
          "count": 1
        }, {
          "id": "Denominator_1",
          "code": {
            "coding": [ {
              "system": "http://terminology.hl7.org/CodeSystem/measure-population",
              "code": "denominator",
              "display": "Denominator"
            } ]
          },
          "count": 1
        }, {
          "id": "DenominatorExclusion_1",
          "code": {
            "coding": [ {
              "system": "http://terminology.hl7.org/CodeSystem/measure-population",
              "code": "denominator-exclusion",
              "display": "Denominator Exclusion"
            } ]
          },
          "count": 1
        }, {
          "id": "Numerator_1",
          "code": {
            "coding": [ {
              "system": "http://terminology.hl7.org/CodeSystem/measure-population",
              "code": "numerator",
              "display": "Numerator"
            } ]
          },
          "count": 0
        }, {
          "id": "DenominatorException_1",
          "code": {
            "coding": [ {
              "system": "http://terminology.hl7.org/CodeSystem/measure-population",
              "code": "denominator-exception",
              "display": "Denominator Exception"
            } ]
          },
          "count": 0
        } ],
        "measureScore": {
          "value": 0.0
        }
      } ],
      "evaluatedResource": [ {
        "reference": "Patient/52a258e1-0a79-4bb7-8f50-1aa519aa4e00"
      }, {
        "reference": "Encounter/dd5820b8-1ac8-4f52-b5a7-5707e2ae54e4"
      }, {
        "reference": "Encounter/1b9a4628-9790-4152-9bda-7c6c5e0fa9fa"
      }, {
        "reference": "Encounter/1953de9a-9e3c-445d-954e-a50c619de10a"
      }, {
        "reference": "Claim/5ca62962b8484628b8de1ec5"
      }, {
        "reference": "ServiceRequest/d8e92c6f-fa96-455f-94cc-22586f065bc1"
      }, {
        "reference": "Condition/6572ef6b-5e23-477f-9094-39e455283ba7"
      }, {
        "reference": "Coverage/e17fbdc2-1ddb-4706-a012-98088e717a31"
      }, {
        "reference": "Organization/f44b9ab2-5b86-4dc7-9938-9bee97e148b7"
      } ]
    },
    "request": {
      "method": "PUT",
      "url": "MeasureReport/b0c9310d-e1e4-449b-ba08-7daed43503b7"
    }
  } ]
}