{
  "resourceType": "Bundle",
  "id": "63487c300968f801225401c9",
  "type": "transaction",
  "entry": [ {
    "fullUrl": "https://madie.cms.gov/Patient/26e9dc17-8899-4ac1-b6d9-98606d331302",
    "resource": {
      "resourceType": "Patient",
      "id": "26e9dc17-8899-4ac1-b6d9-98606d331302",
      "meta": {
        "profile": [ "http://hl7.org/fhir/us/qicore/StructureDefinition/qicore-patient" ]
      },
      "text": {
        "status": "generated",
        "div": "<div xmlns=\"http://www.w3.org/1999/xhtml\"><div class=\"hapiHeaderText\">AssessTimeOfDelivResultAfterDelivEncEnd<b>DENOMFail</b></div><table class=\"hapiPropertyTable\"><tbody><tr><td>Identifier</td><td>71189d70ba3427612f2a418107466ed1652ec9a0e76c1b9c30a1691a1d91b34c</td></tr><tr><td>Date of birth</td><td><span>14 February 1985</span></td></tr></tbody></table></div>"
      },
      "extension": [ {
        "url": "http://hl7.org/fhir/us/core/StructureDefinition/us-core-race",
        "extension": [ {
          "url": "ombCategory",
          "valueCoding": {
            "system": "urn:oid:2.16.840.1.113883.6.238",
            "code": "1002-5",
            "display": "American Indian or Alaska Native",
            "userSelected": true
          }
        }, {
          "url": "text",
          "valueString": "American Indian or Alaska Native"
        } ]
      }, {
        "url": "http://hl7.org/fhir/us/core/StructureDefinition/us-core-ethnicity",
        "extension": [ {
          "url": "ombCategory",
          "valueCoding": {
            "system": "urn:oid:2.16.840.1.113883.6.238",
            "code": "2135-2",
            "display": "Hispanic or Latino",
            "userSelected": true
          }
        }, {
          "url": "text",
          "valueString": "Hispanic or Latino"
        } ]
      } ],
      "identifier": [ {
        "type": {
          "coding": [ {
            "system": "http://terminology.hl7.org/CodeSystem/v2-0203",
            "code": "MR"
          } ]
        },
        "system": "https://bonnie-fhir.healthit.gov/",
        "value": "63487c300968f801225401c9"
      } ],
      "active": true,
      "name": [ {
        "use": "usual",
        "family": "DENOMFail",
        "given": [ "AssessTimeOfDelivResultAfterDelivEncEnd" ]
      } ],
      "gender": "female",
      "birthDate": "1998-02-14"
    },
    "request": {
      "method": "PUT",
      "url": "Patient/26e9dc17-8899-4ac1-b6d9-98606d331302"
    }
  }, {
    "fullUrl": "https://madie.cms.gov/Observation/94781c94-d990-48d1-9152-d4e4dfc7c50b",
    "resource": {
      "resourceType": "Observation",
      "id": "94781c94-d990-48d1-9152-d4e4dfc7c50b",
      "meta": {
        "profile": [ "http://hl7.org/fhir/us/qicore/StructureDefinition/qicore-simple-observation" ]
      },
      "status": "final",
      "category": [ {
        "coding": [ {
          "system": "http://terminology.hl7.org/CodeSystem/observation-category",
          "code": "exam",
          "display": "exam",
          "userSelected": true
        } ]
      } ],
      "code": {
        "coding": [ {
          "system": "http://loinc.org",
          "code": "11996-6"
        } ]
      },
      "subject": {
        "reference": "Patient/26e9dc17-8899-4ac1-b6d9-98606d331302"
      },
      "effectiveDateTime": "2026-03-09T08:00:00.000+00:00",
      "performer": [ {
        "reference": "Organization/example1",
        "display": "Hendricks Country Hospital"
      } ],
      "valueInteger": 1
    },
    "request": {
      "method": "PUT",
      "url": "Observation/94781c94-d990-48d1-9152-d4e4dfc7c50b"
    }
  }, {
    "fullUrl": "https://madie.cms.gov/Observation/ed4c0ba3-35c2-4fad-ab7f-9feee1fdf532",
    "resource": {
      "resourceType": "Observation",
      "id": "ed4c0ba3-35c2-4fad-ab7f-9feee1fdf532",
      "meta": {
        "profile": [ "http://hl7.org/fhir/us/qicore/StructureDefinition/qicore-simple-observation" ]
      },
      "status": "final",
      "category": [ {
        "coding": [ {
          "system": "http://terminology.hl7.org/CodeSystem/observation-category",
          "code": "exam",
          "display": "exam",
          "userSelected": true
        } ]
      } ],
      "code": {
        "coding": [ {
          "system": "http://loinc.org",
          "code": "93857-1"
        } ]
      },
      "subject": {
        "reference": "Patient/26e9dc17-8899-4ac1-b6d9-98606d331302"
      },
      "effectiveDateTime": "2026-11-28T21:30:00.000+00:00",
      "performer": [ {
        "reference": "Organization/example1",
        "display": "Hendricks Country Hospital"
      } ],
      "valueDateTime": "2026-11-30T08:16:00.000+00:00"
    },
    "request": {
      "method": "PUT",
      "url": "Observation/ed4c0ba3-35c2-4fad-ab7f-9feee1fdf532"
    }
  }, {
    "fullUrl": "https://madie.cms.gov/Encounter/29e40a72-934e-4561-8391-4c8bc91c8dcb",
    "resource": {
      "resourceType": "Encounter",
      "id": "29e40a72-934e-4561-8391-4c8bc91c8dcb",
      "meta": {
        "profile": [ "http://hl7.org/fhir/us/qicore/StructureDefinition/qicore-encounter" ]
      },
      "status": "finished",
      "class": {
        "system": "http://terminology.hl7.org/CodeSystem/v3-ActCode",
        "code": "IMP",
        "display": "inpatient encounter"
      },
      "type": [ {
        "coding": [ {
          "system": "http://snomed.info/sct",
          "code": "8715000"
        } ]
      } ],
      "subject": {
        "reference": "Patient/26e9dc17-8899-4ac1-b6d9-98606d331302"
      },
      "period": {
        "start": "2026-11-28T08:00:00.000+00:00",
        "end": "2026-11-30T08:15:00.000+00:00"
      },
      "length": {
        "value": 2,
        "unit": "days"
      },
      "reasonCode": [ {
        "coding": [ {
          "system": "http://snomed.info/sct",
          "code": "169826009",
          "display": "Single live birth from singleton pregnancy (finding)"
        } ]
      } ]
    },
    "request": {
      "method": "PUT",
      "url": "Encounter/29e40a72-934e-4561-8391-4c8bc91c8dcb"
    }
  }, {
    "fullUrl": "https://madie.cms.gov/Procedure/108a80a4-3e48-442e-a32c-d4e46d011c8e",
    "resource": {
      "resourceType": "Procedure",
      "id": "108a80a4-3e48-442e-a32c-d4e46d011c8e",
      "meta": {
        "profile": [ "http://hl7.org/fhir/us/qicore/StructureDefinition/qicore-procedure" ]
      },
      "extension": [ {
        "url": "http://hl7.org/fhir/us/qicore/StructureDefinition/qicore-recorded",
        "valueDateTime": "2014-04-05T13:35:00.000+00:00"
      } ],
      "status": "completed",
      "code": {
        "coding": [ {
          "system": "http://snomed.info/sct",
          "code": "22633006"
        } ]
      },
      "subject": {
        "reference": "Patient/26e9dc17-8899-4ac1-b6d9-98606d331302"
      },
      "performedPeriod": {
        "start": "2026-11-28T20:00:00.000+00:00",
        "end": "2026-11-28T20:15:00.000+00:00"
      }
    },
    "request": {
      "method": "PUT",
      "url": "Procedure/108a80a4-3e48-442e-a32c-d4e46d011c8e"
    }
  }, {
    "fullUrl": "https://madie.cms.gov/Condition/d7e5c479-0dce-4527-a85e-c48471e743c5",
    "resource": {
      "resourceType": "Condition",
      "id": "d7e5c479-0dce-4527-a85e-c48471e743c5",
      "meta": {
        "profile": [ "http://hl7.org/fhir/us/qicore/StructureDefinition/qicore-condition" ]
      },
      "category": [ {
        "coding": [ {
          "system": "http://terminology.hl7.org/CodeSystem/condition-category",
          "code": "encounter-diagnosis",
          "display": "Encounter Diagnosis"
        } ]
      } ],
      "code": {
        "coding": [ {
          "system": "http://snomed.info/sct",
          "version": "2022-09",
          "code": "169826009",
          "display": "Single live birth (finding)",
          "userSelected": true
        } ]
      },
      "subject": {
        "reference": "Patient/26e9dc17-8899-4ac1-b6d9-98606d331302"
      },
      "recordedDate": "2026-10-21T08:00:00.000+00:00"
    },
    "request": {
      "method": "PUT",
      "url": "Condition/d7e5c479-0dce-4527-a85e-c48471e743c5"
    }
  }, {
    "fullUrl": "https://madie.cms.gov/Coverage/25bd4baf-d154-4c60-bcb5-569f63ec9c0c",
    "resource": {
      "resourceType": "Coverage",
      "id": "25bd4baf-d154-4c60-bcb5-569f63ec9c0c",
      "meta": {
        "profile": [ "http://hl7.org/fhir/us/qicore/StructureDefinition/qicore-coverage" ]
      },
      "status": "active",
      "subscriberId": "523435",
      "beneficiary": {
        "reference": "Patient/26e9dc17-8899-4ac1-b6d9-98606d331302"
      },
      "relationship": {
        "coding": [ {
          "system": "http://terminology.hl7.org/CodeSystem/subscriber-relationship",
          "code": "self"
        } ]
      },
      "payor": [ {
        "reference": "Organization/be3bfdbc-c158-413a-9754-f7c05c2741a5"
      } ]
    },
    "request": {
      "method": "PUT",
      "url": "Coverage/25bd4baf-d154-4c60-bcb5-569f63ec9c0c"
    }
  }, {
    "fullUrl": "https://madie.cms.gov/Organization/be3bfdbc-c158-413a-9754-f7c05c2741a5",
    "resource": {
      "resourceType": "Organization",
      "id": "be3bfdbc-c158-413a-9754-f7c05c2741a5",
      "meta": {
        "profile": [ "http://hl7.org/fhir/us/qicore/StructureDefinition/qicore-organization" ]
      },
      "identifier": [ {
        "use": "temp",
        "system": "urn:oid:2.16.840.1.113883.4.4",
        "value": "21-3259825"
      } ],
      "active": true,
      "type": [ {
        "coding": [ {
          "system": "http://terminology.hl7.org/CodeSystem/organization-type",
          "code": "pay",
          "display": "Payer"
        } ]
      } ],
      "name": "Blue Cross Blue Shield of Texas",
      "telecom": [ {
        "system": "phone",
        "value": "(+1) 972-766-6900"
      } ],
      "address": [ {
        "use": "billing",
        "type": "postal",
        "line": [ "P.O. Box 660044" ],
        "city": "Dallas",
        "state": "TX",
        "postalCode": "75266-0044",
        "country": "USA"
      } ]
    },
    "request": {
      "method": "PUT",
      "url": "Organization/be3bfdbc-c158-413a-9754-f7c05c2741a5"
    }
  }, {
    "fullUrl": "https://madie.cms.gov/Practitioner/e8ab487b-9f26-4123-a491-01a3c27424a9",
    "resource": {
      "resourceType": "Practitioner",
      "id": "e8ab487b-9f26-4123-a491-01a3c27424a9",
      "meta": {
        "profile": [ "http://hl7.org/fhir/us/qicore/StructureDefinition/qicore-practitioner" ]
      },
      "identifier": [ {
        "system": "http://hl7.org/fhir/sid/us-npi",
        "value": "123456"
      } ],
      "name": [ {
        "family": "Evil",
        "prefix": [ "Dr" ]
      } ]
    },
    "request": {
      "method": "PUT",
      "url": "Practitioner/e8ab487b-9f26-4123-a491-01a3c27424a9"
    }
  }, {
    "fullUrl": "https://madie.cms.gov/MeasureReport/01e9a85a-7993-4ae0-8dd1-7dc127db14d8",
    "resource": {
      "resourceType": "MeasureReport",
      "id": "01e9a85a-7993-4ae0-8dd1-7dc127db14d8",
      "meta": {
        "profile": [ "http://hl7.org/fhir/us/cqfmeasures/StructureDefinition/test-case-cqfm" ]
      },
      "contained": [ {
        "resourceType": "Parameters",
        "id": "b150b366-e56c-4151-bc56-d7e88e398c9c-parameters",
        "parameter": [ {
          "name": "subject",
          "valueString": "26e9dc17-8899-4ac1-b6d9-98606d331302"
        } ]
      } ],
      "extension": [ {
        "url": "http://hl7.org/fhir/StructureDefinition/cqf-inputParameters",
        "valueReference": {
          "reference": "#b150b366-e56c-4151-bc56-d7e88e398c9c-parameters"
        }
      }, {
        "url": "http://hl7.org/fhir/us/cqfmeasures/StructureDefinition/cqfm-testCaseDescription",
        "valueMarkdown": "Passes IP, Gravida 1(auth 42 weeks)  and EGA 40 weeks;  Proc is not Cesarean Birth. LastTimeOfDelivery result afterDelivery Encounter EndTime.   \n"
      } ],
      "modifierExtension": [ {
        "url": "http://hl7.org/fhir/us/cqfmeasures/StructureDefinition/cqfm-isTestCase",
        "valueBoolean": true
      } ],
      "status": "complete",
      "type": "individual",
      "measure": "https://madie.cms.gov/Measure/CMS0334FHIRPCCesareanBirth",
      "period": {
        "start": "2026-01-01",
        "end": "2026-12-31"
      },
      "group": [ {
        "id": "Group_1",
        "population": [ {
          "id": "InitialPopulation_1",
          "code": {
            "coding": [ {
              "system": "http://terminology.hl7.org/CodeSystem/measure-population",
              "code": "initial-population",
              "display": "Initial Population"
            } ]
          },
          "count": 1
        }, {
          "id": "Denominator_1",
          "code": {
            "coding": [ {
              "system": "http://terminology.hl7.org/CodeSystem/measure-population",
              "code": "denominator",
              "display": "Denominator"
            } ]
          },
          "count": 0
        }, {
          "id": "DenominatorExclusion_1",
          "code": {
            "coding": [ {
              "system": "http://terminology.hl7.org/CodeSystem/measure-population",
              "code": "denominator-exclusion",
              "display": "Denominator Exclusion"
            } ]
          },
          "count": 0
        }, {
          "id": "Numerator_1",
          "code": {
            "coding": [ {
              "system": "http://terminology.hl7.org/CodeSystem/measure-population",
              "code": "numerator",
              "display": "Numerator"
            } ]
          },
          "count": 0
        } ],
        "measureScore": {
          "value": 0.0
        }
      } ],
      "evaluatedResource": [ {
        "reference": "Patient/26e9dc17-8899-4ac1-b6d9-98606d331302"
      }, {
        "reference": "Observation/94781c94-d990-48d1-9152-d4e4dfc7c50b"
      }, {
        "reference": "Observation/ed4c0ba3-35c2-4fad-ab7f-9feee1fdf532"
      }, {
        "reference": "Encounter/29e40a72-934e-4561-8391-4c8bc91c8dcb"
      }, {
        "reference": "Procedure/108a80a4-3e48-442e-a32c-d4e46d011c8e"
      }, {
        "reference": "Condition/d7e5c479-0dce-4527-a85e-c48471e743c5"
      }, {
        "reference": "Coverage/25bd4baf-d154-4c60-bcb5-569f63ec9c0c"
      }, {
        "reference": "Organization/be3bfdbc-c158-413a-9754-f7c05c2741a5"
      }, {
        "reference": "Practitioner/e8ab487b-9f26-4123-a491-01a3c27424a9"
      } ]
    },
    "request": {
      "method": "PUT",
      "url": "MeasureReport/01e9a85a-7993-4ae0-8dd1-7dc127db14d8"
    }
  } ]
}