{"resourceType":"Bundle","id":"tests-8723dbb4-f60f-488a-9da3-f02f04ea03bf-bundle","type":"transaction","entry":[{"fullUrl":"Patient/8723dbb4-f60f-488a-9da3-f02f04ea03bf","resource":{"resourceType":"Patient","id":"8723dbb4-f60f-488a-9da3-f02f04ea03bf","meta":{"profile":["http://hl7.org/fhir/us/qicore/StructureDefinition/qicore-patient"]},"extension":[{"url":"http://hl7.org/fhir/us/core/StructureDefinition/us-core-race","extension":[{"url":"ombCategory","valueCoding":{"system":"urn:oid:2.16.840.1.113883.6.238","code":"2028-9","display":"Asian"}},{"url":"text","valueString":"Asian"}]},{"url":"http://hl7.org/fhir/us/core/StructureDefinition/us-core-sex","valueCode":"248152002"},{"url":"http://hl7.org/fhir/us/core/StructureDefinition/us-core-ethnicity","extension":[{"url":"ombCategory","valueCoding":{"system":"urn:oid:2.16.840.1.113883.6.238","code":"2135-2","display":"Hispanic or Latino"}},{"url":"text","valueString":"Hispanic or Latino"}]}],"identifier":[{"system":"http://hospital.smarthealthit.org","value":"999999995"}],"name":[{"family":"Bertha","given":["Betty"]}],"gender":"female","birthDate":"2002-12-31"},"request":{"method":"PUT","url":"Patient/8723dbb4-f60f-488a-9da3-f02f04ea03bf"}},{"fullUrl":"Encounter/ee5bd1c8-88c9-4689-a4f1-f45f24288e23","resource":{"resourceType":"Encounter","id":"ee5bd1c8-88c9-4689-a4f1-f45f24288e23","meta":{"profile":["http://hl7.org/fhir/us/qicore/StructureDefinition/qicore-encounter"]},"status":"finished","class":{"system":"http://terminology.hl7.org/CodeSystem/v3-ActCode","code":"AMB","display":"ambulatory"},"type":[{"coding":[{"system":"http://snomed.info/sct","code":"32485007","display":"Hospital admission (procedure)"}]}],"subject":{"reference":"Patient/8723dbb4-f60f-488a-9da3-f02f04ea03bf"},"period":{"start":"2025-12-31T23:59:59.000+00:00","end":"2026-01-01T01:00:00.000+00:00"},"hospitalization":{"dischargeDisposition":{"coding":[{"system":"http://snomed.info/sct","code":"428361000124107","display":"Discharge to home for hospice care (procedure)"}]}}},"request":{"method":"PUT","url":"Encounter/ee5bd1c8-88c9-4689-a4f1-f45f24288e23"}},{"fullUrl":"Bundle/DENEXPass-DischargeToHomeInpatient","resource":{"resourceType":"Bundle","id":"DENEXPass-DischargeToHomeInpatient","type":"transaction","entry":[{"fullUrl":"https://madie.cms.gov/Patient/8723dbb4-f60f-488a-9da3-f02f04ea03bf","resource":{"resourceType":"Patient","id":"8723dbb4-f60f-488a-9da3-f02f04ea03bf","meta":{"profile":["http://hl7.org/fhir/us/qicore/StructureDefinition/qicore-patient"]},"extension":[{"url":"http://hl7.org/fhir/us/core/StructureDefinition/us-core-race","extension":[{"url":"ombCategory","valueCoding":{"system":"urn:oid:2.16.840.1.113883.6.238","code":"2028-9","display":"Asian"}},{"url":"text","valueString":"Asian"}]},{"url":"http://hl7.org/fhir/us/core/StructureDefinition/us-core-sex","valueCode":"248152002"},{"url":"http://hl7.org/fhir/us/core/StructureDefinition/us-core-ethnicity","extension":[{"url":"ombCategory","valueCoding":{"system":"urn:oid:2.16.840.1.113883.6.238","code":"2135-2","display":"Hispanic or Latino"}},{"url":"text","valueString":"Hispanic or Latino"}]}],"identifier":[{"system":"http://hospital.smarthealthit.org","value":"999999995"}],"name":[{"family":"Bertha","given":["Betty"]}],"gender":"female","birthDate":"2002-12-31"},"request":{"method":"PUT","url":"Patient/8723dbb4-f60f-488a-9da3-f02f04ea03bf"}},{"fullUrl":"https://madie.cms.gov/Encounter/a555fe57-7361-41a8-a37d-a741074f485d","resource":{"resourceType":"Encounter","id":"a555fe57-7361-41a8-a37d-a741074f485d","meta":{"profile":["http://hl7.org/fhir/us/qicore/StructureDefinition/qicore-encounter"]},"status":"finished","class":{"system":"http://terminology.hl7.org/CodeSystem/v3-ActCode","code":"AMB","display":"ambulatory"},"type":[{"coding":[{"system":"http://snomed.info/sct","code":"185460008","display":"Home visit request by patient (procedure)"}]}],"subject":{"reference":"Patient/8723dbb4-f60f-488a-9da3-f02f04ea03bf"},"period":{"start":"2026-01-01T00:00:00.000+00:00","end":"2026-01-01T01:00:00.000+00:00"}},"request":{"method":"PUT","url":"Encounter/a555fe57-7361-41a8-a37d-a741074f485d"}},{"fullUrl":"https://madie.cms.gov/Encounter/ee5bd1c8-88c9-4689-a4f1-f45f24288e23","resource":{"resourceType":"Encounter","id":"ee5bd1c8-88c9-4689-a4f1-f45f24288e23","meta":{"profile":["http://hl7.org/fhir/us/qicore/StructureDefinition/qicore-encounter"]},"status":"finished","class":{"system":"http://terminology.hl7.org/CodeSystem/v3-ActCode","code":"AMB","display":"ambulatory"},"type":[{"coding":[{"system":"http://snomed.info/sct","code":"32485007","display":"Hospital admission (procedure)"}]}],"subject":{"reference":"Patient/8723dbb4-f60f-488a-9da3-f02f04ea03bf"},"period":{"start":"2025-12-31T23:59:59.000+00:00","end":"2026-01-01T01:00:00.000+00:00"},"hospitalization":{"dischargeDisposition":{"coding":[{"system":"http://snomed.info/sct","code":"428361000124107","display":"Discharge to home for hospice care (procedure)"}]}}},"request":{"method":"PUT","url":"Encounter/ee5bd1c8-88c9-4689-a4f1-f45f24288e23"}},{"fullUrl":"https://madie.cms.gov/MeasureReport/76fad477-814e-483d-8bb3-57c66b1ac443","resource":{"resourceType":"MeasureReport","id":"76fad477-814e-483d-8bb3-57c66b1ac443","meta":{"profile":["http://hl7.org/fhir/us/cqfmeasures/StructureDefinition/test-case-cqfm"]},"contained":[{"resourceType":"Parameters","id":"b8fea1d9-21d3-463d-bffa-b3804fa8b770-parameters","parameter":[{"name":"subject","valueString":"8723dbb4-f60f-488a-9da3-f02f04ea03bf"}]}],"extension":[{"url":"http://hl7.org/fhir/StructureDefinition/cqf-inputParameters","valueReference":{"reference":"#b8fea1d9-21d3-463d-bffa-b3804fa8b770-parameters"}},{"url":"http://hl7.org/fhir/us/cqfmeasures/StructureDefinition/cqfm-testCaseDescription","valueMarkdown":"Hospice Discharge to Home - For meeting 100% coverage"}],"modifierExtension":[{"url":"http://hl7.org/fhir/us/cqfmeasures/StructureDefinition/cqfm-isTestCase","valueBoolean":true}],"status":"complete","type":"individual","measure":"https://madie.cms.gov/Measure/CMS124FHIRCervicalCancerScreening","period":{"start":"2026-01-01","end":"2026-12-31"},"group":[{"id":"Group_1","population":[{"id":"InitialPopulation_1","code":{"coding":[{"system":"http://terminology.hl7.org/CodeSystem/measure-population","code":"initial-population","display":"Initial Population"}]},"count":1},{"id":"Denominator_1","code":{"coding":[{"system":"http://terminology.hl7.org/CodeSystem/measure-population","code":"denominator","display":"Denominator"}]},"count":1},{"id":"DenominatorExclusion_1","code":{"coding":[{"system":"http://terminology.hl7.org/CodeSystem/measure-population","code":"denominator-exclusion","display":"Denominator Exclusion"}]},"count":1},{"id":"Numerator_1","code":{"coding":[{"system":"http://terminology.hl7.org/CodeSystem/measure-population","code":"numerator","display":"Numerator"}]},"count":0}],"measureScore":{"value":1.0}}],"evaluatedResource":[{"reference":"Patient/8723dbb4-f60f-488a-9da3-f02f04ea03bf"},{"reference":"Encounter/a555fe57-7361-41a8-a37d-a741074f485d"},{"reference":"Encounter/ee5bd1c8-88c9-4689-a4f1-f45f24288e23"}]},"request":{"method":"PUT","url":"MeasureReport/76fad477-814e-483d-8bb3-57c66b1ac443"}}]},"request":{"method":"PUT","url":"Bundle/DENEXPass-DischargeToHomeInpatient"}},{"fullUrl":"MeasureReport/76fad477-814e-483d-8bb3-57c66b1ac443","resource":{"resourceType":"MeasureReport","id":"76fad477-814e-483d-8bb3-57c66b1ac443","meta":{"profile":["http://hl7.org/fhir/us/cqfmeasures/StructureDefinition/test-case-cqfm"]},"contained":[{"resourceType":"Parameters","id":"b8fea1d9-21d3-463d-bffa-b3804fa8b770-parameters","parameter":[{"name":"subject","valueString":"8723dbb4-f60f-488a-9da3-f02f04ea03bf"}]}],"extension":[{"url":"http://hl7.org/fhir/StructureDefinition/cqf-inputParameters","valueReference":{"reference":"#b8fea1d9-21d3-463d-bffa-b3804fa8b770-parameters"}},{"url":"http://hl7.org/fhir/us/cqfmeasures/StructureDefinition/cqfm-testCaseDescription","valueMarkdown":"Hospice Discharge to Home - For meeting 100% coverage"}],"modifierExtension":[{"url":"http://hl7.org/fhir/us/cqfmeasures/StructureDefinition/cqfm-isTestCase","valueBoolean":true}],"status":"complete","type":"individual","measure":"https://madie.cms.gov/Measure/CMS124FHIRCervicalCancerScreening","period":{"start":"2026-01-01","end":"2026-12-31"},"group":[{"id":"Group_1","population":[{"id":"InitialPopulation_1","code":{"coding":[{"system":"http://terminology.hl7.org/CodeSystem/measure-population","code":"initial-population","display":"Initial Population"}]},"count":1},{"id":"Denominator_1","code":{"coding":[{"system":"http://terminology.hl7.org/CodeSystem/measure-population","code":"denominator","display":"Denominator"}]},"count":1},{"id":"DenominatorExclusion_1","code":{"coding":[{"system":"http://terminology.hl7.org/CodeSystem/measure-population","code":"denominator-exclusion","display":"Denominator Exclusion"}]},"count":1},{"id":"Numerator_1","code":{"coding":[{"system":"http://terminology.hl7.org/CodeSystem/measure-population","code":"numerator","display":"Numerator"}]},"count":0}],"measureScore":{"value":1.0}}],"evaluatedResource":[{"reference":"Patient/8723dbb4-f60f-488a-9da3-f02f04ea03bf"},{"reference":"Encounter/a555fe57-7361-41a8-a37d-a741074f485d"},{"reference":"Encounter/ee5bd1c8-88c9-4689-a4f1-f45f24288e23"}]},"request":{"method":"PUT","url":"MeasureReport/76fad477-814e-483d-8bb3-57c66b1ac443"}},{"fullUrl":"Encounter/a555fe57-7361-41a8-a37d-a741074f485d","resource":{"resourceType":"Encounter","id":"a555fe57-7361-41a8-a37d-a741074f485d","meta":{"profile":["http://hl7.org/fhir/us/qicore/StructureDefinition/qicore-encounter"]},"status":"finished","class":{"system":"http://terminology.hl7.org/CodeSystem/v3-ActCode","code":"AMB","display":"ambulatory"},"type":[{"coding":[{"system":"http://snomed.info/sct","code":"185460008","display":"Home visit request by patient (procedure)"}]}],"subject":{"reference":"Patient/8723dbb4-f60f-488a-9da3-f02f04ea03bf"},"period":{"start":"2026-01-01T00:00:00.000+00:00","end":"2026-01-01T01:00:00.000+00:00"}},"request":{"method":"PUT","url":"Encounter/a555fe57-7361-41a8-a37d-a741074f485d"}}]}