{"resourceType":"Bundle","id":"tests-27981b44-c26e-4bce-957c-f9e82f62f05d-bundle","type":"transaction","entry":[{"fullUrl":"Bundle/IPPass-SDECoverage","resource":{"resourceType":"Bundle","id":"IPPass-SDECoverage","type":"transaction","entry":[{"fullUrl":"https://madie.cms.gov/Patient/27981b44-c26e-4bce-957c-f9e82f62f05d","resource":{"resourceType":"Patient","id":"27981b44-c26e-4bce-957c-f9e82f62f05d","meta":{"profile":["http://hl7.org/fhir/us/qicore/StructureDefinition/qicore-patient"]},"extension":[{"url":"http://hl7.org/fhir/us/core/StructureDefinition/us-core-race","extension":[{"url":"ombCategory","valueCoding":{"system":"urn:oid:2.16.840.1.113883.6.238","code":"2028-9","display":"Asian","userSelected":true}},{"url":"text","valueString":"Asian"},{"url":"detailed","valueCoding":{"system":"urn:oid:2.16.840.1.113883.6.238","code":"1653-5","display":"Tohono O'Odham"}}]},{"url":"http://hl7.org/fhir/us/core/StructureDefinition/us-core-ethnicity","extension":[{"url":"ombCategory","valueCoding":{"system":"urn:oid:2.16.840.1.113883.6.238","code":"2135-2","display":"Hispanic or Latino","userSelected":true}},{"url":"text","valueString":"Hispanic or Latino"},{"url":"detailed","valueCoding":{"system":"urn:oid:2.16.840.1.113883.6.238","code":"2180-8","display":"Puerto Rican"}}]},{"url":"http://hl7.org/fhir/us/core/StructureDefinition/us-core-sex","valueCode":"248153007"}],"identifier":[{"system":"http://hospital.smarthealthit.org","value":"999999995"}],"name":[{"family":"SDE","given":["SDECoverage"]}],"gender":"male","birthDate":"1956-01-01"},"request":{"method":"PUT","url":"Patient/27981b44-c26e-4bce-957c-f9e82f62f05d"}},{"fullUrl":"https://madie.cms.gov/Encounter/8d8f32ca-304a-4f3c-9cc6-b753548bd0f7","resource":{"resourceType":"Encounter","id":"8d8f32ca-304a-4f3c-9cc6-b753548bd0f7","meta":{"profile":["http://hl7.org/fhir/us/qicore/StructureDefinition/qicore-encounter"]},"status":"finished","class":{"system":"http://terminology.hl7.org/CodeSystem/v3-ActCode","code":"AMB","display":"ambulatory"},"type":[{"coding":[{"system":"http://snomed.info/sct","code":"3391000175108","display":"Office visit for pediatric care and assessment (procedure)"}]}],"subject":{"reference":"Patient/27981b44-c26e-4bce-957c-f9e82f62f05d"},"period":{"start":"2026-01-01T01:00:00.000+00:00","end":"2026-01-01T01:15:00.000+00:00"}},"request":{"method":"PUT","url":"Encounter/8d8f32ca-304a-4f3c-9cc6-b753548bd0f7"}},{"fullUrl":"https://madie.cms.gov/Coverage/64e0be54-6ffd-4ec8-b1f2-52b097d6e3d4","resource":{"resourceType":"Coverage","id":"64e0be54-6ffd-4ec8-b1f2-52b097d6e3d4","meta":{"profile":["http://hl7.org/fhir/us/qicore/StructureDefinition/qicore-coverage"]},"identifier":[{"system":"http://benefitsinc.com/certificate","value":"12345"}],"status":"active","type":{"coding":[{"system":"https://nahdo.org/sopt","code":"59","display":"Other Private Insurance"}]},"policyHolder":{"reference":"Patient/27981b44-c26e-4bce-957c-f9e82f62f05d"},"subscriber":{"reference":"Patient/27981b44-c26e-4bce-957c-f9e82f62f05d"},"subscriberId":"12191","beneficiary":{"reference":"Patient/27981b44-c26e-4bce-957c-f9e82f62f05d"},"dependent":"0","relationship":{"coding":[{"system":"http://terminology.hl7.org/CodeSystem/subscriber-relationship","code":"self"}]},"period":{"start":"2023-01-01T06:00:00.000+00:00","end":"2023-01-01T11:06:01.000+00:00"},"payor":[{"reference":"Patient/27981b44-c26e-4bce-957c-f9e82f62f05d"}],"order":9},"request":{"method":"PUT","url":"Coverage/64e0be54-6ffd-4ec8-b1f2-52b097d6e3d4"}},{"fullUrl":"https://madie.cms.gov/MeasureReport/0ce3b61d-cb65-412d-8b4c-f69f65f0e83e","resource":{"resourceType":"MeasureReport","id":"0ce3b61d-cb65-412d-8b4c-f69f65f0e83e","meta":{"profile":["http://hl7.org/fhir/us/cqfmeasures/StructureDefinition/test-case-cqfm"]},"contained":[{"resourceType":"Parameters","id":"31930130-45e9-4136-90fe-269a01a82199-parameters","parameter":[{"name":"subject","valueString":"27981b44-c26e-4bce-957c-f9e82f62f05d"}]}],"extension":[{"url":"http://hl7.org/fhir/StructureDefinition/cqf-inputParameters","valueReference":{"reference":"#31930130-45e9-4136-90fe-269a01a82199-parameters"}},{"url":"http://hl7.org/fhir/us/cqfmeasures/StructureDefinition/cqfm-testCaseDescription","valueMarkdown":"For meeting SDE 100% coverage - patient gender male, sde payer coverage, ethnicity detailed, race detailed"}],"modifierExtension":[{"url":"http://hl7.org/fhir/us/cqfmeasures/StructureDefinition/cqfm-isTestCase","valueBoolean":true}],"status":"complete","type":"individual","measure":"https://madie.cms.gov/Measure/CMS124FHIRCervicalCancerScreening","period":{"start":"2026-01-01","end":"2026-12-31"},"group":[{"id":"Group_1","population":[{"id":"InitialPopulation_1","code":{"coding":[{"system":"http://terminology.hl7.org/CodeSystem/measure-population","code":"initial-population","display":"Initial Population"}]},"count":0},{"id":"Denominator_1","code":{"coding":[{"system":"http://terminology.hl7.org/CodeSystem/measure-population","code":"denominator","display":"Denominator"}]},"count":0},{"id":"DenominatorExclusion_1","code":{"coding":[{"system":"http://terminology.hl7.org/CodeSystem/measure-population","code":"denominator-exclusion","display":"Denominator Exclusion"}]},"count":0},{"id":"Numerator_1","code":{"coding":[{"system":"http://terminology.hl7.org/CodeSystem/measure-population","code":"numerator","display":"Numerator"}]},"count":0}],"measureScore":{"value":1.0}}],"evaluatedResource":[{"reference":"Patient/27981b44-c26e-4bce-957c-f9e82f62f05d"},{"reference":"Encounter/8d8f32ca-304a-4f3c-9cc6-b753548bd0f7"},{"reference":"Coverage/64e0be54-6ffd-4ec8-b1f2-52b097d6e3d4"}]},"request":{"method":"PUT","url":"MeasureReport/0ce3b61d-cb65-412d-8b4c-f69f65f0e83e"}}]},"request":{"method":"PUT","url":"Bundle/IPPass-SDECoverage"}},{"fullUrl":"Encounter/8d8f32ca-304a-4f3c-9cc6-b753548bd0f7","resource":{"resourceType":"Encounter","id":"8d8f32ca-304a-4f3c-9cc6-b753548bd0f7","meta":{"profile":["http://hl7.org/fhir/us/qicore/StructureDefinition/qicore-encounter"]},"status":"finished","class":{"system":"http://terminology.hl7.org/CodeSystem/v3-ActCode","code":"AMB","display":"ambulatory"},"type":[{"coding":[{"system":"http://snomed.info/sct","code":"3391000175108","display":"Office visit for pediatric care and assessment (procedure)"}]}],"subject":{"reference":"Patient/27981b44-c26e-4bce-957c-f9e82f62f05d"},"period":{"start":"2026-01-01T01:00:00.000+00:00","end":"2026-01-01T01:15:00.000+00:00"}},"request":{"method":"PUT","url":"Encounter/8d8f32ca-304a-4f3c-9cc6-b753548bd0f7"}},{"fullUrl":"Patient/27981b44-c26e-4bce-957c-f9e82f62f05d","resource":{"resourceType":"Patient","id":"27981b44-c26e-4bce-957c-f9e82f62f05d","meta":{"profile":["http://hl7.org/fhir/us/qicore/StructureDefinition/qicore-patient"]},"extension":[{"url":"http://hl7.org/fhir/us/core/StructureDefinition/us-core-race","extension":[{"url":"ombCategory","valueCoding":{"system":"urn:oid:2.16.840.1.113883.6.238","code":"2028-9","display":"Asian","userSelected":true}},{"url":"text","valueString":"Asian"},{"url":"detailed","valueCoding":{"system":"urn:oid:2.16.840.1.113883.6.238","code":"1653-5","display":"Tohono O'Odham"}}]},{"url":"http://hl7.org/fhir/us/core/StructureDefinition/us-core-ethnicity","extension":[{"url":"ombCategory","valueCoding":{"system":"urn:oid:2.16.840.1.113883.6.238","code":"2135-2","display":"Hispanic or Latino","userSelected":true}},{"url":"text","valueString":"Hispanic or Latino"},{"url":"detailed","valueCoding":{"system":"urn:oid:2.16.840.1.113883.6.238","code":"2180-8","display":"Puerto Rican"}}]},{"url":"http://hl7.org/fhir/us/core/StructureDefinition/us-core-sex","valueCode":"248153007"}],"identifier":[{"system":"http://hospital.smarthealthit.org","value":"999999995"}],"name":[{"family":"SDE","given":["SDECoverage"]}],"gender":"male","birthDate":"1956-01-01"},"request":{"method":"PUT","url":"Patient/27981b44-c26e-4bce-957c-f9e82f62f05d"}},{"fullUrl":"Coverage/64e0be54-6ffd-4ec8-b1f2-52b097d6e3d4","resource":{"resourceType":"Coverage","id":"64e0be54-6ffd-4ec8-b1f2-52b097d6e3d4","meta":{"profile":["http://hl7.org/fhir/us/qicore/StructureDefinition/qicore-coverage"]},"identifier":[{"system":"http://benefitsinc.com/certificate","value":"12345"}],"status":"active","type":{"coding":[{"system":"https://nahdo.org/sopt","code":"59","display":"Other Private Insurance"}]},"policyHolder":{"reference":"Patient/27981b44-c26e-4bce-957c-f9e82f62f05d"},"subscriber":{"reference":"Patient/27981b44-c26e-4bce-957c-f9e82f62f05d"},"subscriberId":"12191","beneficiary":{"reference":"Patient/27981b44-c26e-4bce-957c-f9e82f62f05d"},"dependent":"0","relationship":{"coding":[{"system":"http://terminology.hl7.org/CodeSystem/subscriber-relationship","code":"self"}]},"period":{"start":"2023-01-01T06:00:00.000+00:00","end":"2023-01-01T11:06:01.000+00:00"},"payor":[{"reference":"Patient/27981b44-c26e-4bce-957c-f9e82f62f05d"}],"order":9},"request":{"method":"PUT","url":"Coverage/64e0be54-6ffd-4ec8-b1f2-52b097d6e3d4"}},{"fullUrl":"MeasureReport/0ce3b61d-cb65-412d-8b4c-f69f65f0e83e","resource":{"resourceType":"MeasureReport","id":"0ce3b61d-cb65-412d-8b4c-f69f65f0e83e","meta":{"profile":["http://hl7.org/fhir/us/cqfmeasures/StructureDefinition/test-case-cqfm"]},"contained":[{"resourceType":"Parameters","id":"31930130-45e9-4136-90fe-269a01a82199-parameters","parameter":[{"name":"subject","valueString":"27981b44-c26e-4bce-957c-f9e82f62f05d"}]}],"extension":[{"url":"http://hl7.org/fhir/StructureDefinition/cqf-inputParameters","valueReference":{"reference":"#31930130-45e9-4136-90fe-269a01a82199-parameters"}},{"url":"http://hl7.org/fhir/us/cqfmeasures/StructureDefinition/cqfm-testCaseDescription","valueMarkdown":"For meeting SDE 100% coverage - patient gender male, sde payer coverage, ethnicity detailed, race detailed"}],"modifierExtension":[{"url":"http://hl7.org/fhir/us/cqfmeasures/StructureDefinition/cqfm-isTestCase","valueBoolean":true}],"status":"complete","type":"individual","measure":"https://madie.cms.gov/Measure/CMS124FHIRCervicalCancerScreening","period":{"start":"2026-01-01","end":"2026-12-31"},"group":[{"id":"Group_1","population":[{"id":"InitialPopulation_1","code":{"coding":[{"system":"http://terminology.hl7.org/CodeSystem/measure-population","code":"initial-population","display":"Initial Population"}]},"count":0},{"id":"Denominator_1","code":{"coding":[{"system":"http://terminology.hl7.org/CodeSystem/measure-population","code":"denominator","display":"Denominator"}]},"count":0},{"id":"DenominatorExclusion_1","code":{"coding":[{"system":"http://terminology.hl7.org/CodeSystem/measure-population","code":"denominator-exclusion","display":"Denominator Exclusion"}]},"count":0},{"id":"Numerator_1","code":{"coding":[{"system":"http://terminology.hl7.org/CodeSystem/measure-population","code":"numerator","display":"Numerator"}]},"count":0}],"measureScore":{"value":1.0}}],"evaluatedResource":[{"reference":"Patient/27981b44-c26e-4bce-957c-f9e82f62f05d"},{"reference":"Encounter/8d8f32ca-304a-4f3c-9cc6-b753548bd0f7"},{"reference":"Coverage/64e0be54-6ffd-4ec8-b1f2-52b097d6e3d4"}]},"request":{"method":"PUT","url":"MeasureReport/0ce3b61d-cb65-412d-8b4c-f69f65f0e83e"}}]}