{"resourceType":"Bundle","id":"tests-6005d1fd-e9f5-414d-88d6-23087b4f3e94-bundle","type":"transaction","entry":[{"fullUrl":"MeasureReport/e9aa157a-f331-4130-a4d5-090b40c50428","resource":{"resourceType":"MeasureReport","id":"e9aa157a-f331-4130-a4d5-090b40c50428","meta":{"profile":["http://hl7.org/fhir/us/cqfmeasures/StructureDefinition/test-case-cqfm"]},"contained":[{"resourceType":"Parameters","id":"f86743cf-d52a-4ebe-8902-6119f3e80355-parameters","parameter":[{"name":"subject","valueString":"6005d1fd-e9f5-414d-88d6-23087b4f3e94"}]}],"extension":[{"url":"http://hl7.org/fhir/StructureDefinition/cqf-inputParameters","valueReference":{"reference":"#f86743cf-d52a-4ebe-8902-6119f3e80355-parameters"}},{"url":"http://hl7.org/fhir/us/cqfmeasures/StructureDefinition/cqfm-testCaseDescription","valueMarkdown":"Female 30 years old with HPV Test during MP"}],"modifierExtension":[{"url":"http://hl7.org/fhir/us/cqfmeasures/StructureDefinition/cqfm-isTestCase","valueBoolean":true}],"status":"complete","type":"individual","measure":"https://madie.cms.gov/Measure/CMS124FHIRCervicalCancerScreening","period":{"start":"2026-01-01","end":"2026-12-31"},"group":[{"id":"Group_1","population":[{"id":"InitialPopulation_1","code":{"coding":[{"system":"http://terminology.hl7.org/CodeSystem/measure-population","code":"initial-population","display":"Initial Population"}]},"count":1},{"id":"Denominator_1","code":{"coding":[{"system":"http://terminology.hl7.org/CodeSystem/measure-population","code":"denominator","display":"Denominator"}]},"count":1},{"id":"DenominatorExclusion_1","code":{"coding":[{"system":"http://terminology.hl7.org/CodeSystem/measure-population","code":"denominator-exclusion","display":"Denominator Exclusion"}]},"count":0},{"id":"Numerator_1","code":{"coding":[{"system":"http://terminology.hl7.org/CodeSystem/measure-population","code":"numerator","display":"Numerator"}]},"count":1}],"measureScore":{"value":1.0}}],"evaluatedResource":[{"reference":"Patient/6005d1fd-e9f5-414d-88d6-23087b4f3e94"},{"reference":"Encounter/c38b3cf6-d5fd-4ff1-ad19-fd4dacb495b6"},{"reference":"Observation/78c493c1-9ed2-4a01-9975-1853597469a2"}]},"request":{"method":"PUT","url":"MeasureReport/e9aa157a-f331-4130-a4d5-090b40c50428"}},{"fullUrl":"Patient/6005d1fd-e9f5-414d-88d6-23087b4f3e94","resource":{"resourceType":"Patient","id":"6005d1fd-e9f5-414d-88d6-23087b4f3e94","meta":{"profile":["http://hl7.org/fhir/us/qicore/StructureDefinition/qicore-patient"]},"extension":[{"url":"http://hl7.org/fhir/us/core/StructureDefinition/us-core-race","extension":[{"url":"ombCategory","valueCoding":{"system":"urn:oid:2.16.840.1.113883.6.238","code":"2028-9","display":"Asian"}},{"url":"text","valueString":"Asian"}]},{"url":"http://hl7.org/fhir/us/core/StructureDefinition/us-core-sex","valueCode":"248152002"},{"url":"http://hl7.org/fhir/us/core/StructureDefinition/us-core-ethnicity","extension":[{"url":"ombCategory","valueCoding":{"system":"urn:oid:2.16.840.1.113883.6.238","code":"2135-2","display":"Hispanic or Latino"}},{"url":"text","valueString":"Hispanic or Latino"}]}],"identifier":[{"system":"http://hospital.smarthealthit.org","value":"999999995"}],"name":[{"family":"Bertha","given":["Betty"]}],"gender":"female","birthDate":"1996-12-31"},"request":{"method":"PUT","url":"Patient/6005d1fd-e9f5-414d-88d6-23087b4f3e94"}},{"fullUrl":"Observation/78c493c1-9ed2-4a01-9975-1853597469a2","resource":{"resourceType":"Observation","id":"78c493c1-9ed2-4a01-9975-1853597469a2","meta":{"profile":["http://hl7.org/fhir/us/qicore/StructureDefinition/qicore-observation-lab"]},"status":"final","category":[{"coding":[{"system":"http://terminology.hl7.org/CodeSystem/observation-category","code":"laboratory","display":"laboratory"}],"text":"laboratory"}],"code":{"coding":[{"system":"http://loinc.org","code":"21440-3","display":"Human papilloma virus 16+18+31+33+35+45+51+52+56 DNA [Presence] in Cervix by Probe"}]},"subject":{"reference":"Patient/6005d1fd-e9f5-414d-88d6-23087b4f3e94"},"effectivePeriod":{"start":"2026-12-31T23:00:00.000+00:00","end":"2026-12-31T23:59:00.000+00:00"},"valueInteger":1},"request":{"method":"PUT","url":"Observation/78c493c1-9ed2-4a01-9975-1853597469a2"}},{"fullUrl":"Bundle/NUMPass-Age30HPVTestDuringMP","resource":{"resourceType":"Bundle","id":"NUMPass-Age30HPVTestDuringMP","type":"transaction","entry":[{"fullUrl":"https://madie.cms.gov/Patient/6005d1fd-e9f5-414d-88d6-23087b4f3e94","resource":{"resourceType":"Patient","id":"6005d1fd-e9f5-414d-88d6-23087b4f3e94","meta":{"profile":["http://hl7.org/fhir/us/qicore/StructureDefinition/qicore-patient"]},"extension":[{"url":"http://hl7.org/fhir/us/core/StructureDefinition/us-core-race","extension":[{"url":"ombCategory","valueCoding":{"system":"urn:oid:2.16.840.1.113883.6.238","code":"2028-9","display":"Asian"}},{"url":"text","valueString":"Asian"}]},{"url":"http://hl7.org/fhir/us/core/StructureDefinition/us-core-sex","valueCode":"248152002"},{"url":"http://hl7.org/fhir/us/core/StructureDefinition/us-core-ethnicity","extension":[{"url":"ombCategory","valueCoding":{"system":"urn:oid:2.16.840.1.113883.6.238","code":"2135-2","display":"Hispanic or Latino"}},{"url":"text","valueString":"Hispanic or Latino"}]}],"identifier":[{"system":"http://hospital.smarthealthit.org","value":"999999995"}],"name":[{"family":"Bertha","given":["Betty"]}],"gender":"female","birthDate":"1996-12-31"},"request":{"method":"PUT","url":"Patient/6005d1fd-e9f5-414d-88d6-23087b4f3e94"}},{"fullUrl":"https://madie.cms.gov/Encounter/c38b3cf6-d5fd-4ff1-ad19-fd4dacb495b6","resource":{"resourceType":"Encounter","id":"c38b3cf6-d5fd-4ff1-ad19-fd4dacb495b6","meta":{"profile":["http://hl7.org/fhir/us/qicore/StructureDefinition/qicore-encounter"]},"status":"finished","class":{"system":"http://terminology.hl7.org/CodeSystem/v3-ActCode","code":"AMB","display":"ambulatory"},"type":[{"coding":[{"system":"http://snomed.info/sct","code":"185317003","display":"Telephone encounter (procedure)"}]}],"subject":{"reference":"Patient/6005d1fd-e9f5-414d-88d6-23087b4f3e94"},"period":{"start":"2026-01-01T01:00:00.000+00:00","end":"2026-01-01T01:15:00.000+00:00"}},"request":{"method":"PUT","url":"Encounter/c38b3cf6-d5fd-4ff1-ad19-fd4dacb495b6"}},{"fullUrl":"https://madie.cms.gov/Observation/78c493c1-9ed2-4a01-9975-1853597469a2","resource":{"resourceType":"Observation","id":"78c493c1-9ed2-4a01-9975-1853597469a2","meta":{"profile":["http://hl7.org/fhir/us/qicore/StructureDefinition/qicore-observation-lab"]},"status":"final","category":[{"coding":[{"system":"http://terminology.hl7.org/CodeSystem/observation-category","code":"laboratory","display":"laboratory"}],"text":"laboratory"}],"code":{"coding":[{"system":"http://loinc.org","code":"21440-3","display":"Human papilloma virus 16+18+31+33+35+45+51+52+56 DNA [Presence] in Cervix by Probe"}]},"subject":{"reference":"Patient/6005d1fd-e9f5-414d-88d6-23087b4f3e94"},"effectivePeriod":{"start":"2026-12-31T23:00:00.000+00:00","end":"2026-12-31T23:59:00.000+00:00"},"valueInteger":1},"request":{"method":"PUT","url":"Observation/78c493c1-9ed2-4a01-9975-1853597469a2"}},{"fullUrl":"https://madie.cms.gov/MeasureReport/e9aa157a-f331-4130-a4d5-090b40c50428","resource":{"resourceType":"MeasureReport","id":"e9aa157a-f331-4130-a4d5-090b40c50428","meta":{"profile":["http://hl7.org/fhir/us/cqfmeasures/StructureDefinition/test-case-cqfm"]},"contained":[{"resourceType":"Parameters","id":"f86743cf-d52a-4ebe-8902-6119f3e80355-parameters","parameter":[{"name":"subject","valueString":"6005d1fd-e9f5-414d-88d6-23087b4f3e94"}]}],"extension":[{"url":"http://hl7.org/fhir/StructureDefinition/cqf-inputParameters","valueReference":{"reference":"#f86743cf-d52a-4ebe-8902-6119f3e80355-parameters"}},{"url":"http://hl7.org/fhir/us/cqfmeasures/StructureDefinition/cqfm-testCaseDescription","valueMarkdown":"Female 30 years old with HPV Test during MP"}],"modifierExtension":[{"url":"http://hl7.org/fhir/us/cqfmeasures/StructureDefinition/cqfm-isTestCase","valueBoolean":true}],"status":"complete","type":"individual","measure":"https://madie.cms.gov/Measure/CMS124FHIRCervicalCancerScreening","period":{"start":"2026-01-01","end":"2026-12-31"},"group":[{"id":"Group_1","population":[{"id":"InitialPopulation_1","code":{"coding":[{"system":"http://terminology.hl7.org/CodeSystem/measure-population","code":"initial-population","display":"Initial Population"}]},"count":1},{"id":"Denominator_1","code":{"coding":[{"system":"http://terminology.hl7.org/CodeSystem/measure-population","code":"denominator","display":"Denominator"}]},"count":1},{"id":"DenominatorExclusion_1","code":{"coding":[{"system":"http://terminology.hl7.org/CodeSystem/measure-population","code":"denominator-exclusion","display":"Denominator Exclusion"}]},"count":0},{"id":"Numerator_1","code":{"coding":[{"system":"http://terminology.hl7.org/CodeSystem/measure-population","code":"numerator","display":"Numerator"}]},"count":1}],"measureScore":{"value":1.0}}],"evaluatedResource":[{"reference":"Patient/6005d1fd-e9f5-414d-88d6-23087b4f3e94"},{"reference":"Encounter/c38b3cf6-d5fd-4ff1-ad19-fd4dacb495b6"},{"reference":"Observation/78c493c1-9ed2-4a01-9975-1853597469a2"}]},"request":{"method":"PUT","url":"MeasureReport/e9aa157a-f331-4130-a4d5-090b40c50428"}}]},"request":{"method":"PUT","url":"Bundle/NUMPass-Age30HPVTestDuringMP"}},{"fullUrl":"Encounter/c38b3cf6-d5fd-4ff1-ad19-fd4dacb495b6","resource":{"resourceType":"Encounter","id":"c38b3cf6-d5fd-4ff1-ad19-fd4dacb495b6","meta":{"profile":["http://hl7.org/fhir/us/qicore/StructureDefinition/qicore-encounter"]},"status":"finished","class":{"system":"http://terminology.hl7.org/CodeSystem/v3-ActCode","code":"AMB","display":"ambulatory"},"type":[{"coding":[{"system":"http://snomed.info/sct","code":"185317003","display":"Telephone encounter (procedure)"}]}],"subject":{"reference":"Patient/6005d1fd-e9f5-414d-88d6-23087b4f3e94"},"period":{"start":"2026-01-01T01:00:00.000+00:00","end":"2026-01-01T01:15:00.000+00:00"}},"request":{"method":"PUT","url":"Encounter/c38b3cf6-d5fd-4ff1-ad19-fd4dacb495b6"}}]}