{"resourceType":"Bundle","id":"tests-7e41f717-097e-45a7-9a00-1e0ad852cb44-bundle","type":"transaction","entry":[{"fullUrl":"Condition/4c031578-603e-4eb5-a8a1-9d12d6c1d8c6","resource":{"resourceType":"Condition","id":"4c031578-603e-4eb5-a8a1-9d12d6c1d8c6","meta":{"profile":["http://hl7.org/fhir/us/qicore/StructureDefinition/qicore-condition-problems-health-concerns"]},"clinicalStatus":{"coding":[{"system":"http://terminology.hl7.org/CodeSystem/condition-clinical","code":"active"}]},"category":[{"coding":[{"system":"http://terminology.hl7.org/CodeSystem/condition-category","code":"problem-list-item","display":"Problem List Item"}]}],"code":{"coding":[{"system":"http://snomed.info/sct","code":"441874000","display":"Seen by palliative care service (finding)"}]},"subject":{"reference":"Patient/7e41f717-097e-45a7-9a00-1e0ad852cb44"},"onsetDateTime":"2026-12-31T23:59:59.000+00:00"},"request":{"method":"PUT","url":"Condition/4c031578-603e-4eb5-a8a1-9d12d6c1d8c6"}},{"fullUrl":"MeasureReport/b4752f0f-c646-4378-81f3-58ebb34c4ff0","resource":{"resourceType":"MeasureReport","id":"b4752f0f-c646-4378-81f3-58ebb34c4ff0","meta":{"profile":["http://hl7.org/fhir/us/cqfmeasures/StructureDefinition/test-case-cqfm"]},"contained":[{"resourceType":"Parameters","id":"f136dfa3-7889-45ac-ad8a-76049f2f84bf-parameters","parameter":[{"name":"subject","valueString":"7e41f717-097e-45a7-9a00-1e0ad852cb44"}]}],"extension":[{"url":"http://hl7.org/fhir/StructureDefinition/cqf-inputParameters","valueReference":{"reference":"#f136dfa3-7889-45ac-ad8a-76049f2f84bf-parameters"}},{"url":"http://hl7.org/fhir/us/cqfmeasures/StructureDefinition/cqfm-testCaseDescription","valueMarkdown":"Palliative Care Condition - For meeting 100% coverage"}],"modifierExtension":[{"url":"http://hl7.org/fhir/us/cqfmeasures/StructureDefinition/cqfm-isTestCase","valueBoolean":true}],"status":"complete","type":"individual","measure":"https://madie.cms.gov/Measure/CMS124FHIRCervicalCancerScreening","period":{"start":"2026-01-01","end":"2026-12-31"},"group":[{"id":"Group_1","population":[{"id":"InitialPopulation_1","code":{"coding":[{"system":"http://terminology.hl7.org/CodeSystem/measure-population","code":"initial-population","display":"Initial Population"}]},"count":1},{"id":"Denominator_1","code":{"coding":[{"system":"http://terminology.hl7.org/CodeSystem/measure-population","code":"denominator","display":"Denominator"}]},"count":1},{"id":"DenominatorExclusion_1","code":{"coding":[{"system":"http://terminology.hl7.org/CodeSystem/measure-population","code":"denominator-exclusion","display":"Denominator Exclusion"}]},"count":1},{"id":"Numerator_1","code":{"coding":[{"system":"http://terminology.hl7.org/CodeSystem/measure-population","code":"numerator","display":"Numerator"}]},"count":0}],"measureScore":{"value":1.0}}],"evaluatedResource":[{"reference":"Patient/7e41f717-097e-45a7-9a00-1e0ad852cb44"},{"reference":"Encounter/5eaa2517-b12e-4e2f-bca6-f4d983997cb3"},{"reference":"Condition/4c031578-603e-4eb5-a8a1-9d12d6c1d8c6"}]},"request":{"method":"PUT","url":"MeasureReport/b4752f0f-c646-4378-81f3-58ebb34c4ff0"}},{"fullUrl":"Bundle/DENEXPass-PalliativeCareDiagnosisDuringMP","resource":{"resourceType":"Bundle","id":"DENEXPass-PalliativeCareDiagnosisDuringMP","type":"transaction","entry":[{"fullUrl":"https://madie.cms.gov/Patient/7e41f717-097e-45a7-9a00-1e0ad852cb44","resource":{"resourceType":"Patient","id":"7e41f717-097e-45a7-9a00-1e0ad852cb44","meta":{"profile":["http://hl7.org/fhir/us/qicore/StructureDefinition/qicore-patient"]},"extension":[{"url":"http://hl7.org/fhir/us/core/StructureDefinition/us-core-race","extension":[{"url":"ombCategory","valueCoding":{"system":"urn:oid:2.16.840.1.113883.6.238","code":"2028-9","display":"Asian"}},{"url":"text","valueString":"Asian"}]},{"url":"http://hl7.org/fhir/us/core/StructureDefinition/us-core-sex","valueCode":"248152002"},{"url":"http://hl7.org/fhir/us/core/StructureDefinition/us-core-ethnicity","extension":[{"url":"ombCategory","valueCoding":{"system":"urn:oid:2.16.840.1.113883.6.238","code":"2135-2","display":"Hispanic or Latino"}},{"url":"text","valueString":"Hispanic or Latino"}]}],"identifier":[{"system":"http://hospital.smarthealthit.org","value":"999999995"}],"name":[{"family":"Bertha","given":["Betty"]}],"gender":"female","birthDate":"2002-12-31"},"request":{"method":"PUT","url":"Patient/7e41f717-097e-45a7-9a00-1e0ad852cb44"}},{"fullUrl":"https://madie.cms.gov/Encounter/5eaa2517-b12e-4e2f-bca6-f4d983997cb3","resource":{"resourceType":"Encounter","id":"5eaa2517-b12e-4e2f-bca6-f4d983997cb3","meta":{"profile":["http://hl7.org/fhir/us/qicore/StructureDefinition/qicore-encounter"]},"status":"finished","class":{"system":"http://terminology.hl7.org/CodeSystem/v3-ActCode","code":"AMB","display":"ambulatory"},"type":[{"coding":[{"system":"http://snomed.info/sct","code":"185460008","display":"Home visit request by patient (procedure)"}]}],"subject":{"reference":"Patient/7e41f717-097e-45a7-9a00-1e0ad852cb44"},"period":{"start":"2026-01-01T00:00:00.000+00:00","end":"2026-01-01T01:00:00.000+00:00"}},"request":{"method":"PUT","url":"Encounter/5eaa2517-b12e-4e2f-bca6-f4d983997cb3"}},{"fullUrl":"https://madie.cms.gov/Condition/4c031578-603e-4eb5-a8a1-9d12d6c1d8c6","resource":{"resourceType":"Condition","id":"4c031578-603e-4eb5-a8a1-9d12d6c1d8c6","meta":{"profile":["http://hl7.org/fhir/us/qicore/StructureDefinition/qicore-condition-problems-health-concerns"]},"clinicalStatus":{"coding":[{"system":"http://terminology.hl7.org/CodeSystem/condition-clinical","code":"active"}]},"category":[{"coding":[{"system":"http://terminology.hl7.org/CodeSystem/condition-category","code":"problem-list-item","display":"Problem List Item"}]}],"code":{"coding":[{"system":"http://snomed.info/sct","code":"441874000","display":"Seen by palliative care service (finding)"}]},"subject":{"reference":"Patient/7e41f717-097e-45a7-9a00-1e0ad852cb44"},"onsetDateTime":"2026-12-31T23:59:59.000+00:00"},"request":{"method":"PUT","url":"Condition/4c031578-603e-4eb5-a8a1-9d12d6c1d8c6"}},{"fullUrl":"https://madie.cms.gov/MeasureReport/b4752f0f-c646-4378-81f3-58ebb34c4ff0","resource":{"resourceType":"MeasureReport","id":"b4752f0f-c646-4378-81f3-58ebb34c4ff0","meta":{"profile":["http://hl7.org/fhir/us/cqfmeasures/StructureDefinition/test-case-cqfm"]},"contained":[{"resourceType":"Parameters","id":"f136dfa3-7889-45ac-ad8a-76049f2f84bf-parameters","parameter":[{"name":"subject","valueString":"7e41f717-097e-45a7-9a00-1e0ad852cb44"}]}],"extension":[{"url":"http://hl7.org/fhir/StructureDefinition/cqf-inputParameters","valueReference":{"reference":"#f136dfa3-7889-45ac-ad8a-76049f2f84bf-parameters"}},{"url":"http://hl7.org/fhir/us/cqfmeasures/StructureDefinition/cqfm-testCaseDescription","valueMarkdown":"Palliative Care Condition - For meeting 100% coverage"}],"modifierExtension":[{"url":"http://hl7.org/fhir/us/cqfmeasures/StructureDefinition/cqfm-isTestCase","valueBoolean":true}],"status":"complete","type":"individual","measure":"https://madie.cms.gov/Measure/CMS124FHIRCervicalCancerScreening","period":{"start":"2026-01-01","end":"2026-12-31"},"group":[{"id":"Group_1","population":[{"id":"InitialPopulation_1","code":{"coding":[{"system":"http://terminology.hl7.org/CodeSystem/measure-population","code":"initial-population","display":"Initial Population"}]},"count":1},{"id":"Denominator_1","code":{"coding":[{"system":"http://terminology.hl7.org/CodeSystem/measure-population","code":"denominator","display":"Denominator"}]},"count":1},{"id":"DenominatorExclusion_1","code":{"coding":[{"system":"http://terminology.hl7.org/CodeSystem/measure-population","code":"denominator-exclusion","display":"Denominator Exclusion"}]},"count":1},{"id":"Numerator_1","code":{"coding":[{"system":"http://terminology.hl7.org/CodeSystem/measure-population","code":"numerator","display":"Numerator"}]},"count":0}],"measureScore":{"value":1.0}}],"evaluatedResource":[{"reference":"Patient/7e41f717-097e-45a7-9a00-1e0ad852cb44"},{"reference":"Encounter/5eaa2517-b12e-4e2f-bca6-f4d983997cb3"},{"reference":"Condition/4c031578-603e-4eb5-a8a1-9d12d6c1d8c6"}]},"request":{"method":"PUT","url":"MeasureReport/b4752f0f-c646-4378-81f3-58ebb34c4ff0"}}]},"request":{"method":"PUT","url":"Bundle/DENEXPass-PalliativeCareDiagnosisDuringMP"}},{"fullUrl":"Patient/7e41f717-097e-45a7-9a00-1e0ad852cb44","resource":{"resourceType":"Patient","id":"7e41f717-097e-45a7-9a00-1e0ad852cb44","meta":{"profile":["http://hl7.org/fhir/us/qicore/StructureDefinition/qicore-patient"]},"extension":[{"url":"http://hl7.org/fhir/us/core/StructureDefinition/us-core-race","extension":[{"url":"ombCategory","valueCoding":{"system":"urn:oid:2.16.840.1.113883.6.238","code":"2028-9","display":"Asian"}},{"url":"text","valueString":"Asian"}]},{"url":"http://hl7.org/fhir/us/core/StructureDefinition/us-core-sex","valueCode":"248152002"},{"url":"http://hl7.org/fhir/us/core/StructureDefinition/us-core-ethnicity","extension":[{"url":"ombCategory","valueCoding":{"system":"urn:oid:2.16.840.1.113883.6.238","code":"2135-2","display":"Hispanic or Latino"}},{"url":"text","valueString":"Hispanic or Latino"}]}],"identifier":[{"system":"http://hospital.smarthealthit.org","value":"999999995"}],"name":[{"family":"Bertha","given":["Betty"]}],"gender":"female","birthDate":"2002-12-31"},"request":{"method":"PUT","url":"Patient/7e41f717-097e-45a7-9a00-1e0ad852cb44"}},{"fullUrl":"Encounter/5eaa2517-b12e-4e2f-bca6-f4d983997cb3","resource":{"resourceType":"Encounter","id":"5eaa2517-b12e-4e2f-bca6-f4d983997cb3","meta":{"profile":["http://hl7.org/fhir/us/qicore/StructureDefinition/qicore-encounter"]},"status":"finished","class":{"system":"http://terminology.hl7.org/CodeSystem/v3-ActCode","code":"AMB","display":"ambulatory"},"type":[{"coding":[{"system":"http://snomed.info/sct","code":"185460008","display":"Home visit request by patient (procedure)"}]}],"subject":{"reference":"Patient/7e41f717-097e-45a7-9a00-1e0ad852cb44"},"period":{"start":"2026-01-01T00:00:00.000+00:00","end":"2026-01-01T01:00:00.000+00:00"}},"request":{"method":"PUT","url":"Encounter/5eaa2517-b12e-4e2f-bca6-f4d983997cb3"}}]}