{"resourceType":"Bundle","id":"tests-05cbc93d-e748-4bca-b68d-3011ebf68e28-bundle","type":"transaction","entry":[{"fullUrl":"MeasureReport/c13d9847-1d50-4341-b910-103834953357","resource":{"resourceType":"MeasureReport","id":"c13d9847-1d50-4341-b910-103834953357","meta":{"profile":["http://hl7.org/fhir/us/cqfmeasures/StructureDefinition/test-case-cqfm"]},"contained":[{"resourceType":"Parameters","id":"c006ae91-c70a-4132-9c66-439b6fb9f3ea-parameters","parameter":[{"name":"subject","valueString":"05cbc93d-e748-4bca-b68d-3011ebf68e28"}]}],"extension":[{"url":"http://hl7.org/fhir/StructureDefinition/cqf-inputParameters","valueReference":{"reference":"#c006ae91-c70a-4132-9c66-439b6fb9f3ea-parameters"}},{"url":"http://hl7.org/fhir/us/cqfmeasures/StructureDefinition/cqfm-testCaseDescription","valueMarkdown":"Palliative Care Survey - For meeting 100% coverage"}],"modifierExtension":[{"url":"http://hl7.org/fhir/us/cqfmeasures/StructureDefinition/cqfm-isTestCase","valueBoolean":true}],"status":"complete","type":"individual","measure":"https://madie.cms.gov/Measure/CMS124FHIRCervicalCancerScreening","period":{"start":"2026-01-01","end":"2026-12-31"},"group":[{"id":"Group_1","population":[{"id":"InitialPopulation_1","code":{"coding":[{"system":"http://terminology.hl7.org/CodeSystem/measure-population","code":"initial-population","display":"Initial Population"}]},"count":1},{"id":"Denominator_1","code":{"coding":[{"system":"http://terminology.hl7.org/CodeSystem/measure-population","code":"denominator","display":"Denominator"}]},"count":1},{"id":"DenominatorExclusion_1","code":{"coding":[{"system":"http://terminology.hl7.org/CodeSystem/measure-population","code":"denominator-exclusion","display":"Denominator Exclusion"}]},"count":1},{"id":"Numerator_1","code":{"coding":[{"system":"http://terminology.hl7.org/CodeSystem/measure-population","code":"numerator","display":"Numerator"}]},"count":0}],"measureScore":{"value":1.0}}],"evaluatedResource":[{"reference":"Patient/05cbc93d-e748-4bca-b68d-3011ebf68e28"},{"reference":"Encounter/107c59e0-1f93-4596-8520-c0a578f75482"},{"reference":"Observation/b0141430-b0b4-4363-abf4-aa98a6ab9e01"}]},"request":{"method":"PUT","url":"MeasureReport/c13d9847-1d50-4341-b910-103834953357"}},{"fullUrl":"Patient/05cbc93d-e748-4bca-b68d-3011ebf68e28","resource":{"resourceType":"Patient","id":"05cbc93d-e748-4bca-b68d-3011ebf68e28","meta":{"profile":["http://hl7.org/fhir/us/qicore/StructureDefinition/qicore-patient"]},"extension":[{"url":"http://hl7.org/fhir/us/core/StructureDefinition/us-core-race","extension":[{"url":"ombCategory","valueCoding":{"system":"urn:oid:2.16.840.1.113883.6.238","code":"2028-9","display":"Asian"}},{"url":"text","valueString":"Asian"}]},{"url":"http://hl7.org/fhir/us/core/StructureDefinition/us-core-sex","valueCode":"248152002"},{"url":"http://hl7.org/fhir/us/core/StructureDefinition/us-core-ethnicity","extension":[{"url":"ombCategory","valueCoding":{"system":"urn:oid:2.16.840.1.113883.6.238","code":"2135-2","display":"Hispanic or Latino"}},{"url":"text","valueString":"Hispanic or Latino"}]}],"identifier":[{"system":"http://hospital.smarthealthit.org","value":"999999995"}],"name":[{"family":"Bertha","given":["Betty"]}],"gender":"female","birthDate":"2002-12-31"},"request":{"method":"PUT","url":"Patient/05cbc93d-e748-4bca-b68d-3011ebf68e28"}},{"fullUrl":"Encounter/107c59e0-1f93-4596-8520-c0a578f75482","resource":{"resourceType":"Encounter","id":"107c59e0-1f93-4596-8520-c0a578f75482","meta":{"profile":["http://hl7.org/fhir/us/qicore/StructureDefinition/qicore-encounter"]},"status":"finished","class":{"system":"http://terminology.hl7.org/CodeSystem/v3-ActCode","code":"AMB","display":"ambulatory"},"type":[{"coding":[{"system":"http://www.ama-assn.org/go/cpt","code":"98970","display":"Qualified nonphysician health care professional online digital assessment and management, for an established patient, for up to 7 days, cumulative time during the 7 days; 5-10 minutes"}]}],"subject":{"reference":"Patient/05cbc93d-e748-4bca-b68d-3011ebf68e28"},"period":{"start":"2026-01-01T00:00:00.000+00:00","end":"2026-01-01T01:00:00.000+00:00"}},"request":{"method":"PUT","url":"Encounter/107c59e0-1f93-4596-8520-c0a578f75482"}},{"fullUrl":"Bundle/DENEXPass-PalliativeCareSurveyOverlapsMP","resource":{"resourceType":"Bundle","id":"DENEXPass-PalliativeCareSurveyOverlapsMP","type":"transaction","entry":[{"fullUrl":"https://madie.cms.gov/Patient/05cbc93d-e748-4bca-b68d-3011ebf68e28","resource":{"resourceType":"Patient","id":"05cbc93d-e748-4bca-b68d-3011ebf68e28","meta":{"profile":["http://hl7.org/fhir/us/qicore/StructureDefinition/qicore-patient"]},"extension":[{"url":"http://hl7.org/fhir/us/core/StructureDefinition/us-core-race","extension":[{"url":"ombCategory","valueCoding":{"system":"urn:oid:2.16.840.1.113883.6.238","code":"2028-9","display":"Asian"}},{"url":"text","valueString":"Asian"}]},{"url":"http://hl7.org/fhir/us/core/StructureDefinition/us-core-sex","valueCode":"248152002"},{"url":"http://hl7.org/fhir/us/core/StructureDefinition/us-core-ethnicity","extension":[{"url":"ombCategory","valueCoding":{"system":"urn:oid:2.16.840.1.113883.6.238","code":"2135-2","display":"Hispanic or Latino"}},{"url":"text","valueString":"Hispanic or Latino"}]}],"identifier":[{"system":"http://hospital.smarthealthit.org","value":"999999995"}],"name":[{"family":"Bertha","given":["Betty"]}],"gender":"female","birthDate":"2002-12-31"},"request":{"method":"PUT","url":"Patient/05cbc93d-e748-4bca-b68d-3011ebf68e28"}},{"fullUrl":"https://madie.cms.gov/Encounter/107c59e0-1f93-4596-8520-c0a578f75482","resource":{"resourceType":"Encounter","id":"107c59e0-1f93-4596-8520-c0a578f75482","meta":{"profile":["http://hl7.org/fhir/us/qicore/StructureDefinition/qicore-encounter"]},"status":"finished","class":{"system":"http://terminology.hl7.org/CodeSystem/v3-ActCode","code":"AMB","display":"ambulatory"},"type":[{"coding":[{"system":"http://www.ama-assn.org/go/cpt","code":"98970","display":"Qualified nonphysician health care professional online digital assessment and management, for an established patient, for up to 7 days, cumulative time during the 7 days; 5-10 minutes"}]}],"subject":{"reference":"Patient/05cbc93d-e748-4bca-b68d-3011ebf68e28"},"period":{"start":"2026-01-01T00:00:00.000+00:00","end":"2026-01-01T01:00:00.000+00:00"}},"request":{"method":"PUT","url":"Encounter/107c59e0-1f93-4596-8520-c0a578f75482"}},{"fullUrl":"https://madie.cms.gov/Observation/b0141430-b0b4-4363-abf4-aa98a6ab9e01","resource":{"resourceType":"Observation","id":"b0141430-b0b4-4363-abf4-aa98a6ab9e01","meta":{"profile":["http://hl7.org/fhir/us/qicore/StructureDefinition/qicore-observation-screening-assessment"]},"status":"final","category":[{"coding":[{"system":"http://terminology.hl7.org/CodeSystem/observation-category","code":"survey"}]}],"code":{"coding":[{"system":"http://loinc.org","code":"71007-9","display":"Functional Assessment of Chronic Illness Therapy - Palliative Care Questionnaire (FACIT-Pal)"}]},"subject":{"reference":"Patient/05cbc93d-e748-4bca-b68d-3011ebf68e28"},"effectivePeriod":{"start":"2025-12-31T23:59:59.000+00:00","end":"2026-01-01T01:00:00.000+00:00"},"valueCodeableConcept":{"coding":[{"system":"http://snomed.info/sct","code":"373066001","display":"Yes (qualifier value)"}]}},"request":{"method":"PUT","url":"Observation/b0141430-b0b4-4363-abf4-aa98a6ab9e01"}},{"fullUrl":"https://madie.cms.gov/MeasureReport/c13d9847-1d50-4341-b910-103834953357","resource":{"resourceType":"MeasureReport","id":"c13d9847-1d50-4341-b910-103834953357","meta":{"profile":["http://hl7.org/fhir/us/cqfmeasures/StructureDefinition/test-case-cqfm"]},"contained":[{"resourceType":"Parameters","id":"c006ae91-c70a-4132-9c66-439b6fb9f3ea-parameters","parameter":[{"name":"subject","valueString":"05cbc93d-e748-4bca-b68d-3011ebf68e28"}]}],"extension":[{"url":"http://hl7.org/fhir/StructureDefinition/cqf-inputParameters","valueReference":{"reference":"#c006ae91-c70a-4132-9c66-439b6fb9f3ea-parameters"}},{"url":"http://hl7.org/fhir/us/cqfmeasures/StructureDefinition/cqfm-testCaseDescription","valueMarkdown":"Palliative Care Survey - For meeting 100% coverage"}],"modifierExtension":[{"url":"http://hl7.org/fhir/us/cqfmeasures/StructureDefinition/cqfm-isTestCase","valueBoolean":true}],"status":"complete","type":"individual","measure":"https://madie.cms.gov/Measure/CMS124FHIRCervicalCancerScreening","period":{"start":"2026-01-01","end":"2026-12-31"},"group":[{"id":"Group_1","population":[{"id":"InitialPopulation_1","code":{"coding":[{"system":"http://terminology.hl7.org/CodeSystem/measure-population","code":"initial-population","display":"Initial Population"}]},"count":1},{"id":"Denominator_1","code":{"coding":[{"system":"http://terminology.hl7.org/CodeSystem/measure-population","code":"denominator","display":"Denominator"}]},"count":1},{"id":"DenominatorExclusion_1","code":{"coding":[{"system":"http://terminology.hl7.org/CodeSystem/measure-population","code":"denominator-exclusion","display":"Denominator Exclusion"}]},"count":1},{"id":"Numerator_1","code":{"coding":[{"system":"http://terminology.hl7.org/CodeSystem/measure-population","code":"numerator","display":"Numerator"}]},"count":0}],"measureScore":{"value":1.0}}],"evaluatedResource":[{"reference":"Patient/05cbc93d-e748-4bca-b68d-3011ebf68e28"},{"reference":"Encounter/107c59e0-1f93-4596-8520-c0a578f75482"},{"reference":"Observation/b0141430-b0b4-4363-abf4-aa98a6ab9e01"}]},"request":{"method":"PUT","url":"MeasureReport/c13d9847-1d50-4341-b910-103834953357"}}]},"request":{"method":"PUT","url":"Bundle/DENEXPass-PalliativeCareSurveyOverlapsMP"}},{"fullUrl":"Observation/b0141430-b0b4-4363-abf4-aa98a6ab9e01","resource":{"resourceType":"Observation","id":"b0141430-b0b4-4363-abf4-aa98a6ab9e01","meta":{"profile":["http://hl7.org/fhir/us/qicore/StructureDefinition/qicore-observation-screening-assessment"]},"status":"final","category":[{"coding":[{"system":"http://terminology.hl7.org/CodeSystem/observation-category","code":"survey"}]}],"code":{"coding":[{"system":"http://loinc.org","code":"71007-9","display":"Functional Assessment of Chronic Illness Therapy - Palliative Care Questionnaire (FACIT-Pal)"}]},"subject":{"reference":"Patient/05cbc93d-e748-4bca-b68d-3011ebf68e28"},"effectivePeriod":{"start":"2025-12-31T23:59:59.000+00:00","end":"2026-01-01T01:00:00.000+00:00"},"valueCodeableConcept":{"coding":[{"system":"http://snomed.info/sct","code":"373066001","display":"Yes (qualifier value)"}]}},"request":{"method":"PUT","url":"Observation/b0141430-b0b4-4363-abf4-aa98a6ab9e01"}}]}