{"resourceType":"Bundle","id":"tests-e0fdd5df-7671-417c-9eef-20873cd647d6-bundle","type":"transaction","entry":[{"fullUrl":"MeasureReport/afe52d9b-c259-4510-97b3-b8df7d9a2abc","resource":{"resourceType":"MeasureReport","id":"afe52d9b-c259-4510-97b3-b8df7d9a2abc","meta":{"profile":["http://hl7.org/fhir/us/cqfmeasures/StructureDefinition/test-case-cqfm"]},"contained":[{"resourceType":"Parameters","id":"959d4a19-e7f6-4b56-a5d1-0fcb90847dd3-parameters","parameter":[{"name":"subject","valueString":"e0fdd5df-7671-417c-9eef-20873cd647d6"}]}],"extension":[{"url":"http://hl7.org/fhir/StructureDefinition/cqf-inputParameters","valueReference":{"reference":"#959d4a19-e7f6-4b56-a5d1-0fcb90847dd3-parameters"}},{"url":"http://hl7.org/fhir/us/cqfmeasures/StructureDefinition/cqfm-testCaseDescription","valueMarkdown":"SDE coverage - testing for invalid gender code"}],"modifierExtension":[{"url":"http://hl7.org/fhir/us/cqfmeasures/StructureDefinition/cqfm-isTestCase","valueBoolean":true}],"status":"complete","type":"individual","measure":"https://madie.cms.gov/Measure/CMS124FHIRCervicalCancerScreening","period":{"start":"2026-01-01","end":"2026-12-31"},"group":[{"id":"Group_1","population":[{"id":"InitialPopulation_1","code":{"coding":[{"system":"http://terminology.hl7.org/CodeSystem/measure-population","code":"initial-population","display":"Initial Population"}]},"count":0},{"id":"Denominator_1","code":{"coding":[{"system":"http://terminology.hl7.org/CodeSystem/measure-population","code":"denominator","display":"Denominator"}]},"count":0},{"id":"DenominatorExclusion_1","code":{"coding":[{"system":"http://terminology.hl7.org/CodeSystem/measure-population","code":"denominator-exclusion","display":"Denominator Exclusion"}]},"count":0},{"id":"Numerator_1","code":{"coding":[{"system":"http://terminology.hl7.org/CodeSystem/measure-population","code":"numerator","display":"Numerator"}]},"count":0}],"measureScore":{"value":1.0}}],"evaluatedResource":[{"reference":"Patient/e0fdd5df-7671-417c-9eef-20873cd647d6"},{"reference":"Encounter/3febded2-931a-492b-81f2-655e78dd91b2"},{"reference":"Coverage/0dff2036-bd48-41e2-bf58-731f479c6b89"}]},"request":{"method":"PUT","url":"MeasureReport/afe52d9b-c259-4510-97b3-b8df7d9a2abc"}},{"fullUrl":"Encounter/3febded2-931a-492b-81f2-655e78dd91b2","resource":{"resourceType":"Encounter","id":"3febded2-931a-492b-81f2-655e78dd91b2","meta":{"profile":["http://hl7.org/fhir/us/qicore/StructureDefinition/qicore-encounter"]},"status":"finished","class":{"system":"http://terminology.hl7.org/CodeSystem/v3-ActCode","code":"AMB","display":"ambulatory"},"type":[{"coding":[{"system":"http://snomed.info/sct","code":"3391000175108","display":"Office visit for pediatric care and assessment (procedure)"}]}],"subject":{"reference":"Patient/e0fdd5df-7671-417c-9eef-20873cd647d6"},"period":{"start":"2026-01-01T01:00:00.000+00:00","end":"2026-01-01T01:15:00.000+00:00"}},"request":{"method":"PUT","url":"Encounter/3febded2-931a-492b-81f2-655e78dd91b2"}},{"fullUrl":"Bundle/IPPPass-SDECoverage2","resource":{"resourceType":"Bundle","id":"IPPPass-SDECoverage2","type":"transaction","entry":[{"fullUrl":"https://madie.cms.gov/Patient/e0fdd5df-7671-417c-9eef-20873cd647d6","resource":{"resourceType":"Patient","id":"e0fdd5df-7671-417c-9eef-20873cd647d6","meta":{"profile":["http://hl7.org/fhir/us/qicore/StructureDefinition/qicore-patient"]},"extension":[{"url":"http://hl7.org/fhir/us/core/StructureDefinition/us-core-race","extension":[{"url":"ombCategory","valueCoding":{"system":"urn:oid:2.16.840.1.113883.6.238","code":"2028-9","display":"Asian","userSelected":true}},{"url":"text","valueString":"Asian"},{"url":"detailed","valueCoding":{"system":"urn:oid:2.16.840.1.113883.6.238","code":"1653-5","display":"Tohono O'Odham"}}]},{"url":"http://hl7.org/fhir/us/core/StructureDefinition/us-core-ethnicity","extension":[{"url":"ombCategory","valueCoding":{"system":"urn:oid:2.16.840.1.113883.6.238","code":"2135-2","display":"Hispanic or Latino","userSelected":true}},{"url":"text","valueString":"Hispanic or Latino"},{"url":"detailed","valueCoding":{"system":"urn:oid:2.16.840.1.113883.6.238","code":"2180-8","display":"Puerto Rican"}}]},{"url":"http://hl7.org/fhir/us/core/StructureDefinition/us-core-sex","valueCode":"248153000"}],"identifier":[{"system":"http://hospital.smarthealthit.org","value":"999999995"}],"name":[{"family":"SDE","given":["SDECoverage2"]}],"gender":"unknown","birthDate":"2002-12-31"},"request":{"method":"PUT","url":"Patient/e0fdd5df-7671-417c-9eef-20873cd647d6"}},{"fullUrl":"https://madie.cms.gov/Encounter/3febded2-931a-492b-81f2-655e78dd91b2","resource":{"resourceType":"Encounter","id":"3febded2-931a-492b-81f2-655e78dd91b2","meta":{"profile":["http://hl7.org/fhir/us/qicore/StructureDefinition/qicore-encounter"]},"status":"finished","class":{"system":"http://terminology.hl7.org/CodeSystem/v3-ActCode","code":"AMB","display":"ambulatory"},"type":[{"coding":[{"system":"http://snomed.info/sct","code":"3391000175108","display":"Office visit for pediatric care and assessment (procedure)"}]}],"subject":{"reference":"Patient/e0fdd5df-7671-417c-9eef-20873cd647d6"},"period":{"start":"2026-01-01T01:00:00.000+00:00","end":"2026-01-01T01:15:00.000+00:00"}},"request":{"method":"PUT","url":"Encounter/3febded2-931a-492b-81f2-655e78dd91b2"}},{"fullUrl":"https://madie.cms.gov/Coverage/0dff2036-bd48-41e2-bf58-731f479c6b89","resource":{"resourceType":"Coverage","id":"0dff2036-bd48-41e2-bf58-731f479c6b89","meta":{"profile":["http://hl7.org/fhir/us/qicore/StructureDefinition/qicore-coverage"]},"identifier":[{"system":"http://benefitsinc.com/certificate","value":"12345"}],"status":"active","type":{"coding":[{"system":"https://nahdo.org/sopt","code":"59","display":"Other Private Insurance"}]},"policyHolder":{"reference":"Patient/e0fdd5df-7671-417c-9eef-20873cd647d6"},"subscriber":{"reference":"Patient/e0fdd5df-7671-417c-9eef-20873cd647d6"},"subscriberId":"12191","beneficiary":{"reference":"Patient/e0fdd5df-7671-417c-9eef-20873cd647d6"},"dependent":"0","relationship":{"coding":[{"system":"http://terminology.hl7.org/CodeSystem/subscriber-relationship","code":"self"}]},"period":{"start":"2023-01-01T06:00:00.000+00:00","end":"2023-01-01T11:06:01.000+00:00"},"payor":[{"reference":"Patient/e0fdd5df-7671-417c-9eef-20873cd647d6"}],"order":9},"request":{"method":"PUT","url":"Coverage/0dff2036-bd48-41e2-bf58-731f479c6b89"}},{"fullUrl":"https://madie.cms.gov/MeasureReport/afe52d9b-c259-4510-97b3-b8df7d9a2abc","resource":{"resourceType":"MeasureReport","id":"afe52d9b-c259-4510-97b3-b8df7d9a2abc","meta":{"profile":["http://hl7.org/fhir/us/cqfmeasures/StructureDefinition/test-case-cqfm"]},"contained":[{"resourceType":"Parameters","id":"959d4a19-e7f6-4b56-a5d1-0fcb90847dd3-parameters","parameter":[{"name":"subject","valueString":"e0fdd5df-7671-417c-9eef-20873cd647d6"}]}],"extension":[{"url":"http://hl7.org/fhir/StructureDefinition/cqf-inputParameters","valueReference":{"reference":"#959d4a19-e7f6-4b56-a5d1-0fcb90847dd3-parameters"}},{"url":"http://hl7.org/fhir/us/cqfmeasures/StructureDefinition/cqfm-testCaseDescription","valueMarkdown":"SDE coverage - testing for invalid gender code"}],"modifierExtension":[{"url":"http://hl7.org/fhir/us/cqfmeasures/StructureDefinition/cqfm-isTestCase","valueBoolean":true}],"status":"complete","type":"individual","measure":"https://madie.cms.gov/Measure/CMS124FHIRCervicalCancerScreening","period":{"start":"2026-01-01","end":"2026-12-31"},"group":[{"id":"Group_1","population":[{"id":"InitialPopulation_1","code":{"coding":[{"system":"http://terminology.hl7.org/CodeSystem/measure-population","code":"initial-population","display":"Initial Population"}]},"count":0},{"id":"Denominator_1","code":{"coding":[{"system":"http://terminology.hl7.org/CodeSystem/measure-population","code":"denominator","display":"Denominator"}]},"count":0},{"id":"DenominatorExclusion_1","code":{"coding":[{"system":"http://terminology.hl7.org/CodeSystem/measure-population","code":"denominator-exclusion","display":"Denominator Exclusion"}]},"count":0},{"id":"Numerator_1","code":{"coding":[{"system":"http://terminology.hl7.org/CodeSystem/measure-population","code":"numerator","display":"Numerator"}]},"count":0}],"measureScore":{"value":1.0}}],"evaluatedResource":[{"reference":"Patient/e0fdd5df-7671-417c-9eef-20873cd647d6"},{"reference":"Encounter/3febded2-931a-492b-81f2-655e78dd91b2"},{"reference":"Coverage/0dff2036-bd48-41e2-bf58-731f479c6b89"}]},"request":{"method":"PUT","url":"MeasureReport/afe52d9b-c259-4510-97b3-b8df7d9a2abc"}}]},"request":{"method":"PUT","url":"Bundle/IPPPass-SDECoverage2"}},{"fullUrl":"Patient/e0fdd5df-7671-417c-9eef-20873cd647d6","resource":{"resourceType":"Patient","id":"e0fdd5df-7671-417c-9eef-20873cd647d6","meta":{"profile":["http://hl7.org/fhir/us/qicore/StructureDefinition/qicore-patient"]},"extension":[{"url":"http://hl7.org/fhir/us/core/StructureDefinition/us-core-race","extension":[{"url":"ombCategory","valueCoding":{"system":"urn:oid:2.16.840.1.113883.6.238","code":"2028-9","display":"Asian","userSelected":true}},{"url":"text","valueString":"Asian"},{"url":"detailed","valueCoding":{"system":"urn:oid:2.16.840.1.113883.6.238","code":"1653-5","display":"Tohono O'Odham"}}]},{"url":"http://hl7.org/fhir/us/core/StructureDefinition/us-core-ethnicity","extension":[{"url":"ombCategory","valueCoding":{"system":"urn:oid:2.16.840.1.113883.6.238","code":"2135-2","display":"Hispanic or Latino","userSelected":true}},{"url":"text","valueString":"Hispanic or Latino"},{"url":"detailed","valueCoding":{"system":"urn:oid:2.16.840.1.113883.6.238","code":"2180-8","display":"Puerto Rican"}}]},{"url":"http://hl7.org/fhir/us/core/StructureDefinition/us-core-sex","valueCode":"248153000"}],"identifier":[{"system":"http://hospital.smarthealthit.org","value":"999999995"}],"name":[{"family":"SDE","given":["SDECoverage2"]}],"gender":"unknown","birthDate":"2002-12-31"},"request":{"method":"PUT","url":"Patient/e0fdd5df-7671-417c-9eef-20873cd647d6"}},{"fullUrl":"Coverage/0dff2036-bd48-41e2-bf58-731f479c6b89","resource":{"resourceType":"Coverage","id":"0dff2036-bd48-41e2-bf58-731f479c6b89","meta":{"profile":["http://hl7.org/fhir/us/qicore/StructureDefinition/qicore-coverage"]},"identifier":[{"system":"http://benefitsinc.com/certificate","value":"12345"}],"status":"active","type":{"coding":[{"system":"https://nahdo.org/sopt","code":"59","display":"Other Private Insurance"}]},"policyHolder":{"reference":"Patient/e0fdd5df-7671-417c-9eef-20873cd647d6"},"subscriber":{"reference":"Patient/e0fdd5df-7671-417c-9eef-20873cd647d6"},"subscriberId":"12191","beneficiary":{"reference":"Patient/e0fdd5df-7671-417c-9eef-20873cd647d6"},"dependent":"0","relationship":{"coding":[{"system":"http://terminology.hl7.org/CodeSystem/subscriber-relationship","code":"self"}]},"period":{"start":"2023-01-01T06:00:00.000+00:00","end":"2023-01-01T11:06:01.000+00:00"},"payor":[{"reference":"Patient/e0fdd5df-7671-417c-9eef-20873cd647d6"}],"order":9},"request":{"method":"PUT","url":"Coverage/0dff2036-bd48-41e2-bf58-731f479c6b89"}}]}