{"resourceType":"Bundle","id":"tests-c6ec1681-b011-425a-a850-4e187e9fd927-bundle","type":"transaction","entry":[{"fullUrl":"Bundle/DENEXPass-HospiceCondEncDiagnosisOverlapsMP","resource":{"resourceType":"Bundle","id":"DENEXPass-HospiceCondEncDiagnosisOverlapsMP","type":"transaction","entry":[{"fullUrl":"https://madie.cms.gov/Patient/c6ec1681-b011-425a-a850-4e187e9fd927","resource":{"resourceType":"Patient","id":"c6ec1681-b011-425a-a850-4e187e9fd927","meta":{"profile":["http://hl7.org/fhir/us/qicore/StructureDefinition/qicore-patient"]},"extension":[{"url":"http://hl7.org/fhir/us/core/StructureDefinition/us-core-race","extension":[{"url":"ombCategory","valueCoding":{"system":"urn:oid:2.16.840.1.113883.6.238","code":"2028-9","display":"Asian"}},{"url":"text","valueString":"Asian"}]},{"url":"http://hl7.org/fhir/us/core/StructureDefinition/us-core-sex","valueCode":"248152002"},{"url":"http://hl7.org/fhir/us/core/StructureDefinition/us-core-ethnicity","extension":[{"url":"ombCategory","valueCoding":{"system":"urn:oid:2.16.840.1.113883.6.238","code":"2135-2","display":"Hispanic or Latino"}},{"url":"text","valueString":"Hispanic or Latino"}]}],"identifier":[{"system":"http://hospital.smarthealthit.org","value":"999999995"}],"name":[{"family":"Bertha","given":["Betty"]}],"gender":"female","birthDate":"2002-12-31"},"request":{"method":"PUT","url":"Patient/c6ec1681-b011-425a-a850-4e187e9fd927"}},{"fullUrl":"https://madie.cms.gov/Encounter/29779458-a457-4386-bd72-1d6259a65219","resource":{"resourceType":"Encounter","id":"29779458-a457-4386-bd72-1d6259a65219","meta":{"profile":["http://hl7.org/fhir/us/qicore/StructureDefinition/qicore-encounter"]},"status":"finished","class":{"system":"http://terminology.hl7.org/CodeSystem/v3-ActCode","code":"AMB","display":"ambulatory"},"type":[{"coding":[{"system":"http://snomed.info/sct","code":"185460008","display":"Home visit request by patient (procedure)"}]}],"subject":{"reference":"Patient/c6ec1681-b011-425a-a850-4e187e9fd927"},"period":{"start":"2026-01-01T00:00:00.000+00:00","end":"2026-01-01T01:00:00.000+00:00"}},"request":{"method":"PUT","url":"Encounter/29779458-a457-4386-bd72-1d6259a65219"}},{"fullUrl":"https://madie.cms.gov/Condition/e8e4544f-e063-439e-a584-5077c2f674c6","resource":{"resourceType":"Condition","id":"e8e4544f-e063-439e-a584-5077c2f674c6","meta":{"profile":["http://hl7.org/fhir/us/qicore/StructureDefinition/qicore-condition-encounter-diagnosis"]},"clinicalStatus":{"coding":[{"system":"http://terminology.hl7.org/CodeSystem/condition-clinical","code":"active"}]},"category":[{"coding":[{"system":"http://terminology.hl7.org/CodeSystem/condition-category","code":"encounter-diagnosis","display":"Encounter Diagnosis"}]}],"code":{"coding":[{"system":"http://snomed.info/sct","code":"170935008","display":"Full care by hospice (finding)"}]},"subject":{"reference":"Patient/c6ec1681-b011-425a-a850-4e187e9fd927"},"onsetDateTime":"2026-01-01T00:00:00.000+00:00"},"request":{"method":"PUT","url":"Condition/e8e4544f-e063-439e-a584-5077c2f674c6"}},{"fullUrl":"https://madie.cms.gov/MeasureReport/5fef8f29-f30c-4f2f-b115-ee8e10a55147","resource":{"resourceType":"MeasureReport","id":"5fef8f29-f30c-4f2f-b115-ee8e10a55147","meta":{"profile":["http://hl7.org/fhir/us/cqfmeasures/StructureDefinition/test-case-cqfm"]},"contained":[{"resourceType":"Parameters","id":"48095657-722c-4d17-91c3-bc3f4f1ccbee-parameters","parameter":[{"name":"subject","valueString":"c6ec1681-b011-425a-a850-4e187e9fd927"}]}],"extension":[{"url":"http://hl7.org/fhir/StructureDefinition/cqf-inputParameters","valueReference":{"reference":"#48095657-722c-4d17-91c3-bc3f4f1ccbee-parameters"}},{"url":"http://hl7.org/fhir/us/cqfmeasures/StructureDefinition/cqfm-testCaseDescription","valueMarkdown":"Hospice Condition - Testing condition encounter diagnosis profile for meeting 100% coverage"}],"modifierExtension":[{"url":"http://hl7.org/fhir/us/cqfmeasures/StructureDefinition/cqfm-isTestCase","valueBoolean":true}],"status":"complete","type":"individual","measure":"https://madie.cms.gov/Measure/CMS124FHIRCervicalCancerScreening","period":{"start":"2026-01-01","end":"2026-12-31"},"group":[{"id":"Group_1","population":[{"id":"InitialPopulation_1","code":{"coding":[{"system":"http://terminology.hl7.org/CodeSystem/measure-population","code":"initial-population","display":"Initial Population"}]},"count":1},{"id":"Denominator_1","code":{"coding":[{"system":"http://terminology.hl7.org/CodeSystem/measure-population","code":"denominator","display":"Denominator"}]},"count":1},{"id":"DenominatorExclusion_1","code":{"coding":[{"system":"http://terminology.hl7.org/CodeSystem/measure-population","code":"denominator-exclusion","display":"Denominator Exclusion"}]},"count":1},{"id":"Numerator_1","code":{"coding":[{"system":"http://terminology.hl7.org/CodeSystem/measure-population","code":"numerator","display":"Numerator"}]},"count":0}],"measureScore":{"value":1.0}}],"evaluatedResource":[{"reference":"Patient/c6ec1681-b011-425a-a850-4e187e9fd927"},{"reference":"Encounter/29779458-a457-4386-bd72-1d6259a65219"},{"reference":"Condition/e8e4544f-e063-439e-a584-5077c2f674c6"}]},"request":{"method":"PUT","url":"MeasureReport/5fef8f29-f30c-4f2f-b115-ee8e10a55147"}}]},"request":{"method":"PUT","url":"Bundle/DENEXPass-HospiceCondEncDiagnosisOverlapsMP"}},{"fullUrl":"MeasureReport/5fef8f29-f30c-4f2f-b115-ee8e10a55147","resource":{"resourceType":"MeasureReport","id":"5fef8f29-f30c-4f2f-b115-ee8e10a55147","meta":{"profile":["http://hl7.org/fhir/us/cqfmeasures/StructureDefinition/test-case-cqfm"]},"contained":[{"resourceType":"Parameters","id":"48095657-722c-4d17-91c3-bc3f4f1ccbee-parameters","parameter":[{"name":"subject","valueString":"c6ec1681-b011-425a-a850-4e187e9fd927"}]}],"extension":[{"url":"http://hl7.org/fhir/StructureDefinition/cqf-inputParameters","valueReference":{"reference":"#48095657-722c-4d17-91c3-bc3f4f1ccbee-parameters"}},{"url":"http://hl7.org/fhir/us/cqfmeasures/StructureDefinition/cqfm-testCaseDescription","valueMarkdown":"Hospice Condition - Testing condition encounter diagnosis profile for meeting 100% coverage"}],"modifierExtension":[{"url":"http://hl7.org/fhir/us/cqfmeasures/StructureDefinition/cqfm-isTestCase","valueBoolean":true}],"status":"complete","type":"individual","measure":"https://madie.cms.gov/Measure/CMS124FHIRCervicalCancerScreening","period":{"start":"2026-01-01","end":"2026-12-31"},"group":[{"id":"Group_1","population":[{"id":"InitialPopulation_1","code":{"coding":[{"system":"http://terminology.hl7.org/CodeSystem/measure-population","code":"initial-population","display":"Initial Population"}]},"count":1},{"id":"Denominator_1","code":{"coding":[{"system":"http://terminology.hl7.org/CodeSystem/measure-population","code":"denominator","display":"Denominator"}]},"count":1},{"id":"DenominatorExclusion_1","code":{"coding":[{"system":"http://terminology.hl7.org/CodeSystem/measure-population","code":"denominator-exclusion","display":"Denominator Exclusion"}]},"count":1},{"id":"Numerator_1","code":{"coding":[{"system":"http://terminology.hl7.org/CodeSystem/measure-population","code":"numerator","display":"Numerator"}]},"count":0}],"measureScore":{"value":1.0}}],"evaluatedResource":[{"reference":"Patient/c6ec1681-b011-425a-a850-4e187e9fd927"},{"reference":"Encounter/29779458-a457-4386-bd72-1d6259a65219"},{"reference":"Condition/e8e4544f-e063-439e-a584-5077c2f674c6"}]},"request":{"method":"PUT","url":"MeasureReport/5fef8f29-f30c-4f2f-b115-ee8e10a55147"}},{"fullUrl":"Patient/c6ec1681-b011-425a-a850-4e187e9fd927","resource":{"resourceType":"Patient","id":"c6ec1681-b011-425a-a850-4e187e9fd927","meta":{"profile":["http://hl7.org/fhir/us/qicore/StructureDefinition/qicore-patient"]},"extension":[{"url":"http://hl7.org/fhir/us/core/StructureDefinition/us-core-race","extension":[{"url":"ombCategory","valueCoding":{"system":"urn:oid:2.16.840.1.113883.6.238","code":"2028-9","display":"Asian"}},{"url":"text","valueString":"Asian"}]},{"url":"http://hl7.org/fhir/us/core/StructureDefinition/us-core-sex","valueCode":"248152002"},{"url":"http://hl7.org/fhir/us/core/StructureDefinition/us-core-ethnicity","extension":[{"url":"ombCategory","valueCoding":{"system":"urn:oid:2.16.840.1.113883.6.238","code":"2135-2","display":"Hispanic or Latino"}},{"url":"text","valueString":"Hispanic or Latino"}]}],"identifier":[{"system":"http://hospital.smarthealthit.org","value":"999999995"}],"name":[{"family":"Bertha","given":["Betty"]}],"gender":"female","birthDate":"2002-12-31"},"request":{"method":"PUT","url":"Patient/c6ec1681-b011-425a-a850-4e187e9fd927"}},{"fullUrl":"Condition/e8e4544f-e063-439e-a584-5077c2f674c6","resource":{"resourceType":"Condition","id":"e8e4544f-e063-439e-a584-5077c2f674c6","meta":{"profile":["http://hl7.org/fhir/us/qicore/StructureDefinition/qicore-condition-encounter-diagnosis"]},"clinicalStatus":{"coding":[{"system":"http://terminology.hl7.org/CodeSystem/condition-clinical","code":"active"}]},"category":[{"coding":[{"system":"http://terminology.hl7.org/CodeSystem/condition-category","code":"encounter-diagnosis","display":"Encounter Diagnosis"}]}],"code":{"coding":[{"system":"http://snomed.info/sct","code":"170935008","display":"Full care by hospice (finding)"}]},"subject":{"reference":"Patient/c6ec1681-b011-425a-a850-4e187e9fd927"},"onsetDateTime":"2026-01-01T00:00:00.000+00:00"},"request":{"method":"PUT","url":"Condition/e8e4544f-e063-439e-a584-5077c2f674c6"}},{"fullUrl":"Encounter/29779458-a457-4386-bd72-1d6259a65219","resource":{"resourceType":"Encounter","id":"29779458-a457-4386-bd72-1d6259a65219","meta":{"profile":["http://hl7.org/fhir/us/qicore/StructureDefinition/qicore-encounter"]},"status":"finished","class":{"system":"http://terminology.hl7.org/CodeSystem/v3-ActCode","code":"AMB","display":"ambulatory"},"type":[{"coding":[{"system":"http://snomed.info/sct","code":"185460008","display":"Home visit request by patient (procedure)"}]}],"subject":{"reference":"Patient/c6ec1681-b011-425a-a850-4e187e9fd927"},"period":{"start":"2026-01-01T00:00:00.000+00:00","end":"2026-01-01T01:00:00.000+00:00"}},"request":{"method":"PUT","url":"Encounter/29779458-a457-4386-bd72-1d6259a65219"}}]}