{"resourceType":"Bundle","id":"tests-3aef97c8-9529-433c-95d3-ea01f188e156-bundle","type":"transaction","entry":[{"fullUrl":"Bundle/DENEXPass-PalliativeCareDuringMP","resource":{"resourceType":"Bundle","id":"DENEXPass-PalliativeCareDuringMP","type":"transaction","entry":[{"fullUrl":"https://madie.cms.gov/Patient/3aef97c8-9529-433c-95d3-ea01f188e156","resource":{"resourceType":"Patient","id":"3aef97c8-9529-433c-95d3-ea01f188e156","meta":{"profile":["http://hl7.org/fhir/us/qicore/StructureDefinition/qicore-patient"]},"extension":[{"url":"http://hl7.org/fhir/us/core/StructureDefinition/us-core-race","extension":[{"url":"ombCategory","valueCoding":{"system":"urn:oid:2.16.840.1.113883.6.238","code":"2028-9","display":"Asian"}},{"url":"text","valueString":"Asian"}]},{"url":"http://hl7.org/fhir/us/core/StructureDefinition/us-core-sex","valueCode":"248152002"},{"url":"http://hl7.org/fhir/us/core/StructureDefinition/us-core-ethnicity","extension":[{"url":"ombCategory","valueCoding":{"system":"urn:oid:2.16.840.1.113883.6.238","code":"2135-2","display":"Hispanic or Latino"}},{"url":"text","valueString":"Hispanic or Latino"}]}],"identifier":[{"system":"http://hospital.smarthealthit.org","value":"999999995"}],"name":[{"family":"Bertha","given":["Betty"]}],"gender":"female","birthDate":"2002-12-31"},"request":{"method":"PUT","url":"Patient/3aef97c8-9529-433c-95d3-ea01f188e156"}},{"fullUrl":"https://madie.cms.gov/Encounter/58b99118-4437-4cef-8b0c-5286361703c7","resource":{"resourceType":"Encounter","id":"58b99118-4437-4cef-8b0c-5286361703c7","meta":{"profile":["http://hl7.org/fhir/us/qicore/StructureDefinition/qicore-encounter"]},"status":"finished","class":{"system":"http://terminology.hl7.org/CodeSystem/v3-ActCode","code":"AMB","display":"ambulatory"},"type":[{"coding":[{"system":"http://snomed.info/sct","code":"185317003","display":"Telephone encounter (procedure)"}]}],"subject":{"reference":"Patient/3aef97c8-9529-433c-95d3-ea01f188e156"},"period":{"start":"2026-01-01T01:00:00.000+00:00","end":"2026-01-01T01:15:00.000+00:00"}},"request":{"method":"PUT","url":"Encounter/58b99118-4437-4cef-8b0c-5286361703c7"}},{"fullUrl":"https://madie.cms.gov/Procedure/dab0eef0-eb9a-4bba-9adf-274d2ca0d151","resource":{"resourceType":"Procedure","id":"dab0eef0-eb9a-4bba-9adf-274d2ca0d151","meta":{"profile":["http://hl7.org/fhir/us/qicore/StructureDefinition/qicore-procedure"]},"extension":[{"url":"http://hl7.org/fhir/us/qicore/StructureDefinition/qicore-recorded","valueDateTime":"2026-12-31T23:00:00.000+00:00"}],"status":"completed","code":{"coding":[{"system":"http://snomed.info/sct","code":"103735009","display":"Palliative care (regime/therapy)"}]},"subject":{"reference":"Patient/3aef97c8-9529-433c-95d3-ea01f188e156"},"performedPeriod":{"start":"2026-12-31T23:00:00.000+00:00","end":"2026-12-31T23:59:00.000+00:00"}},"request":{"method":"PUT","url":"Procedure/dab0eef0-eb9a-4bba-9adf-274d2ca0d151"}},{"fullUrl":"https://madie.cms.gov/MeasureReport/71a224d4-fc11-4f45-be91-509d13d81d01","resource":{"resourceType":"MeasureReport","id":"71a224d4-fc11-4f45-be91-509d13d81d01","meta":{"profile":["http://hl7.org/fhir/us/cqfmeasures/StructureDefinition/test-case-cqfm"]},"contained":[{"resourceType":"Parameters","id":"8d9219f7-839e-4aae-9de9-a6696aad53df-parameters","parameter":[{"name":"subject","valueString":"3aef97c8-9529-433c-95d3-ea01f188e156"}]}],"extension":[{"url":"http://hl7.org/fhir/StructureDefinition/cqf-inputParameters","valueReference":{"reference":"#8d9219f7-839e-4aae-9de9-a6696aad53df-parameters"}},{"url":"http://hl7.org/fhir/us/cqfmeasures/StructureDefinition/cqfm-testCaseDescription","valueMarkdown":"Female 24 years old with Palliative Care performed during MP"}],"modifierExtension":[{"url":"http://hl7.org/fhir/us/cqfmeasures/StructureDefinition/cqfm-isTestCase","valueBoolean":true}],"status":"complete","type":"individual","measure":"https://madie.cms.gov/Measure/CMS124FHIRCervicalCancerScreening","period":{"start":"2026-01-01","end":"2026-12-31"},"group":[{"id":"Group_1","population":[{"id":"InitialPopulation_1","code":{"coding":[{"system":"http://terminology.hl7.org/CodeSystem/measure-population","code":"initial-population","display":"Initial Population"}]},"count":1},{"id":"Denominator_1","code":{"coding":[{"system":"http://terminology.hl7.org/CodeSystem/measure-population","code":"denominator","display":"Denominator"}]},"count":1},{"id":"DenominatorExclusion_1","code":{"coding":[{"system":"http://terminology.hl7.org/CodeSystem/measure-population","code":"denominator-exclusion","display":"Denominator Exclusion"}]},"count":1},{"id":"Numerator_1","code":{"coding":[{"system":"http://terminology.hl7.org/CodeSystem/measure-population","code":"numerator","display":"Numerator"}]},"count":0}],"measureScore":{"value":1.0}}],"evaluatedResource":[{"reference":"Patient/3aef97c8-9529-433c-95d3-ea01f188e156"},{"reference":"Encounter/58b99118-4437-4cef-8b0c-5286361703c7"},{"reference":"Procedure/dab0eef0-eb9a-4bba-9adf-274d2ca0d151"}]},"request":{"method":"PUT","url":"MeasureReport/71a224d4-fc11-4f45-be91-509d13d81d01"}}]},"request":{"method":"PUT","url":"Bundle/DENEXPass-PalliativeCareDuringMP"}},{"fullUrl":"Encounter/58b99118-4437-4cef-8b0c-5286361703c7","resource":{"resourceType":"Encounter","id":"58b99118-4437-4cef-8b0c-5286361703c7","meta":{"profile":["http://hl7.org/fhir/us/qicore/StructureDefinition/qicore-encounter"]},"status":"finished","class":{"system":"http://terminology.hl7.org/CodeSystem/v3-ActCode","code":"AMB","display":"ambulatory"},"type":[{"coding":[{"system":"http://snomed.info/sct","code":"185317003","display":"Telephone encounter (procedure)"}]}],"subject":{"reference":"Patient/3aef97c8-9529-433c-95d3-ea01f188e156"},"period":{"start":"2026-01-01T01:00:00.000+00:00","end":"2026-01-01T01:15:00.000+00:00"}},"request":{"method":"PUT","url":"Encounter/58b99118-4437-4cef-8b0c-5286361703c7"}},{"fullUrl":"Procedure/dab0eef0-eb9a-4bba-9adf-274d2ca0d151","resource":{"resourceType":"Procedure","id":"dab0eef0-eb9a-4bba-9adf-274d2ca0d151","meta":{"profile":["http://hl7.org/fhir/us/qicore/StructureDefinition/qicore-procedure"]},"extension":[{"url":"http://hl7.org/fhir/us/qicore/StructureDefinition/qicore-recorded","valueDateTime":"2026-12-31T23:00:00.000+00:00"}],"status":"completed","code":{"coding":[{"system":"http://snomed.info/sct","code":"103735009","display":"Palliative care (regime/therapy)"}]},"subject":{"reference":"Patient/3aef97c8-9529-433c-95d3-ea01f188e156"},"performedPeriod":{"start":"2026-12-31T23:00:00.000+00:00","end":"2026-12-31T23:59:00.000+00:00"}},"request":{"method":"PUT","url":"Procedure/dab0eef0-eb9a-4bba-9adf-274d2ca0d151"}},{"fullUrl":"MeasureReport/71a224d4-fc11-4f45-be91-509d13d81d01","resource":{"resourceType":"MeasureReport","id":"71a224d4-fc11-4f45-be91-509d13d81d01","meta":{"profile":["http://hl7.org/fhir/us/cqfmeasures/StructureDefinition/test-case-cqfm"]},"contained":[{"resourceType":"Parameters","id":"8d9219f7-839e-4aae-9de9-a6696aad53df-parameters","parameter":[{"name":"subject","valueString":"3aef97c8-9529-433c-95d3-ea01f188e156"}]}],"extension":[{"url":"http://hl7.org/fhir/StructureDefinition/cqf-inputParameters","valueReference":{"reference":"#8d9219f7-839e-4aae-9de9-a6696aad53df-parameters"}},{"url":"http://hl7.org/fhir/us/cqfmeasures/StructureDefinition/cqfm-testCaseDescription","valueMarkdown":"Female 24 years old with Palliative Care performed during MP"}],"modifierExtension":[{"url":"http://hl7.org/fhir/us/cqfmeasures/StructureDefinition/cqfm-isTestCase","valueBoolean":true}],"status":"complete","type":"individual","measure":"https://madie.cms.gov/Measure/CMS124FHIRCervicalCancerScreening","period":{"start":"2026-01-01","end":"2026-12-31"},"group":[{"id":"Group_1","population":[{"id":"InitialPopulation_1","code":{"coding":[{"system":"http://terminology.hl7.org/CodeSystem/measure-population","code":"initial-population","display":"Initial Population"}]},"count":1},{"id":"Denominator_1","code":{"coding":[{"system":"http://terminology.hl7.org/CodeSystem/measure-population","code":"denominator","display":"Denominator"}]},"count":1},{"id":"DenominatorExclusion_1","code":{"coding":[{"system":"http://terminology.hl7.org/CodeSystem/measure-population","code":"denominator-exclusion","display":"Denominator Exclusion"}]},"count":1},{"id":"Numerator_1","code":{"coding":[{"system":"http://terminology.hl7.org/CodeSystem/measure-population","code":"numerator","display":"Numerator"}]},"count":0}],"measureScore":{"value":1.0}}],"evaluatedResource":[{"reference":"Patient/3aef97c8-9529-433c-95d3-ea01f188e156"},{"reference":"Encounter/58b99118-4437-4cef-8b0c-5286361703c7"},{"reference":"Procedure/dab0eef0-eb9a-4bba-9adf-274d2ca0d151"}]},"request":{"method":"PUT","url":"MeasureReport/71a224d4-fc11-4f45-be91-509d13d81d01"}},{"fullUrl":"Patient/3aef97c8-9529-433c-95d3-ea01f188e156","resource":{"resourceType":"Patient","id":"3aef97c8-9529-433c-95d3-ea01f188e156","meta":{"profile":["http://hl7.org/fhir/us/qicore/StructureDefinition/qicore-patient"]},"extension":[{"url":"http://hl7.org/fhir/us/core/StructureDefinition/us-core-race","extension":[{"url":"ombCategory","valueCoding":{"system":"urn:oid:2.16.840.1.113883.6.238","code":"2028-9","display":"Asian"}},{"url":"text","valueString":"Asian"}]},{"url":"http://hl7.org/fhir/us/core/StructureDefinition/us-core-sex","valueCode":"248152002"},{"url":"http://hl7.org/fhir/us/core/StructureDefinition/us-core-ethnicity","extension":[{"url":"ombCategory","valueCoding":{"system":"urn:oid:2.16.840.1.113883.6.238","code":"2135-2","display":"Hispanic or Latino"}},{"url":"text","valueString":"Hispanic or Latino"}]}],"identifier":[{"system":"http://hospital.smarthealthit.org","value":"999999995"}],"name":[{"family":"Bertha","given":["Betty"]}],"gender":"female","birthDate":"2002-12-31"},"request":{"method":"PUT","url":"Patient/3aef97c8-9529-433c-95d3-ea01f188e156"}}]}