{"resourceType":"Bundle","id":"tests-0e296f04-855b-42ad-aa20-295a719a96e5-bundle","type":"transaction","entry":[{"fullUrl":"Patient/0e296f04-855b-42ad-aa20-295a719a96e5","resource":{"resourceType":"Patient","id":"0e296f04-855b-42ad-aa20-295a719a96e5","meta":{"profile":["http://hl7.org/fhir/us/qicore/StructureDefinition/qicore-patient"]},"extension":[{"url":"http://hl7.org/fhir/us/core/StructureDefinition/us-core-race","extension":[{"url":"ombCategory","valueCoding":{"system":"urn:oid:2.16.840.1.113883.6.238","code":"2028-9","display":"Asian"}},{"url":"text","valueString":"Asian"}]},{"url":"http://hl7.org/fhir/us/core/StructureDefinition/us-core-sex","valueCode":"248152002"},{"url":"http://hl7.org/fhir/us/core/StructureDefinition/us-core-ethnicity","extension":[{"url":"ombCategory","valueCoding":{"system":"urn:oid:2.16.840.1.113883.6.238","code":"2135-2","display":"Hispanic or Latino"}},{"url":"text","valueString":"Hispanic or Latino"}]}],"identifier":[{"system":"http://hospital.smarthealthit.org","value":"999999995"}],"name":[{"family":"Bertha","given":["Betty"]}],"gender":"female","birthDate":"2002-12-31"},"request":{"method":"PUT","url":"Patient/0e296f04-855b-42ad-aa20-295a719a96e5"}},{"fullUrl":"Bundle/DENEXPass-PalliativeCareEncOverlapsMP","resource":{"resourceType":"Bundle","id":"DENEXPass-PalliativeCareEncOverlapsMP","type":"transaction","entry":[{"fullUrl":"https://madie.cms.gov/Patient/0e296f04-855b-42ad-aa20-295a719a96e5","resource":{"resourceType":"Patient","id":"0e296f04-855b-42ad-aa20-295a719a96e5","meta":{"profile":["http://hl7.org/fhir/us/qicore/StructureDefinition/qicore-patient"]},"extension":[{"url":"http://hl7.org/fhir/us/core/StructureDefinition/us-core-race","extension":[{"url":"ombCategory","valueCoding":{"system":"urn:oid:2.16.840.1.113883.6.238","code":"2028-9","display":"Asian"}},{"url":"text","valueString":"Asian"}]},{"url":"http://hl7.org/fhir/us/core/StructureDefinition/us-core-sex","valueCode":"248152002"},{"url":"http://hl7.org/fhir/us/core/StructureDefinition/us-core-ethnicity","extension":[{"url":"ombCategory","valueCoding":{"system":"urn:oid:2.16.840.1.113883.6.238","code":"2135-2","display":"Hispanic or Latino"}},{"url":"text","valueString":"Hispanic or Latino"}]}],"identifier":[{"system":"http://hospital.smarthealthit.org","value":"999999995"}],"name":[{"family":"Bertha","given":["Betty"]}],"gender":"female","birthDate":"2002-12-31"},"request":{"method":"PUT","url":"Patient/0e296f04-855b-42ad-aa20-295a719a96e5"}},{"fullUrl":"https://madie.cms.gov/Encounter/559c002c-6eaa-407f-aa08-db2c0ce5bb5a","resource":{"resourceType":"Encounter","id":"559c002c-6eaa-407f-aa08-db2c0ce5bb5a","meta":{"profile":["http://hl7.org/fhir/us/qicore/StructureDefinition/qicore-encounter"]},"status":"finished","class":{"system":"http://terminology.hl7.org/CodeSystem/v3-ActCode","code":"AMB","display":"ambulatory"},"type":[{"coding":[{"system":"http://snomed.info/sct","code":"185460008","display":"Home visit request by patient (procedure)"}]}],"subject":{"reference":"Patient/0e296f04-855b-42ad-aa20-295a719a96e5"},"period":{"start":"2026-01-01T00:00:00.000+00:00","end":"2026-01-01T01:00:00.000+00:00"}},"request":{"method":"PUT","url":"Encounter/559c002c-6eaa-407f-aa08-db2c0ce5bb5a"}},{"fullUrl":"https://madie.cms.gov/Encounter/4bd75557-25e2-4b08-954e-4209df625ab9","resource":{"resourceType":"Encounter","id":"4bd75557-25e2-4b08-954e-4209df625ab9","meta":{"profile":["http://hl7.org/fhir/us/qicore/StructureDefinition/qicore-encounter"]},"status":"finished","class":{"system":"http://terminology.hl7.org/CodeSystem/v3-ActCode","code":"AMB","display":"ambulatory"},"type":[{"coding":[{"system":"http://snomed.info/sct","code":"305284002","display":"Admission by palliative care physician (procedure)"}]}],"subject":{"reference":"Patient/0e296f04-855b-42ad-aa20-295a719a96e5"},"period":{"start":"2025-12-31T23:59:59.000+00:00","end":"2026-01-01T01:00:00.000+00:00"}},"request":{"method":"PUT","url":"Encounter/4bd75557-25e2-4b08-954e-4209df625ab9"}},{"fullUrl":"https://madie.cms.gov/MeasureReport/2fc4af15-b6ae-4d31-8276-24f16d535feb","resource":{"resourceType":"MeasureReport","id":"2fc4af15-b6ae-4d31-8276-24f16d535feb","meta":{"profile":["http://hl7.org/fhir/us/cqfmeasures/StructureDefinition/test-case-cqfm"]},"contained":[{"resourceType":"Parameters","id":"b4bb0fe1-5332-4fc2-9349-abe56c0deb25-parameters","parameter":[{"name":"subject","valueString":"0e296f04-855b-42ad-aa20-295a719a96e5"}]}],"extension":[{"url":"http://hl7.org/fhir/StructureDefinition/cqf-inputParameters","valueReference":{"reference":"#b4bb0fe1-5332-4fc2-9349-abe56c0deb25-parameters"}},{"url":"http://hl7.org/fhir/us/cqfmeasures/StructureDefinition/cqfm-testCaseDescription","valueMarkdown":"Palliative Care Encounter - For meeting 100% coverage"}],"modifierExtension":[{"url":"http://hl7.org/fhir/us/cqfmeasures/StructureDefinition/cqfm-isTestCase","valueBoolean":true}],"status":"complete","type":"individual","measure":"https://madie.cms.gov/Measure/CMS124FHIRCervicalCancerScreening","period":{"start":"2026-01-01","end":"2026-12-31"},"group":[{"id":"Group_1","population":[{"id":"InitialPopulation_1","code":{"coding":[{"system":"http://terminology.hl7.org/CodeSystem/measure-population","code":"initial-population","display":"Initial Population"}]},"count":1},{"id":"Denominator_1","code":{"coding":[{"system":"http://terminology.hl7.org/CodeSystem/measure-population","code":"denominator","display":"Denominator"}]},"count":1},{"id":"DenominatorExclusion_1","code":{"coding":[{"system":"http://terminology.hl7.org/CodeSystem/measure-population","code":"denominator-exclusion","display":"Denominator Exclusion"}]},"count":1},{"id":"Numerator_1","code":{"coding":[{"system":"http://terminology.hl7.org/CodeSystem/measure-population","code":"numerator","display":"Numerator"}]},"count":0}],"measureScore":{"value":1.0}}],"evaluatedResource":[{"reference":"Patient/0e296f04-855b-42ad-aa20-295a719a96e5"},{"reference":"Encounter/559c002c-6eaa-407f-aa08-db2c0ce5bb5a"},{"reference":"Encounter/4bd75557-25e2-4b08-954e-4209df625ab9"}]},"request":{"method":"PUT","url":"MeasureReport/2fc4af15-b6ae-4d31-8276-24f16d535feb"}}]},"request":{"method":"PUT","url":"Bundle/DENEXPass-PalliativeCareEncOverlapsMP"}},{"fullUrl":"MeasureReport/2fc4af15-b6ae-4d31-8276-24f16d535feb","resource":{"resourceType":"MeasureReport","id":"2fc4af15-b6ae-4d31-8276-24f16d535feb","meta":{"profile":["http://hl7.org/fhir/us/cqfmeasures/StructureDefinition/test-case-cqfm"]},"contained":[{"resourceType":"Parameters","id":"b4bb0fe1-5332-4fc2-9349-abe56c0deb25-parameters","parameter":[{"name":"subject","valueString":"0e296f04-855b-42ad-aa20-295a719a96e5"}]}],"extension":[{"url":"http://hl7.org/fhir/StructureDefinition/cqf-inputParameters","valueReference":{"reference":"#b4bb0fe1-5332-4fc2-9349-abe56c0deb25-parameters"}},{"url":"http://hl7.org/fhir/us/cqfmeasures/StructureDefinition/cqfm-testCaseDescription","valueMarkdown":"Palliative Care Encounter - For meeting 100% coverage"}],"modifierExtension":[{"url":"http://hl7.org/fhir/us/cqfmeasures/StructureDefinition/cqfm-isTestCase","valueBoolean":true}],"status":"complete","type":"individual","measure":"https://madie.cms.gov/Measure/CMS124FHIRCervicalCancerScreening","period":{"start":"2026-01-01","end":"2026-12-31"},"group":[{"id":"Group_1","population":[{"id":"InitialPopulation_1","code":{"coding":[{"system":"http://terminology.hl7.org/CodeSystem/measure-population","code":"initial-population","display":"Initial Population"}]},"count":1},{"id":"Denominator_1","code":{"coding":[{"system":"http://terminology.hl7.org/CodeSystem/measure-population","code":"denominator","display":"Denominator"}]},"count":1},{"id":"DenominatorExclusion_1","code":{"coding":[{"system":"http://terminology.hl7.org/CodeSystem/measure-population","code":"denominator-exclusion","display":"Denominator Exclusion"}]},"count":1},{"id":"Numerator_1","code":{"coding":[{"system":"http://terminology.hl7.org/CodeSystem/measure-population","code":"numerator","display":"Numerator"}]},"count":0}],"measureScore":{"value":1.0}}],"evaluatedResource":[{"reference":"Patient/0e296f04-855b-42ad-aa20-295a719a96e5"},{"reference":"Encounter/559c002c-6eaa-407f-aa08-db2c0ce5bb5a"},{"reference":"Encounter/4bd75557-25e2-4b08-954e-4209df625ab9"}]},"request":{"method":"PUT","url":"MeasureReport/2fc4af15-b6ae-4d31-8276-24f16d535feb"}},{"fullUrl":"Encounter/559c002c-6eaa-407f-aa08-db2c0ce5bb5a","resource":{"resourceType":"Encounter","id":"559c002c-6eaa-407f-aa08-db2c0ce5bb5a","meta":{"profile":["http://hl7.org/fhir/us/qicore/StructureDefinition/qicore-encounter"]},"status":"finished","class":{"system":"http://terminology.hl7.org/CodeSystem/v3-ActCode","code":"AMB","display":"ambulatory"},"type":[{"coding":[{"system":"http://snomed.info/sct","code":"185460008","display":"Home visit request by patient (procedure)"}]}],"subject":{"reference":"Patient/0e296f04-855b-42ad-aa20-295a719a96e5"},"period":{"start":"2026-01-01T00:00:00.000+00:00","end":"2026-01-01T01:00:00.000+00:00"}},"request":{"method":"PUT","url":"Encounter/559c002c-6eaa-407f-aa08-db2c0ce5bb5a"}},{"fullUrl":"Encounter/4bd75557-25e2-4b08-954e-4209df625ab9","resource":{"resourceType":"Encounter","id":"4bd75557-25e2-4b08-954e-4209df625ab9","meta":{"profile":["http://hl7.org/fhir/us/qicore/StructureDefinition/qicore-encounter"]},"status":"finished","class":{"system":"http://terminology.hl7.org/CodeSystem/v3-ActCode","code":"AMB","display":"ambulatory"},"type":[{"coding":[{"system":"http://snomed.info/sct","code":"305284002","display":"Admission by palliative care physician (procedure)"}]}],"subject":{"reference":"Patient/0e296f04-855b-42ad-aa20-295a719a96e5"},"period":{"start":"2025-12-31T23:59:59.000+00:00","end":"2026-01-01T01:00:00.000+00:00"}},"request":{"method":"PUT","url":"Encounter/4bd75557-25e2-4b08-954e-4209df625ab9"}}]}