{"resourceType":"Bundle","id":"tests-3e21058f-64cc-4b0a-8c84-1122df974dae-bundle","type":"transaction","entry":[{"fullUrl":"Encounter/cc5995ff-99f1-4378-adb9-e820145b29b7","resource":{"resourceType":"Encounter","id":"cc5995ff-99f1-4378-adb9-e820145b29b7","meta":{"profile":["http://hl7.org/fhir/us/qicore/StructureDefinition/qicore-encounter"]},"status":"finished","class":{"system":"http://terminology.hl7.org/CodeSystem/v3-ActCode","code":"AMB","display":"ambulatory"},"type":[{"coding":[{"system":"http://snomed.info/sct","code":"185317003","display":"Telephone encounter (procedure)"}]}],"subject":{"reference":"Patient/3e21058f-64cc-4b0a-8c84-1122df974dae"},"period":{"start":"2026-01-01T01:00:00.000+00:00","end":"2026-01-01T01:15:00.000+00:00"}},"request":{"method":"PUT","url":"Encounter/cc5995ff-99f1-4378-adb9-e820145b29b7"}},{"fullUrl":"Procedure/3ba55e5b-9005-439d-9a62-4706d754c290","resource":{"resourceType":"Procedure","id":"3ba55e5b-9005-439d-9a62-4706d754c290","meta":{"profile":["http://hl7.org/fhir/us/qicore/StructureDefinition/qicore-procedure"]},"extension":[{"url":"http://hl7.org/fhir/us/qicore/StructureDefinition/qicore-recorded","valueDateTime":"2027-01-01T01:00:00.000+00:00"}],"status":"completed","code":{"coding":[{"system":"http://snomed.info/sct","code":"103735009","display":"Palliative care (regime/therapy)"}]},"subject":{"reference":"Patient/3e21058f-64cc-4b0a-8c84-1122df974dae"},"performedPeriod":{"start":"2027-01-01T01:00:00.000+00:00","end":"2027-01-01T01:00:00.000+00:00"}},"request":{"method":"PUT","url":"Procedure/3ba55e5b-9005-439d-9a62-4706d754c290"}},{"fullUrl":"Bundle/DENEXFail-PalliativeCareAfterMP","resource":{"resourceType":"Bundle","id":"DENEXFail-PalliativeCareAfterMP","type":"transaction","entry":[{"fullUrl":"https://madie.cms.gov/Patient/3e21058f-64cc-4b0a-8c84-1122df974dae","resource":{"resourceType":"Patient","id":"3e21058f-64cc-4b0a-8c84-1122df974dae","meta":{"profile":["http://hl7.org/fhir/us/qicore/StructureDefinition/qicore-patient"]},"extension":[{"url":"http://hl7.org/fhir/us/core/StructureDefinition/us-core-race","extension":[{"url":"ombCategory","valueCoding":{"system":"urn:oid:2.16.840.1.113883.6.238","code":"2028-9","display":"Asian"}},{"url":"text","valueString":"Asian"}]},{"url":"http://hl7.org/fhir/us/core/StructureDefinition/us-core-sex","valueCode":"248152002"},{"url":"http://hl7.org/fhir/us/core/StructureDefinition/us-core-ethnicity","extension":[{"url":"ombCategory","valueCoding":{"system":"urn:oid:2.16.840.1.113883.6.238","code":"2135-2","display":"Hispanic or Latino"}},{"url":"text","valueString":"Hispanic or Latino"}]}],"identifier":[{"system":"http://hospital.smarthealthit.org","value":"999999995"}],"name":[{"family":"Bertha","given":["Betty"]}],"gender":"female","birthDate":"2002-12-31"},"request":{"method":"PUT","url":"Patient/3e21058f-64cc-4b0a-8c84-1122df974dae"}},{"fullUrl":"https://madie.cms.gov/Encounter/cc5995ff-99f1-4378-adb9-e820145b29b7","resource":{"resourceType":"Encounter","id":"cc5995ff-99f1-4378-adb9-e820145b29b7","meta":{"profile":["http://hl7.org/fhir/us/qicore/StructureDefinition/qicore-encounter"]},"status":"finished","class":{"system":"http://terminology.hl7.org/CodeSystem/v3-ActCode","code":"AMB","display":"ambulatory"},"type":[{"coding":[{"system":"http://snomed.info/sct","code":"185317003","display":"Telephone encounter (procedure)"}]}],"subject":{"reference":"Patient/3e21058f-64cc-4b0a-8c84-1122df974dae"},"period":{"start":"2026-01-01T01:00:00.000+00:00","end":"2026-01-01T01:15:00.000+00:00"}},"request":{"method":"PUT","url":"Encounter/cc5995ff-99f1-4378-adb9-e820145b29b7"}},{"fullUrl":"https://madie.cms.gov/Procedure/3ba55e5b-9005-439d-9a62-4706d754c290","resource":{"resourceType":"Procedure","id":"3ba55e5b-9005-439d-9a62-4706d754c290","meta":{"profile":["http://hl7.org/fhir/us/qicore/StructureDefinition/qicore-procedure"]},"extension":[{"url":"http://hl7.org/fhir/us/qicore/StructureDefinition/qicore-recorded","valueDateTime":"2027-01-01T01:00:00.000+00:00"}],"status":"completed","code":{"coding":[{"system":"http://snomed.info/sct","code":"103735009","display":"Palliative care (regime/therapy)"}]},"subject":{"reference":"Patient/3e21058f-64cc-4b0a-8c84-1122df974dae"},"performedPeriod":{"start":"2027-01-01T01:00:00.000+00:00","end":"2027-01-01T01:00:00.000+00:00"}},"request":{"method":"PUT","url":"Procedure/3ba55e5b-9005-439d-9a62-4706d754c290"}},{"fullUrl":"https://madie.cms.gov/MeasureReport/79bc93d0-5ee2-4947-8d1f-fac341329b65","resource":{"resourceType":"MeasureReport","id":"79bc93d0-5ee2-4947-8d1f-fac341329b65","meta":{"profile":["http://hl7.org/fhir/us/cqfmeasures/StructureDefinition/test-case-cqfm"]},"contained":[{"resourceType":"Parameters","id":"f04b466f-2982-475c-be7c-43b64b74ff2a-parameters","parameter":[{"name":"subject","valueString":"3e21058f-64cc-4b0a-8c84-1122df974dae"}]}],"extension":[{"url":"http://hl7.org/fhir/StructureDefinition/cqf-inputParameters","valueReference":{"reference":"#f04b466f-2982-475c-be7c-43b64b74ff2a-parameters"}},{"url":"http://hl7.org/fhir/us/cqfmeasures/StructureDefinition/cqfm-testCaseDescription","valueMarkdown":"Female 24 years old with Palliative Care performed after MP"}],"modifierExtension":[{"url":"http://hl7.org/fhir/us/cqfmeasures/StructureDefinition/cqfm-isTestCase","valueBoolean":true}],"status":"complete","type":"individual","measure":"https://madie.cms.gov/Measure/CMS124FHIRCervicalCancerScreening","period":{"start":"2026-01-01","end":"2026-12-31"},"group":[{"id":"Group_1","population":[{"id":"InitialPopulation_1","code":{"coding":[{"system":"http://terminology.hl7.org/CodeSystem/measure-population","code":"initial-population","display":"Initial Population"}]},"count":1},{"id":"Denominator_1","code":{"coding":[{"system":"http://terminology.hl7.org/CodeSystem/measure-population","code":"denominator","display":"Denominator"}]},"count":1},{"id":"DenominatorExclusion_1","code":{"coding":[{"system":"http://terminology.hl7.org/CodeSystem/measure-population","code":"denominator-exclusion","display":"Denominator Exclusion"}]},"count":0},{"id":"Numerator_1","code":{"coding":[{"system":"http://terminology.hl7.org/CodeSystem/measure-population","code":"numerator","display":"Numerator"}]},"count":0}],"measureScore":{"value":1.0}}],"evaluatedResource":[{"reference":"Patient/3e21058f-64cc-4b0a-8c84-1122df974dae"},{"reference":"Encounter/cc5995ff-99f1-4378-adb9-e820145b29b7"},{"reference":"Procedure/3ba55e5b-9005-439d-9a62-4706d754c290"}]},"request":{"method":"PUT","url":"MeasureReport/79bc93d0-5ee2-4947-8d1f-fac341329b65"}}]},"request":{"method":"PUT","url":"Bundle/DENEXFail-PalliativeCareAfterMP"}},{"fullUrl":"Patient/3e21058f-64cc-4b0a-8c84-1122df974dae","resource":{"resourceType":"Patient","id":"3e21058f-64cc-4b0a-8c84-1122df974dae","meta":{"profile":["http://hl7.org/fhir/us/qicore/StructureDefinition/qicore-patient"]},"extension":[{"url":"http://hl7.org/fhir/us/core/StructureDefinition/us-core-race","extension":[{"url":"ombCategory","valueCoding":{"system":"urn:oid:2.16.840.1.113883.6.238","code":"2028-9","display":"Asian"}},{"url":"text","valueString":"Asian"}]},{"url":"http://hl7.org/fhir/us/core/StructureDefinition/us-core-sex","valueCode":"248152002"},{"url":"http://hl7.org/fhir/us/core/StructureDefinition/us-core-ethnicity","extension":[{"url":"ombCategory","valueCoding":{"system":"urn:oid:2.16.840.1.113883.6.238","code":"2135-2","display":"Hispanic or Latino"}},{"url":"text","valueString":"Hispanic or Latino"}]}],"identifier":[{"system":"http://hospital.smarthealthit.org","value":"999999995"}],"name":[{"family":"Bertha","given":["Betty"]}],"gender":"female","birthDate":"2002-12-31"},"request":{"method":"PUT","url":"Patient/3e21058f-64cc-4b0a-8c84-1122df974dae"}},{"fullUrl":"MeasureReport/79bc93d0-5ee2-4947-8d1f-fac341329b65","resource":{"resourceType":"MeasureReport","id":"79bc93d0-5ee2-4947-8d1f-fac341329b65","meta":{"profile":["http://hl7.org/fhir/us/cqfmeasures/StructureDefinition/test-case-cqfm"]},"contained":[{"resourceType":"Parameters","id":"f04b466f-2982-475c-be7c-43b64b74ff2a-parameters","parameter":[{"name":"subject","valueString":"3e21058f-64cc-4b0a-8c84-1122df974dae"}]}],"extension":[{"url":"http://hl7.org/fhir/StructureDefinition/cqf-inputParameters","valueReference":{"reference":"#f04b466f-2982-475c-be7c-43b64b74ff2a-parameters"}},{"url":"http://hl7.org/fhir/us/cqfmeasures/StructureDefinition/cqfm-testCaseDescription","valueMarkdown":"Female 24 years old with Palliative Care performed after MP"}],"modifierExtension":[{"url":"http://hl7.org/fhir/us/cqfmeasures/StructureDefinition/cqfm-isTestCase","valueBoolean":true}],"status":"complete","type":"individual","measure":"https://madie.cms.gov/Measure/CMS124FHIRCervicalCancerScreening","period":{"start":"2026-01-01","end":"2026-12-31"},"group":[{"id":"Group_1","population":[{"id":"InitialPopulation_1","code":{"coding":[{"system":"http://terminology.hl7.org/CodeSystem/measure-population","code":"initial-population","display":"Initial Population"}]},"count":1},{"id":"Denominator_1","code":{"coding":[{"system":"http://terminology.hl7.org/CodeSystem/measure-population","code":"denominator","display":"Denominator"}]},"count":1},{"id":"DenominatorExclusion_1","code":{"coding":[{"system":"http://terminology.hl7.org/CodeSystem/measure-population","code":"denominator-exclusion","display":"Denominator Exclusion"}]},"count":0},{"id":"Numerator_1","code":{"coding":[{"system":"http://terminology.hl7.org/CodeSystem/measure-population","code":"numerator","display":"Numerator"}]},"count":0}],"measureScore":{"value":1.0}}],"evaluatedResource":[{"reference":"Patient/3e21058f-64cc-4b0a-8c84-1122df974dae"},{"reference":"Encounter/cc5995ff-99f1-4378-adb9-e820145b29b7"},{"reference":"Procedure/3ba55e5b-9005-439d-9a62-4706d754c290"}]},"request":{"method":"PUT","url":"MeasureReport/79bc93d0-5ee2-4947-8d1f-fac341329b65"}}]}