{"resourceType":"Bundle","id":"tests-ab346cb5-2c55-4171-93ea-aac9d266e6c7-bundle","type":"transaction","entry":[{"fullUrl":"Procedure/0a9b585b-e9e1-486e-ba78-bd2a303c6c74","resource":{"resourceType":"Procedure","id":"0a9b585b-e9e1-486e-ba78-bd2a303c6c74","meta":{"profile":["http://hl7.org/fhir/us/qicore/StructureDefinition/qicore-procedure"]},"extension":[{"url":"http://hl7.org/fhir/us/qicore/StructureDefinition/qicore-recorded","valueDateTime":"2026-12-31T23:00:00.000+00:00"}],"status":"completed","code":{"coding":[{"system":"http://snomed.info/sct","code":"385763009","display":"Hospice care (regime/therapy)"}]},"subject":{"reference":"Patient/ab346cb5-2c55-4171-93ea-aac9d266e6c7"},"performedPeriod":{"start":"2026-12-31T23:00:00.000+00:00","end":"2026-12-31T23:59:00.000+00:00"}},"request":{"method":"PUT","url":"Procedure/0a9b585b-e9e1-486e-ba78-bd2a303c6c74"}},{"fullUrl":"Bundle/DENEXPass-HospiceServiceDuringMP","resource":{"resourceType":"Bundle","id":"DENEXPass-HospiceServiceDuringMP","type":"transaction","entry":[{"fullUrl":"https://madie.cms.gov/Patient/ab346cb5-2c55-4171-93ea-aac9d266e6c7","resource":{"resourceType":"Patient","id":"ab346cb5-2c55-4171-93ea-aac9d266e6c7","meta":{"profile":["http://hl7.org/fhir/us/qicore/StructureDefinition/qicore-patient"]},"extension":[{"url":"http://hl7.org/fhir/us/core/StructureDefinition/us-core-race","extension":[{"url":"ombCategory","valueCoding":{"system":"urn:oid:2.16.840.1.113883.6.238","code":"2028-9","display":"Asian"}},{"url":"text","valueString":"Asian"}]},{"url":"http://hl7.org/fhir/us/core/StructureDefinition/us-core-sex","valueCode":"248152002"},{"url":"http://hl7.org/fhir/us/core/StructureDefinition/us-core-ethnicity","extension":[{"url":"ombCategory","valueCoding":{"system":"urn:oid:2.16.840.1.113883.6.238","code":"2135-2","display":"Hispanic or Latino"}},{"url":"text","valueString":"Hispanic or Latino"}]}],"identifier":[{"system":"http://hospital.smarthealthit.org","value":"999999995"}],"name":[{"family":"Bertha","given":["Betty"]}],"gender":"female","birthDate":"2002-12-31"},"request":{"method":"PUT","url":"Patient/ab346cb5-2c55-4171-93ea-aac9d266e6c7"}},{"fullUrl":"https://madie.cms.gov/Encounter/590866ae-ea8d-40c9-8838-6678ed546a6d","resource":{"resourceType":"Encounter","id":"590866ae-ea8d-40c9-8838-6678ed546a6d","meta":{"profile":["http://hl7.org/fhir/us/qicore/StructureDefinition/qicore-encounter"]},"status":"finished","class":{"system":"http://terminology.hl7.org/CodeSystem/v3-ActCode","code":"AMB","display":"ambulatory"},"type":[{"coding":[{"system":"http://snomed.info/sct","code":"185317003","display":"Telephone encounter (procedure)"}]}],"subject":{"reference":"Patient/ab346cb5-2c55-4171-93ea-aac9d266e6c7"},"period":{"start":"2026-01-01T01:00:00.000+00:00","end":"2026-01-01T01:15:00.000+00:00"}},"request":{"method":"PUT","url":"Encounter/590866ae-ea8d-40c9-8838-6678ed546a6d"}},{"fullUrl":"https://madie.cms.gov/Procedure/0a9b585b-e9e1-486e-ba78-bd2a303c6c74","resource":{"resourceType":"Procedure","id":"0a9b585b-e9e1-486e-ba78-bd2a303c6c74","meta":{"profile":["http://hl7.org/fhir/us/qicore/StructureDefinition/qicore-procedure"]},"extension":[{"url":"http://hl7.org/fhir/us/qicore/StructureDefinition/qicore-recorded","valueDateTime":"2026-12-31T23:00:00.000+00:00"}],"status":"completed","code":{"coding":[{"system":"http://snomed.info/sct","code":"385763009","display":"Hospice care (regime/therapy)"}]},"subject":{"reference":"Patient/ab346cb5-2c55-4171-93ea-aac9d266e6c7"},"performedPeriod":{"start":"2026-12-31T23:00:00.000+00:00","end":"2026-12-31T23:59:00.000+00:00"}},"request":{"method":"PUT","url":"Procedure/0a9b585b-e9e1-486e-ba78-bd2a303c6c74"}},{"fullUrl":"https://madie.cms.gov/MeasureReport/920aafde-501a-4ab7-ac3c-68d963fb787b","resource":{"resourceType":"MeasureReport","id":"920aafde-501a-4ab7-ac3c-68d963fb787b","meta":{"profile":["http://hl7.org/fhir/us/cqfmeasures/StructureDefinition/test-case-cqfm"]},"contained":[{"resourceType":"Parameters","id":"1153000b-ccee-42a8-a5a1-af0c6c21629b-parameters","parameter":[{"name":"subject","valueString":"ab346cb5-2c55-4171-93ea-aac9d266e6c7"}]}],"extension":[{"url":"http://hl7.org/fhir/StructureDefinition/cqf-inputParameters","valueReference":{"reference":"#1153000b-ccee-42a8-a5a1-af0c6c21629b-parameters"}},{"url":"http://hl7.org/fhir/us/cqfmeasures/StructureDefinition/cqfm-testCaseDescription","valueMarkdown":"Female 24 years old with Hospice Services performed during MP"}],"modifierExtension":[{"url":"http://hl7.org/fhir/us/cqfmeasures/StructureDefinition/cqfm-isTestCase","valueBoolean":true}],"status":"complete","type":"individual","measure":"https://madie.cms.gov/Measure/CMS124FHIRCervicalCancerScreening","period":{"start":"2026-01-01","end":"2026-12-31"},"group":[{"id":"Group_1","population":[{"id":"InitialPopulation_1","code":{"coding":[{"system":"http://terminology.hl7.org/CodeSystem/measure-population","code":"initial-population","display":"Initial Population"}]},"count":1},{"id":"Denominator_1","code":{"coding":[{"system":"http://terminology.hl7.org/CodeSystem/measure-population","code":"denominator","display":"Denominator"}]},"count":1},{"id":"DenominatorExclusion_1","code":{"coding":[{"system":"http://terminology.hl7.org/CodeSystem/measure-population","code":"denominator-exclusion","display":"Denominator Exclusion"}]},"count":1},{"id":"Numerator_1","code":{"coding":[{"system":"http://terminology.hl7.org/CodeSystem/measure-population","code":"numerator","display":"Numerator"}]},"count":0}],"measureScore":{"value":1.0}}],"evaluatedResource":[{"reference":"Patient/ab346cb5-2c55-4171-93ea-aac9d266e6c7"},{"reference":"Encounter/590866ae-ea8d-40c9-8838-6678ed546a6d"},{"reference":"Procedure/0a9b585b-e9e1-486e-ba78-bd2a303c6c74"}]},"request":{"method":"PUT","url":"MeasureReport/920aafde-501a-4ab7-ac3c-68d963fb787b"}}]},"request":{"method":"PUT","url":"Bundle/DENEXPass-HospiceServiceDuringMP"}},{"fullUrl":"Encounter/590866ae-ea8d-40c9-8838-6678ed546a6d","resource":{"resourceType":"Encounter","id":"590866ae-ea8d-40c9-8838-6678ed546a6d","meta":{"profile":["http://hl7.org/fhir/us/qicore/StructureDefinition/qicore-encounter"]},"status":"finished","class":{"system":"http://terminology.hl7.org/CodeSystem/v3-ActCode","code":"AMB","display":"ambulatory"},"type":[{"coding":[{"system":"http://snomed.info/sct","code":"185317003","display":"Telephone encounter (procedure)"}]}],"subject":{"reference":"Patient/ab346cb5-2c55-4171-93ea-aac9d266e6c7"},"period":{"start":"2026-01-01T01:00:00.000+00:00","end":"2026-01-01T01:15:00.000+00:00"}},"request":{"method":"PUT","url":"Encounter/590866ae-ea8d-40c9-8838-6678ed546a6d"}},{"fullUrl":"MeasureReport/920aafde-501a-4ab7-ac3c-68d963fb787b","resource":{"resourceType":"MeasureReport","id":"920aafde-501a-4ab7-ac3c-68d963fb787b","meta":{"profile":["http://hl7.org/fhir/us/cqfmeasures/StructureDefinition/test-case-cqfm"]},"contained":[{"resourceType":"Parameters","id":"1153000b-ccee-42a8-a5a1-af0c6c21629b-parameters","parameter":[{"name":"subject","valueString":"ab346cb5-2c55-4171-93ea-aac9d266e6c7"}]}],"extension":[{"url":"http://hl7.org/fhir/StructureDefinition/cqf-inputParameters","valueReference":{"reference":"#1153000b-ccee-42a8-a5a1-af0c6c21629b-parameters"}},{"url":"http://hl7.org/fhir/us/cqfmeasures/StructureDefinition/cqfm-testCaseDescription","valueMarkdown":"Female 24 years old with Hospice Services performed during MP"}],"modifierExtension":[{"url":"http://hl7.org/fhir/us/cqfmeasures/StructureDefinition/cqfm-isTestCase","valueBoolean":true}],"status":"complete","type":"individual","measure":"https://madie.cms.gov/Measure/CMS124FHIRCervicalCancerScreening","period":{"start":"2026-01-01","end":"2026-12-31"},"group":[{"id":"Group_1","population":[{"id":"InitialPopulation_1","code":{"coding":[{"system":"http://terminology.hl7.org/CodeSystem/measure-population","code":"initial-population","display":"Initial Population"}]},"count":1},{"id":"Denominator_1","code":{"coding":[{"system":"http://terminology.hl7.org/CodeSystem/measure-population","code":"denominator","display":"Denominator"}]},"count":1},{"id":"DenominatorExclusion_1","code":{"coding":[{"system":"http://terminology.hl7.org/CodeSystem/measure-population","code":"denominator-exclusion","display":"Denominator Exclusion"}]},"count":1},{"id":"Numerator_1","code":{"coding":[{"system":"http://terminology.hl7.org/CodeSystem/measure-population","code":"numerator","display":"Numerator"}]},"count":0}],"measureScore":{"value":1.0}}],"evaluatedResource":[{"reference":"Patient/ab346cb5-2c55-4171-93ea-aac9d266e6c7"},{"reference":"Encounter/590866ae-ea8d-40c9-8838-6678ed546a6d"},{"reference":"Procedure/0a9b585b-e9e1-486e-ba78-bd2a303c6c74"}]},"request":{"method":"PUT","url":"MeasureReport/920aafde-501a-4ab7-ac3c-68d963fb787b"}},{"fullUrl":"Patient/ab346cb5-2c55-4171-93ea-aac9d266e6c7","resource":{"resourceType":"Patient","id":"ab346cb5-2c55-4171-93ea-aac9d266e6c7","meta":{"profile":["http://hl7.org/fhir/us/qicore/StructureDefinition/qicore-patient"]},"extension":[{"url":"http://hl7.org/fhir/us/core/StructureDefinition/us-core-race","extension":[{"url":"ombCategory","valueCoding":{"system":"urn:oid:2.16.840.1.113883.6.238","code":"2028-9","display":"Asian"}},{"url":"text","valueString":"Asian"}]},{"url":"http://hl7.org/fhir/us/core/StructureDefinition/us-core-sex","valueCode":"248152002"},{"url":"http://hl7.org/fhir/us/core/StructureDefinition/us-core-ethnicity","extension":[{"url":"ombCategory","valueCoding":{"system":"urn:oid:2.16.840.1.113883.6.238","code":"2135-2","display":"Hispanic or Latino"}},{"url":"text","valueString":"Hispanic or Latino"}]}],"identifier":[{"system":"http://hospital.smarthealthit.org","value":"999999995"}],"name":[{"family":"Bertha","given":["Betty"]}],"gender":"female","birthDate":"2002-12-31"},"request":{"method":"PUT","url":"Patient/ab346cb5-2c55-4171-93ea-aac9d266e6c7"}}]}