{
    "entry": [
        {
            "request": {
                "method": "PUT",
                "url": "Patient/0278fdf0-f067-46e8-aeb1-fb96dff3c947"
            },
            "resource": {
                "identifier": [{
                    "system": "https://bonnie-fhir.healthit.gov/",
                    "type": {"coding": [{
                        "system": "http://terminology.hl7.org/CodeSystem/v2-0203",
                        "code": "MR"
                    }]},
                    "value": "62d061a9f924c8924458d151"
                }],
                "extension": [
                    {
                        "extension": [
                            {
                                "valueCoding": {
                                    "system": "urn:oid:2.16.840.1.113883.6.238",
                                    "code": "2054-5",
                                    "userSelected": true,
                                    "display": "Black or African American"
                                },
                                "url": "ombCategory"
                            },
                            {
                                "valueString": "Black or African American",
                                "url": "text"
                            }
                        ],
                        "url": "http://hl7.org/fhir/us/core/StructureDefinition/us-core-race"
                    },
                    {
                        "extension": [
                            {
                                "valueCoding": {
                                    "system": "urn:oid:2.16.840.1.113883.6.238",
                                    "code": "2135-2",
                                    "userSelected": true,
                                    "display": "Hispanic or Latino"
                                },
                                "url": "ombCategory"
                            },
                            {
                                "valueString": "Hispanic or Latino",
                                "url": "text"
                            }
                        ],
                        "url": "http://hl7.org/fhir/us/core/StructureDefinition/us-core-ethnicity"
                    }
                ],
                "gender": "male",
                "meta": {"profile": ["http://hl7.org/fhir/us/qicore/StructureDefinition/qicore-patient"]},
                "name": [{
                    "given": ["HTN130DeclinedNonPharm"],
                    "family": "DENEXCEPPass"
                }],
                "id": "0278fdf0-f067-46e8-aeb1-fb96dff3c947",
                "birthDate": "2006-01-31",
                "resourceType": "Patient"
            },
            "fullUrl": "https://madie.cms.gov/Patient/0278fdf0-f067-46e8-aeb1-fb96dff3c947"
        },
        {
            "request": {
                "method": "PUT",
                "url": "Encounter/e3e9860f-85b0-480d-9f50-d7b9a847f268"
            },
            "resource": {
                "period": {
                    "start": "2026-01-01T08:00:00.000+00:00",
                    "end": "2026-01-01T08:30:00.000+00:00"
                },
                "meta": {"profile": ["http://hl7.org/fhir/us/qicore/StructureDefinition/qicore-encounter"]},
                "subject": {"reference": "Patient/0278fdf0-f067-46e8-aeb1-fb96dff3c947"},
                "id": "e3e9860f-85b0-480d-9f50-d7b9a847f268",
                "type": [{"coding": [{
                    "system": "http://snomed.info/sct",
                    "code": "103705002",
                    "userSelected": true,
                    "display": "Patient status observation (procedure)",
                    "version": "2022-03"
                }]}],
                "class": {
                    "system": "http://terminology.hl7.org/CodeSystem/v3-ActCode",
                    "code": "AMB",
                    "display": "ambulatory"
                },
                "resourceType": "Encounter",
                "status": "finished"
            },
            "fullUrl": "https://madie.cms.gov/Encounter/e3e9860f-85b0-480d-9f50-d7b9a847f268"
        },
        {
            "request": {
                "method": "PUT",
                "url": "Observation/2d761479-742f-4851-9800-e5cccf130cfd"
            },
            "resource": {
                "component": [
                    {
                        "code": {"coding": [{
                            "system": "http://loinc.org",
                            "code": "8480-6",
                            "display": "Systolic blood pressure"
                        }]},
                        "valueQuantity": {
                            "unit": "mmHg",
                            "system": "http://unitsofmeasure.org",
                            "code": "mm[Hg]",
                            "value": 130
                        }
                    },
                    {
                        "code": {"coding": [{
                            "system": "http://loinc.org",
                            "code": "8462-4",
                            "display": "Diastolic blood pressure"
                        }]},
                        "valueQuantity": {
                            "unit": "mmHg",
                            "system": "http://unitsofmeasure.org",
                            "code": "mm[Hg]",
                            "value": 79
                        }
                    }
                ],
                "code": {"coding": [{
                    "system": "http://loinc.org",
                    "code": "85354-9",
                    "display": "Blood pressure panel"
                }]},
                "effectiveDateTime": "2026-01-01T08:29:00.000+00:00",
                "meta": {"profile": ["http://hl7.org/fhir/us/core/StructureDefinition/us-core-blood-pressure"]},
                "subject": {"reference": "Patient/0278fdf0-f067-46e8-aeb1-fb96dff3c947"},
                "id": "2d761479-742f-4851-9800-e5cccf130cfd",
                "category": [{
                    "coding": [{
                        "system": "http://terminology.hl7.org/CodeSystem/observation-category",
                        "code": "vital-signs",
                        "display": "Vital Signs"
                    }],
                    "text": "Vital Signs"
                }],
                "resourceType": "Observation",
                "status": "final"
            },
            "fullUrl": "https://madie.cms.gov/Observation/2d761479-742f-4851-9800-e5cccf130cfd"
        },
        {
            "request": {
                "method": "PUT",
                "url": "ServiceRequest/f3ac5558-93b0-4600-9514-0256c88c7c78"
            },
            "resource": {
                "extension": [{
                    "valueCodeableConcept": {"coding": [{
                        "system": "http://snomed.info/sct",
                        "code": "1296859006",
                        "userSelected": true,
                        "display": "Procedure declined by patient (situation)"
                    }]},
                    "url": "http://hl7.org/fhir/us/qicore/StructureDefinition/qicore-doNotPerformReason"
                }],
                "code": {"coding": [{
                    "system": "http://snomed.info/sct",
                    "code": "281090004",
                    "userSelected": true,
                    "display": "Recommendation to exercise (procedure)",
                    "version": "2022-03"
                }]},
                "authoredOn": "2026-01-01T08:01:00.000+00:00",
                "meta": {"profile": ["http://hl7.org/fhir/us/qicore/StructureDefinition/qicore-servicenotrequested"]},
                "subject": {"reference": "Patient/0278fdf0-f067-46e8-aeb1-fb96dff3c947"},
                "id": "f3ac5558-93b0-4600-9514-0256c88c7c78",
                "doNotPerform": true,
                "intent": "order",
                "resourceType": "ServiceRequest",
                "status": "completed"
            },
            "fullUrl": "https://madie.cms.gov/ServiceRequest/f3ac5558-93b0-4600-9514-0256c88c7c78"
        },
        {
            "request": {
                "method": "PUT",
                "url": "Coverage/b2c080de-e076-40eb-b77a-74086b0ce2a3"
            },
            "resource": {
                "payor": [{"reference": "Organization/6c17c3c1-ee0e-4ac4-9961-f3ff7662e709"}],
                "beneficiary": {"reference": "Patient/0278fdf0-f067-46e8-aeb1-fb96dff3c947"},
                "meta": {"profile": ["http://hl7.org/fhir/us/qicore/StructureDefinition/qicore-coverage"]},
                "id": "b2c080de-e076-40eb-b77a-74086b0ce2a3",
                "resourceType": "Coverage",
                "status": "active"
            },
            "fullUrl": "https://madie.cms.gov/Coverage/b2c080de-e076-40eb-b77a-74086b0ce2a3"
        },
        {
            "request": {
                "method": "PUT",
                "url": "Organization/6c17c3c1-ee0e-4ac4-9961-f3ff7662e709"
            },
            "resource": {
                "identifier": [{
                    "system": "urn:oid:2.16.840.1.113883.4.4",
                    "use": "temp",
                    "value": "21-3259825"
                }],
                "address": [{
                    "country": "USA",
                    "city": "Dallas",
                    "use": "billing",
                    "line": ["P.O. Box 660044"],
                    "postalCode": "75266-0044",
                    "state": "TX",
                    "type": "postal"
                }],
                "meta": {"profile": ["http://hl7.org/fhir/us/qicore/StructureDefinition/qicore-organization"]},
                "name": "Blue Cross Blue Shield of Texas",
                "active": true,
                "telecom": [{
                    "system": "phone",
                    "value": "(+1) 972-766-6900"
                }],
                "id": "6c17c3c1-ee0e-4ac4-9961-f3ff7662e709",
                "type": [{"coding": [{
                    "system": "http://terminology.hl7.org/CodeSystem/organization-type",
                    "code": "pay",
                    "display": "Payer"
                }]}],
                "resourceType": "Organization"
            },
            "fullUrl": "https://madie.cms.gov/Organization/6c17c3c1-ee0e-4ac4-9961-f3ff7662e709"
        },
        {
            "request": {
                "method": "PUT",
                "url": "Practitioner/8a0eab38-b1ea-4754-80e5-79e25edfbe95"
            },
            "resource": {
                "identifier": [{
                    "system": "http://hl7.org/fhir/sid/us-npi",
                    "value": "123456"
                }],
                "meta": {"profile": ["http://hl7.org/fhir/us/qicore/StructureDefinition/qicore-practitioner"]},
                "name": [{
                    "prefix": ["Dr"],
                    "family": "Evil"
                }],
                "id": "8a0eab38-b1ea-4754-80e5-79e25edfbe95",
                "resourceType": "Practitioner"
            },
            "fullUrl": "https://madie.cms.gov/Practitioner/8a0eab38-b1ea-4754-80e5-79e25edfbe95"
        },
        {
            "request": {
                "method": "PUT",
                "url": "MeasureReport/1433b052-7ed6-4cd9-baef-7c4fb29be524"
            },
            "resource": {
                "contained": [{
                    "parameter": [{
                        "valueString": "0278fdf0-f067-46e8-aeb1-fb96dff3c947",
                        "name": "subject"
                    }],
                    "id": "f5fd0bd1-7dd8-4170-bcc1-28c974bc67d2-parameters",
                    "resourceType": "Parameters"
                }],
                "extension": [
                    {
                        "valueReference": {"reference": "#f5fd0bd1-7dd8-4170-bcc1-28c974bc67d2-parameters"},
                        "url": "http://hl7.org/fhir/StructureDefinition/cqf-inputParameters"
                    },
                    {
                        "valueMarkdown": "Enc. 01/01 0800-0830 during MP, age 20, BP 130/79 at 0829, declined recommendation to exercise.",
                        "url": "http://hl7.org/fhir/us/cqfmeasures/StructureDefinition/cqfm-testCaseDescription"
                    }
                ],
                "period": {
                    "start": "2026-01-01",
                    "end": "2026-12-31"
                },
                "measure": "https://madie.cms.gov/Measure/CMS22FHIRPCSBPScreeningFollowUp",
                "meta": {"profile": ["http://hl7.org/fhir/us/cqfmeasures/StructureDefinition/test-case-cqfm"]},
                "modifierExtension": [{
                    "valueBoolean": true,
                    "url": "http://hl7.org/fhir/us/cqfmeasures/StructureDefinition/cqfm-isTestCase"
                }],
                "id": "1433b052-7ed6-4cd9-baef-7c4fb29be524",
                "evaluatedResource": [
                    {"reference": "Patient/0278fdf0-f067-46e8-aeb1-fb96dff3c947"},
                    {"reference": "Encounter/e3e9860f-85b0-480d-9f50-d7b9a847f268"},
                    {"reference": "Observation/2d761479-742f-4851-9800-e5cccf130cfd"},
                    {"reference": "ServiceRequest/f3ac5558-93b0-4600-9514-0256c88c7c78"},
                    {"reference": "Coverage/b2c080de-e076-40eb-b77a-74086b0ce2a3"},
                    {"reference": "Organization/6c17c3c1-ee0e-4ac4-9961-f3ff7662e709"},
                    {"reference": "Practitioner/8a0eab38-b1ea-4754-80e5-79e25edfbe95"}
                ],
                "type": "individual",
                "resourceType": "MeasureReport",
                "status": "complete",
                "group": [{
                    "id": "Group_1",
                    "measureScore": {"value": 0},
                    "population": [
                        {
                            "code": {"coding": [{
                                "system": "http://terminology.hl7.org/CodeSystem/measure-population",
                                "code": "initial-population",
                                "display": "Initial Population"
                            }]},
                            "count": 1,
                            "id": "InitialPopulation_1"
                        },
                        {
                            "code": {"coding": [{
                                "system": "http://terminology.hl7.org/CodeSystem/measure-population",
                                "code": "denominator",
                                "display": "Denominator"
                            }]},
                            "count": 1,
                            "id": "Denominator_1"
                        },
                        {
                            "code": {"coding": [{
                                "system": "http://terminology.hl7.org/CodeSystem/measure-population",
                                "code": "denominator-exclusion",
                                "display": "Denominator Exclusion"
                            }]},
                            "count": 0,
                            "id": "DenominatorExclusion_1"
                        },
                        {
                            "code": {"coding": [{
                                "system": "http://terminology.hl7.org/CodeSystem/measure-population",
                                "code": "numerator",
                                "display": "Numerator"
                            }]},
                            "count": 0,
                            "id": "Numerator_1"
                        },
                        {
                            "code": {"coding": [{
                                "system": "http://terminology.hl7.org/CodeSystem/measure-population",
                                "code": "denominator-exception",
                                "display": "Denominator Exception"
                            }]},
                            "count": 1,
                            "id": "DenominatorException_1"
                        }
                    ]
                }]
            },
            "fullUrl": "https://madie.cms.gov/MeasureReport/1433b052-7ed6-4cd9-baef-7c4fb29be524"
        }
    ],
    "id": "62d061a9f924c8924458d151",
    "type": "transaction",
    "resourceType": "Bundle"
}