{
  "resourceType": "Bundle",
  "id": "60f82c2f98086b570510e2ba",
  "type": "transaction",
  "entry": [ {
    "fullUrl": "https://madie.cms.gov/Patient/155afb0b-baef-4e1a-8255-dd3bc96c9c0d",
    "resource": {
      "resourceType": "Patient",
      "id": "155afb0b-baef-4e1a-8255-dd3bc96c9c0d",
      "meta": {
        "profile": [ "http://hl7.org/fhir/us/qicore/StructureDefinition/qicore-patient" ]
      },
      "text": {
        "status": "generated",
        "div": "<div xmlns=\"http://www.w3.org/1999/xhtml\"><div class=\"hapiHeaderText\">PharmContra2DayAftObs_ED&lt;1hrDayOfObs&lt;1hrDayAftBFEnc <b>DENEXCEPFAIL </b></div><table class=\"hapiPropertyTable\"><tbody><tr><td>Identifier</td><td>0103105e2f27712406d6c0e67f07d973c7aef843dfe22913e133b63fea98440f</td></tr><tr><td>Date of birth</td><td><span>26 September 1975</span></td></tr></tbody></table></div>"
      },
      "extension": [ {
        "url": "http://hl7.org/fhir/us/core/StructureDefinition/us-core-race",
        "extension": [ {
          "url": "ombCategory",
          "valueCoding": {
            "system": "urn:oid:2.16.840.1.113883.6.238",
            "code": "2054-5",
            "display": "Black or African American",
            "userSelected": true
          }
        }, {
          "url": "text",
          "valueString": "Black or African American"
        } ]
      }, {
        "url": "http://hl7.org/fhir/us/core/StructureDefinition/us-core-ethnicity",
        "extension": [ {
          "url": "ombCategory",
          "valueCoding": {
            "system": "urn:oid:2.16.840.1.113883.6.238",
            "code": "2186-5",
            "display": "Not Hispanic or Latino",
            "userSelected": true
          }
        }, {
          "url": "text",
          "valueString": "Not Hispanic or Latino"
        } ]
      } ],
      "identifier": [ {
        "type": {
          "coding": [ {
            "system": "http://terminology.hl7.org/CodeSystem/v2-0203",
            "code": "MR"
          } ]
        },
        "system": "https://bonnie-fhir.healthit.gov/",
        "value": "60f82c2f98086b570510e2ba"
      } ],
      "active": true,
      "name": [ {
        "use": "usual",
        "family": "DENEXCEPFail",
        "given": [ "PharmContra2DayAftObs_ED<1hrDayOfObs<1hrDayAftBFEnc" ]
      } ],
      "gender": "female",
      "birthDate": "1976-09-26"
    },
    "request": {
      "method": "PUT",
      "url": "Patient/155afb0b-baef-4e1a-8255-dd3bc96c9c0d"
    }
  }, {
    "fullUrl": "https://madie.cms.gov/Encounter/700377cc-99ad-44f1-9cc0-3e13ce964d72",
    "resource": {
      "resourceType": "Encounter",
      "id": "700377cc-99ad-44f1-9cc0-3e13ce964d72",
      "meta": {
        "profile": [ "http://hl7.org/fhir/us/qicore/StructureDefinition/qicore-encounter" ]
      },
      "status": "finished",
      "class": {
        "system": "http://terminology.hl7.org/CodeSystem/v3-ActCode",
        "code": "EMER",
        "display": "emergency",
        "userSelected": true
      },
      "type": [ {
        "coding": [ {
          "system": "http://snomed.info/sct",
          "code": "4525004"
        } ]
      } ],
      "subject": {
        "reference": "Patient/155afb0b-baef-4e1a-8255-dd3bc96c9c0d"
      },
      "period": {
        "start": "2026-10-10T09:00:00Z",
        "end": "2026-10-10T09:15:00.000+00:00"
      },
      "length": {
        "value": 0,
        "unit": "days"
      }
    },
    "request": {
      "method": "PUT",
      "url": "Encounter/700377cc-99ad-44f1-9cc0-3e13ce964d72"
    }
  }, {
    "fullUrl": "https://madie.cms.gov/Encounter/35175db0-6398-440a-a9cd-47d9115d1e59",
    "resource": {
      "resourceType": "Encounter",
      "id": "35175db0-6398-440a-a9cd-47d9115d1e59",
      "meta": {
        "profile": [ "http://hl7.org/fhir/us/qicore/StructureDefinition/qicore-encounter" ]
      },
      "status": "finished",
      "class": {
        "system": "http://terminology.hl7.org/CodeSystem/v3-ActCode",
        "code": "OBSENC",
        "display": "observation encounter",
        "userSelected": true
      },
      "type": [ {
        "coding": [ {
          "system": "http://snomed.info/sct",
          "code": "448951000124107"
        } ]
      } ],
      "subject": {
        "reference": "Patient/155afb0b-baef-4e1a-8255-dd3bc96c9c0d"
      },
      "period": {
        "start": "2026-10-10T09:16:00Z",
        "end": "2026-10-12T23:59:00.000+00:00"
      },
      "length": {
        "value": 2,
        "unit": "days"
      }
    },
    "request": {
      "method": "PUT",
      "url": "Encounter/35175db0-6398-440a-a9cd-47d9115d1e59"
    }
  }, {
    "fullUrl": "https://madie.cms.gov/Encounter/2204082e-162d-44d6-8013-9ac1407463e7",
    "resource": {
      "resourceType": "Encounter",
      "id": "2204082e-162d-44d6-8013-9ac1407463e7",
      "meta": {
        "profile": [ "http://hl7.org/fhir/us/qicore/StructureDefinition/qicore-encounter" ]
      },
      "status": "finished",
      "class": {
        "system": "http://terminology.hl7.org/CodeSystem/v3-ActCode",
        "code": "IMP",
        "display": "inpatient encounter",
        "userSelected": true
      },
      "type": [ {
        "coding": [ {
          "system": "http://snomed.info/sct",
          "code": "32485007"
        } ]
      } ],
      "subject": {
        "reference": "Patient/155afb0b-baef-4e1a-8255-dd3bc96c9c0d"
      },
      "period": {
        "start": "2026-10-13T00:00:00Z",
        "end": "2026-10-17T11:15:00.000+00:00"
      },
      "length": {
        "value": 4,
        "unit": "days"
      },
      "reasonReference": [ {
        "reference": "Condition/2e6ea7b9-db51-452d-8267-9cefe06a3193"
      } ]
    },
    "request": {
      "method": "PUT",
      "url": "Encounter/2204082e-162d-44d6-8013-9ac1407463e7"
    }
  }, {
    "fullUrl": "https://madie.cms.gov/claim/5ca62962b8484628b8de1ec5",
    "resource": {
      "resourceType": "Claim",
      "id": "5ca62962b8484628b8de1ec5",
      "meta": {
        "profile": [ "http://hl7.org/fhir/us/qicore/StructureDefinition/qicore-claim" ]
      },
      "status": "active",
      "type": {
        "coding": [ {
          "system": "http://terminology.hl7.org/CodeSystem/claim-type",
          "code": "institutional"
        } ]
      },
      "use": "claim",
      "patient": {
        "reference": "Patient/d170a0a8-b5ad-4303-b6df-e304dd5f92ad"
      },
      "created": "2026-12-01",
      "provider": {
        "reference": "Practitioner/practitioner-123456"
      },
      "priority": {
        "coding": [ {
          "system": "http://terminology.hl7.org/CodeSystem/processpriority",
          "code": "normal"
        } ]
      },
      "diagnosis": [ {
        "sequence": 1,
        "diagnosisCodeableConcept": {
          "coding": [ {
            "system": "http://hl7.org/fhir/sid/icd-10-cm",
            "code": "I63.00"
          } ]
        },
        "type": [ {
          "coding": [ {
            "system": "http://terminology.hl7.org/CodeSystem/ex-diagnosistype",
            "code": "principal"
          } ]
        } ]
      } ],
      "insurance": [ {
        "sequence": 1,
        "focal": true,
        "coverage": {
          "reference": "Coverage/5fa041661c76ba66d9959367"
        }
      } ],
      "item": [ {
        "sequence": 1,
        "diagnosisSequence": [ 1 ],
        "productOrService": {
          "coding": [ {
            "system": "http://terminology.hl7.org/CodeSystem/ex-USCLS",
            "code": "99555"
          } ]
        },
        "encounter": [ {
          "reference": "Encounter/2204082e-162d-44d6-8013-9ac1407463e7"
        } ]
      } ]
    },
    "request": {
      "method": "PUT",
      "url": "Claim/5ca62962b8484628b8de1ec5"
    }
  }, {
    "fullUrl": "https://madie.cms.gov/MedicationAdministration/ae7ce5dd-a245-4956-9feb-3c68543185fe",
    "resource": {
      "resourceType": "MedicationAdministration",
      "id": "ae7ce5dd-a245-4956-9feb-3c68543185fe",
      "meta": {
        "profile": [ "http://hl7.org/fhir/us/qicore/StructureDefinition/qicore-medicationadministration" ]
      },
      "status": "completed",
      "medicationCodeableConcept": {
        "coding": [ {
          "system": "http://www.nlm.nih.gov/research/umls/rxnorm",
          "code": "1116635"
        } ]
      },
      "subject": {
        "reference": "Patient/155afb0b-baef-4e1a-8255-dd3bc96c9c0d"
      },
      "effectivePeriod": {
        "start": "2026-10-12T23:59:00Z"
      }
    },
    "request": {
      "method": "PUT",
      "url": "MedicationAdministration/ae7ce5dd-a245-4956-9feb-3c68543185fe"
    }
  }, {
    "fullUrl": "https://madie.cms.gov/Coverage/cbbe24be-fd73-4904-9bed-4dfa15999421",
    "resource": {
      "resourceType": "Coverage",
      "id": "cbbe24be-fd73-4904-9bed-4dfa15999421",
      "status": "active",
      "subscriberId": "523435",
      "beneficiary": {
        "reference": "Patient/155afb0b-baef-4e1a-8255-dd3bc96c9c0d"
      },
      "relationship": {
        "coding": [ {
          "system": "http://terminology.hl7.org/CodeSystem/subscriber-relationship",
          "code": "self"
        } ]
      },
      "period": {
        "start": "1976-09-26T08:00:00Z"
      },
      "payor": [ {
        "reference": "Organization/0e4a6a30-5c59-47c8-a4cb-7afb1e684f35"
      } ]
    },
    "request": {
      "method": "PUT",
      "url": "Coverage/cbbe24be-fd73-4904-9bed-4dfa15999421"
    }
  }, {
    "fullUrl": "https://madie.cms.gov/Condition/2e6ea7b9-db51-452d-8267-9cefe06a3193",
    "resource": {
      "resourceType": "Condition",
      "id": "2e6ea7b9-db51-452d-8267-9cefe06a3193",
      "meta": {
        "profile": [ "http://hl7.org/fhir/us/qicore/StructureDefinition/qicore-condition-encounter-diagnosis" ]
      },
      "clinicalStatus": {
        "coding": [ {
          "system": "http://terminology.hl7.org/CodeSystem/condition-clinical",
          "code": "active"
        } ]
      },
      "verificationStatus": {
        "coding": [ {
          "system": "http://terminology.hl7.org/CodeSystem/condition-ver-status",
          "code": "confirmed"
        } ]
      },
      "category": [ {
        "coding": [ {
          "system": "http://terminology.hl7.org/CodeSystem/condition-category",
          "code": "encounter-diagnosis",
          "display": "Encounter Diagnosis"
        } ]
      } ],
      "code": {
        "coding": [ {
          "system": "http://snomed.info/sct",
          "version": "2020-09",
          "code": "111297002",
          "display": "Nonparalytic stroke (disorder)",
          "userSelected": true
        } ]
      },
      "subject": {
        "reference": "Patient/155afb0b-baef-4e1a-8255-dd3bc96c9c0d"
      },
      "recordedDate": "2026-08-03T08:00:00Z"
    },
    "request": {
      "method": "PUT",
      "url": "Condition/2e6ea7b9-db51-452d-8267-9cefe06a3193"
    }
  }, {
    "fullUrl": "https://madie.cms.gov/Organization/0e4a6a30-5c59-47c8-a4cb-7afb1e684f35",
    "resource": {
      "resourceType": "Organization",
      "id": "0e4a6a30-5c59-47c8-a4cb-7afb1e684f35",
      "meta": {
        "profile": [ "http://hl7.org/fhir/us/qicore/StructureDefinition/qicore-organization" ]
      },
      "identifier": [ {
        "use": "temp",
        "system": "urn:oid:2.16.840.1.113883.4.4",
        "value": "21-3259825"
      } ],
      "active": true,
      "type": [ {
        "coding": [ {
          "system": "http://terminology.hl7.org/CodeSystem/organization-type",
          "code": "pay",
          "display": "Payer"
        } ]
      } ],
      "name": "Blue Cross Blue Shield of Texas",
      "telecom": [ {
        "system": "phone",
        "value": "(+1) 972-766-6900"
      } ],
      "address": [ {
        "use": "billing",
        "type": "postal",
        "line": [ "P.O. Box 660044" ],
        "city": "Dallas",
        "state": "TX",
        "postalCode": "75266-0044",
        "country": "USA"
      } ]
    },
    "request": {
      "method": "PUT",
      "url": "Organization/0e4a6a30-5c59-47c8-a4cb-7afb1e684f35"
    }
  }, {
    "fullUrl": "https://madie.cms.gov/MeasureReport/e879ec8b-7d8c-4584-b632-10cc350cd3ed",
    "resource": {
      "resourceType": "MeasureReport",
      "id": "e879ec8b-7d8c-4584-b632-10cc350cd3ed",
      "meta": {
        "profile": [ "http://hl7.org/fhir/us/cqfmeasures/StructureDefinition/test-case-cqfm" ]
      },
      "contained": [ {
        "resourceType": "Parameters",
        "id": "fb3aa547-3da2-4a23-afb2-24a3160a8c08-parameters",
        "parameter": [ {
          "name": "subject",
          "valueString": "155afb0b-baef-4e1a-8255-dd3bc96c9c0d"
        } ]
      } ],
      "extension": [ {
        "url": "http://hl7.org/fhir/StructureDefinition/cqf-inputParameters",
        "valueReference": {
          "reference": "#fb3aa547-3da2-4a23-afb2-24a3160a8c08-parameters"
        }
      }, {
        "url": "http://hl7.org/fhir/us/cqfmeasures/StructureDefinition/cqfm-testCaseDescription",
        "valueMarkdown": "Patient receives Ticagrelor during Obs, 2 days after Obs starts. ED ends 1 min before Obs.Obs ends 1 min before IP start at midnight. Testing Day of operator with HospitalizationWithObservation function.\n"
      } ],
      "modifierExtension": [ {
        "url": "http://hl7.org/fhir/us/cqfmeasures/StructureDefinition/cqfm-isTestCase",
        "valueBoolean": true
      } ],
      "status": "complete",
      "type": "individual",
      "measure": "https://madie.cms.gov/Measure/CMS72FHIRSTKAntithromboticDay2",
      "period": {
        "start": "2026-01-01",
        "end": "2026-12-31"
      },
      "group": [ {
        "id": "Group_1",
        "population": [ {
          "id": "InitialPopulation_1",
          "code": {
            "coding": [ {
              "system": "http://terminology.hl7.org/CodeSystem/measure-population",
              "code": "initial-population",
              "display": "Initial Population"
            } ]
          },
          "count": 1
        }, {
          "id": "Denominator_1",
          "code": {
            "coding": [ {
              "system": "http://terminology.hl7.org/CodeSystem/measure-population",
              "code": "denominator",
              "display": "Denominator"
            } ]
          },
          "count": 1
        }, {
          "id": "DenominatorExclusion_1",
          "code": {
            "coding": [ {
              "system": "http://terminology.hl7.org/CodeSystem/measure-population",
              "code": "denominator-exclusion",
              "display": "Denominator Exclusion"
            } ]
          },
          "count": 0
        }, {
          "id": "Numerator_1",
          "code": {
            "coding": [ {
              "system": "http://terminology.hl7.org/CodeSystem/measure-population",
              "code": "numerator",
              "display": "Numerator"
            } ]
          },
          "count": 0
        }, {
          "id": "DenominatorException_1",
          "code": {
            "coding": [ {
              "system": "http://terminology.hl7.org/CodeSystem/measure-population",
              "code": "denominator-exception",
              "display": "Denominator Exception"
            } ]
          },
          "count": 0
        } ],
        "measureScore": {
          "value": 0.0
        }
      } ],
      "evaluatedResource": [ {
        "reference": "Patient/155afb0b-baef-4e1a-8255-dd3bc96c9c0d"
      }, {
        "reference": "Encounter/700377cc-99ad-44f1-9cc0-3e13ce964d72"
      }, {
        "reference": "Encounter/35175db0-6398-440a-a9cd-47d9115d1e59"
      }, {
        "reference": "Encounter/2204082e-162d-44d6-8013-9ac1407463e7"
      }, {
        "reference": "Claim/5ca62962b8484628b8de1ec5"
      }, {
        "reference": "MedicationAdministration/ae7ce5dd-a245-4956-9feb-3c68543185fe"
      }, {
        "reference": "Coverage/cbbe24be-fd73-4904-9bed-4dfa15999421"
      }, {
        "reference": "Condition/2e6ea7b9-db51-452d-8267-9cefe06a3193"
      }, {
        "reference": "Organization/0e4a6a30-5c59-47c8-a4cb-7afb1e684f35"
      } ]
    },
    "request": {
      "method": "PUT",
      "url": "MeasureReport/e879ec8b-7d8c-4584-b632-10cc350cd3ed"
    }
  } ]
}