{
  "resourceType": "Bundle",
  "id": "660dc344ea96f2084262f8e7",
  "type": "transaction",
  "entry": [ {
    "fullUrl": "https://madie.cms.gov/Patient/105e8f1d-67bc-4093-8953-7aaca6e1411b",
    "resource": {
      "resourceType": "Patient",
      "id": "105e8f1d-67bc-4093-8953-7aaca6e1411b",
      "meta": {
        "profile": [ "http://hl7.org/fhir/us/qicore/StructureDefinition/qicore-patient" ]
      },
      "extension": [ {
        "url": "http://hl7.org/fhir/us/core/StructureDefinition/us-core-race",
        "extension": [ {
          "url": "ombCategory",
          "valueCoding": {
            "system": "urn:oid:2.16.840.1.113883.6.238",
            "code": "1002-5",
            "display": "American Indian or Alaska Native",
            "userSelected": true
          }
        }, {
          "url": "text",
          "valueString": "American Indian or Alaska Native"
        } ]
      }, {
        "url": "http://hl7.org/fhir/us/core/StructureDefinition/us-core-ethnicity",
        "extension": [ {
          "url": "ombCategory",
          "valueCoding": {
            "system": "urn:oid:2.16.840.1.113883.6.238",
            "code": "2135-2",
            "display": "Hispanic or Latino",
            "userSelected": true
          }
        }, {
          "url": "text",
          "valueString": "Hispanic or Latino"
        } ]
      }, {
        "url": "http://hl7.org/fhir/us/core/StructureDefinition/us-core-sex",
        "valueCode": "248153007"
      } ],
      "identifier": [ {
        "type": {
          "coding": [ {
            "system": "http://terminology.hl7.org/CodeSystem/v2-0203",
            "code": "MR"
          } ]
        },
        "system": "https://bonnie-fhir.healthit.gov/",
        "value": "660dc344ea96f2084262f8e7"
      } ],
      "name": [ {
        "family": "DxExclPassStartsBeforeEndsAfterMP",
        "given": [ "DENEXCEPPASS" ]
      } ],
      "gender": "male",
      "birthDate": "1992-10-21"
    },
    "request": {
      "method": "PUT",
      "url": "Patient/105e8f1d-67bc-4093-8953-7aaca6e1411b"
    }
  }, {
    "fullUrl": "https://madie.cms.gov/Encounter/9d77cb52-bfab-4bd8-8d83-0e3213797352",
    "resource": {
      "resourceType": "Encounter",
      "id": "9d77cb52-bfab-4bd8-8d83-0e3213797352",
      "meta": {
        "profile": [ "http://hl7.org/fhir/us/qicore/StructureDefinition/qicore-encounter" ]
      },
      "status": "finished",
      "class": {
        "system": "http://terminology.hl7.org/CodeSystem/v3-ActCode",
        "code": "EMER",
        "display": "emergency",
        "userSelected": true
      },
      "type": [ {
        "coding": [ {
          "system": "http://snomed.info/sct",
          "version": "2020-09",
          "code": "4525004",
          "display": "Emergency department patient visit (procedure)",
          "userSelected": true
        } ]
      } ],
      "subject": {
        "reference": "Patient/105e8f1d-67bc-4093-8953-7aaca6e1411b"
      },
      "period": {
        "start": "2026-11-10T08:05:00.000+00:00",
        "end": "2026-11-11T07:15:00.000+00:00"
      },
      "reasonReference": [ {
        "reference": "Condition/39260701-9699-4168-89bc-eeea7bce56db"
      } ]
    },
    "request": {
      "method": "PUT",
      "url": "Encounter/9d77cb52-bfab-4bd8-8d83-0e3213797352"
    }
  }, {
    "fullUrl": "https://madie.cms.gov/Condition/be75dcc3-27fb-49c1-9bfd-d26d75e953c6",
    "resource": {
      "resourceType": "Condition",
      "id": "be75dcc3-27fb-49c1-9bfd-d26d75e953c6",
      "meta": {
        "profile": [ "http://hl7.org/fhir/us/qicore/StructureDefinition/qicore-condition-problems-health-concerns" ]
      },
      "clinicalStatus": {
        "coding": [ {
          "system": "http://terminology.hl7.org/CodeSystem/condition-clinical",
          "code": "active"
        } ]
      },
      "verificationStatus": {
        "coding": [ {
          "system": "http://terminology.hl7.org/CodeSystem/condition-ver-status",
          "code": "unconfirmed"
        } ]
      },
      "category": [ {
        "coding": [ {
          "system": "http://terminology.hl7.org/CodeSystem/condition-category",
          "code": "problem-list-item",
          "display": "Problem List Item"
        } ]
      } ],
      "severity": {
        "coding": [ {
          "system": "http://snomed.info/sct",
          "code": "24484000",
          "display": "Severe (severity modifier)"
        } ]
      },
      "code": {
        "coding": [ {
          "system": "http://hl7.org/fhir/sid/icd-10-cm",
          "code": "Z92.82",
          "display": "Status post administration of tPA (rtPA) in a different facility within the last 24 hours prior to admission to current facility"
        } ]
      },
      "subject": {
        "reference": "Patient/105e8f1d-67bc-4093-8953-7aaca6e1411b"
      },
      "onsetDateTime": "2026-11-12T08:30:00.000+00:00"
    },
    "request": {
      "method": "PUT",
      "url": "Condition/be75dcc3-27fb-49c1-9bfd-d26d75e953c6"
    }
  }, {
    "fullUrl": "https://madie.cms.gov/Condition/39260701-9699-4168-89bc-eeea7bce56db",
    "resource": {
      "resourceType": "Condition",
      "id": "39260701-9699-4168-89bc-eeea7bce56db",
      "meta": {
        "profile": [ "http://hl7.org/fhir/us/qicore/StructureDefinition/qicore-condition-problems-health-concerns" ]
      },
      "clinicalStatus": {
        "coding": [ {
          "system": "http://terminology.hl7.org/CodeSystem/condition-clinical",
          "code": "active",
          "display": "active",
          "userSelected": true
        } ]
      },
      "verificationStatus": {
        "coding": [ {
          "system": "http://terminology.hl7.org/CodeSystem/condition-ver-status",
          "code": "unconfirmed"
        } ]
      },
      "category": [ {
        "coding": [ {
          "system": "http://terminology.hl7.org/CodeSystem/condition-category",
          "code": "problem-list-item",
          "display": "Problem List Item",
          "userSelected": true
        } ]
      } ],
      "code": {
        "coding": [ {
          "system": "http://snomed.info/sct",
          "version": "2020-09",
          "code": "401303003",
          "display": "Acute ST segment elevation myocardial infarction (disorder)",
          "userSelected": true
        } ]
      },
      "subject": {
        "reference": "Patient/105e8f1d-67bc-4093-8953-7aaca6e1411b"
      },
      "onsetDateTime": "2026-11-10T08:30:00.000+00:00"
    },
    "request": {
      "method": "PUT",
      "url": "Condition/39260701-9699-4168-89bc-eeea7bce56db"
    }
  }, {
    "fullUrl": "https://madie.cms.gov/Condition/79cc3028-3b6d-4f4d-a60f-19d74e04a6b4",
    "resource": {
      "resourceType": "Condition",
      "id": "79cc3028-3b6d-4f4d-a60f-19d74e04a6b4",
      "meta": {
        "profile": [ "http://hl7.org/fhir/us/qicore/StructureDefinition/qicore-condition-problems-health-concerns" ]
      },
      "clinicalStatus": {
        "coding": [ {
          "system": "http://terminology.hl7.org/CodeSystem/condition-clinical",
          "version": "4.0.1",
          "code": "inactive",
          "display": "Inactive",
          "userSelected": true
        } ]
      },
      "category": [ {
        "coding": [ {
          "system": "http://terminology.hl7.org/CodeSystem/condition-category",
          "code": "problem-list-item",
          "display": "Problem List Item",
          "userSelected": true
        } ]
      } ],
      "code": {
        "coding": [ {
          "system": "http://snomed.info/sct",
          "version": "2020-09",
          "code": "162710004",
          "display": "On examination - collapse -cardiac arrest (disorder)",
          "userSelected": true
        } ]
      },
      "subject": {
        "reference": "Patient/105e8f1d-67bc-4093-8953-7aaca6e1411b"
      },
      "onsetDateTime": "2026-11-10T09:00:00.000+00:00"
    },
    "request": {
      "method": "PUT",
      "url": "Condition/79cc3028-3b6d-4f4d-a60f-19d74e04a6b4"
    }
  }, {
    "fullUrl": "https://madie.cms.gov/Coverage/f9ca9aeb-24b6-4739-adf4-7c696b8740af",
    "resource": {
      "resourceType": "Coverage",
      "id": "f9ca9aeb-24b6-4739-adf4-7c696b8740af",
      "meta": {
        "profile": [ "http://hl7.org/fhir/us/qicore/StructureDefinition/qicore-coverage" ]
      },
      "identifier": [ {
        "type": {
          "coding": [ {
            "system": "http://terminology.hl7.org/CodeSystem/v2-0203",
            "code": "MB"
          } ]
        }
      } ],
      "status": "active",
      "beneficiary": {
        "reference": "Patient/105e8f1d-67bc-4093-8953-7aaca6e1411b"
      },
      "relationship": {
        "coding": [ {
          "system": "http://terminology.hl7.org/CodeSystem/subscriber-relationship",
          "code": "self"
        } ]
      },
      "payor": [ {
        "reference": "Organization/872457d3-6c29-4cfb-b3f5-697ad5a383f5"
      } ]
    },
    "request": {
      "method": "PUT",
      "url": "Coverage/f9ca9aeb-24b6-4739-adf4-7c696b8740af"
    }
  }, {
    "fullUrl": "https://madie.cms.gov/Organization/872457d3-6c29-4cfb-b3f5-697ad5a383f5",
    "resource": {
      "resourceType": "Organization",
      "id": "872457d3-6c29-4cfb-b3f5-697ad5a383f5",
      "meta": {
        "profile": [ "http://hl7.org/fhir/us/qicore/StructureDefinition/qicore-organization" ]
      },
      "identifier": [ {
        "use": "temp",
        "system": "urn:oid:2.16.840.1.113883.4.4",
        "value": "21-3259825"
      } ],
      "active": true,
      "type": [ {
        "coding": [ {
          "system": "http://terminology.hl7.org/CodeSystem/organization-type",
          "code": "pay",
          "display": "Payer"
        } ]
      } ],
      "name": "Blue Cross Blue Shield of Texas",
      "telecom": [ {
        "system": "phone",
        "value": "(+1) 972-766-6900"
      } ],
      "address": [ {
        "use": "billing",
        "type": "postal",
        "line": [ "P.O. Box 660044" ],
        "city": "Dallas",
        "state": "TX",
        "postalCode": "75266-0044",
        "country": "USA"
      } ]
    },
    "request": {
      "method": "PUT",
      "url": "Organization/872457d3-6c29-4cfb-b3f5-697ad5a383f5"
    }
  }, {
    "fullUrl": "https://madie.cms.gov/Practitioner/3dc3b212-0525-4e94-8953-0906d8585485",
    "resource": {
      "resourceType": "Practitioner",
      "id": "3dc3b212-0525-4e94-8953-0906d8585485",
      "meta": {
        "profile": [ "http://hl7.org/fhir/us/qicore/StructureDefinition/qicore-practitioner" ]
      },
      "identifier": [ {
        "system": "http://hl7.org/fhir/sid/us-npi",
        "value": "9999999896"
      } ],
      "name": [ {
        "family": "Evil",
        "prefix": [ "Dr" ]
      } ]
    },
    "request": {
      "method": "PUT",
      "url": "Practitioner/3dc3b212-0525-4e94-8953-0906d8585485"
    }
  }, {
    "fullUrl": "https://madie.cms.gov/MeasureReport/9edcce94-c95f-4819-bbef-c60f234ba610",
    "resource": {
      "resourceType": "MeasureReport",
      "id": "9edcce94-c95f-4819-bbef-c60f234ba610",
      "meta": {
        "profile": [ "http://hl7.org/fhir/us/cqfmeasures/StructureDefinition/test-case-cqfm" ]
      },
      "contained": [ {
        "resourceType": "Parameters",
        "id": "23f72cf7-5c19-4242-83f4-75aa28c6a9cf-parameters",
        "parameter": [ {
          "name": "subject",
          "valueString": "105e8f1d-67bc-4093-8953-7aaca6e1411b"
        } ]
      } ],
      "extension": [ {
        "url": "http://hl7.org/fhir/StructureDefinition/cqf-inputParameters",
        "valueReference": {
          "reference": "#23f72cf7-5c19-4242-83f4-75aa28c6a9cf-parameters"
        }
      }, {
        "url": "http://hl7.org/fhir/us/cqfmeasures/StructureDefinition/cqfm-testCaseDescription",
        "valueMarkdown": "Patient has diagnosis exception of tPA at another facility after 24 hours of emergency department visit. Verification status unconfirmed"
      } ],
      "modifierExtension": [ {
        "url": "http://hl7.org/fhir/us/cqfmeasures/StructureDefinition/cqfm-isTestCase",
        "valueBoolean": true
      } ],
      "status": "complete",
      "type": "individual",
      "measure": "https://madie.cms.gov/Measure/CMS996FHIRAptTxforSTEMI",
      "period": {
        "start": "2026-01-01",
        "end": "2026-12-31"
      },
      "group": [ {
        "id": "Group_1",
        "population": [ {
          "id": "InitialPopulation_1",
          "code": {
            "coding": [ {
              "system": "http://terminology.hl7.org/CodeSystem/measure-population",
              "code": "initial-population",
              "display": "Initial Population"
            } ]
          },
          "count": 1
        }, {
          "id": "Denominator_1",
          "code": {
            "coding": [ {
              "system": "http://terminology.hl7.org/CodeSystem/measure-population",
              "code": "denominator",
              "display": "Denominator"
            } ]
          },
          "count": 1
        }, {
          "id": "DenominatorExclusion_1",
          "code": {
            "coding": [ {
              "system": "http://terminology.hl7.org/CodeSystem/measure-population",
              "code": "denominator-exclusion",
              "display": "Denominator Exclusion"
            } ]
          },
          "count": 0
        }, {
          "id": "Numerator_1",
          "code": {
            "coding": [ {
              "system": "http://terminology.hl7.org/CodeSystem/measure-population",
              "code": "numerator",
              "display": "Numerator"
            } ]
          },
          "count": 0
        }, {
          "id": "DenominatorException_1",
          "code": {
            "coding": [ {
              "system": "http://terminology.hl7.org/CodeSystem/measure-population",
              "code": "denominator-exception",
              "display": "Denominator Exception"
            } ]
          },
          "count": 0
        } ],
        "measureScore": {
          "value": 0.0
        }
      } ],
      "evaluatedResource": [ {
        "reference": "Patient/105e8f1d-67bc-4093-8953-7aaca6e1411b"
      }, {
        "reference": "Encounter/9d77cb52-bfab-4bd8-8d83-0e3213797352"
      }, {
        "reference": "Condition/be75dcc3-27fb-49c1-9bfd-d26d75e953c6"
      }, {
        "reference": "Condition/39260701-9699-4168-89bc-eeea7bce56db"
      }, {
        "reference": "Condition/79cc3028-3b6d-4f4d-a60f-19d74e04a6b4"
      }, {
        "reference": "Coverage/f9ca9aeb-24b6-4739-adf4-7c696b8740af"
      }, {
        "reference": "Organization/872457d3-6c29-4cfb-b3f5-697ad5a383f5"
      }, {
        "reference": "Practitioner/3dc3b212-0525-4e94-8953-0906d8585485"
      } ]
    },
    "request": {
      "method": "PUT",
      "url": "MeasureReport/9edcce94-c95f-4819-bbef-c60f234ba610"
    }
  } ]
}