{
  "resourceType": "Bundle",
  "id": "60f82c2d98086b570510e257",
  "type": "transaction",
  "entry": [ {
    "fullUrl": "https://madie.cms.gov/Patient/7317795b-638b-4d0c-9e9e-b55ade45958c",
    "resource": {
      "resourceType": "Patient",
      "id": "7317795b-638b-4d0c-9e9e-b55ade45958c",
      "meta": {
        "profile": [ "http://hl7.org/fhir/us/qicore/StructureDefinition/qicore-patient" ]
      },
      "text": {
        "status": "generated",
        "div": "<div xmlns=\"http://www.w3.org/1999/xhtml\"><div class=\"hapiHeaderText\">LOS&lt;1Day_EDB4EncIP <b>DENEXPASS </b></div><table class=\"hapiPropertyTable\"><tbody><tr><td>Identifier</td><td>dc28722d00f645d5350fffd17d1a4d70</td></tr><tr><td>Date of birth</td><td><span>21 August 1993</span></td></tr></tbody></table></div>"
      },
      "extension": [ {
        "url": "http://hl7.org/fhir/us/core/StructureDefinition/us-core-race",
        "extension": [ {
          "url": "ombCategory",
          "valueCoding": {
            "system": "urn:oid:2.16.840.1.113883.6.238",
            "code": "1002-5",
            "display": "American Indian or Alaska Native",
            "userSelected": true
          }
        }, {
          "url": "text",
          "valueString": "American Indian or Alaska Native"
        } ]
      }, {
        "url": "http://hl7.org/fhir/us/core/StructureDefinition/us-core-ethnicity",
        "extension": [ {
          "url": "ombCategory",
          "valueCoding": {
            "system": "urn:oid:2.16.840.1.113883.6.238",
            "code": "2186-5",
            "display": "Not Hispanic or Latino",
            "userSelected": true
          }
        }, {
          "url": "text",
          "valueString": "Not Hispanic or Latino"
        } ]
      } ],
      "identifier": [ {
        "type": {
          "coding": [ {
            "system": "http://terminology.hl7.org/CodeSystem/v2-0203",
            "code": "MR"
          } ]
        },
        "system": "https://bonnie-fhir.healthit.gov/",
        "value": "60f82c2d98086b570510e257"
      } ],
      "active": true,
      "name": [ {
        "use": "usual",
        "family": "DENEXPass",
        "given": [ "LOS<1DayEDB4EncIP" ]
      } ],
      "gender": "male",
      "birthDate": "1994-08-21"
    },
    "request": {
      "method": "PUT",
      "url": "Patient/7317795b-638b-4d0c-9e9e-b55ade45958c"
    }
  }, {
    "fullUrl": "https://madie.cms.gov/Encounter/1328647e-5384-4515-b82d-2e43bed643e3",
    "resource": {
      "resourceType": "Encounter",
      "id": "1328647e-5384-4515-b82d-2e43bed643e3",
      "meta": {
        "profile": [ "http://hl7.org/fhir/us/qicore/StructureDefinition/qicore-encounter" ]
      },
      "status": "finished",
      "class": {
        "system": "http://terminology.hl7.org/CodeSystem/v3-ActCode",
        "code": "EMER",
        "display": "emergency"
      },
      "type": [ {
        "coding": [ {
          "system": "http://snomed.info/sct",
          "code": "4525004"
        } ]
      } ],
      "subject": {
        "reference": "Patient/7317795b-638b-4d0c-9e9e-b55ade45958c"
      },
      "period": {
        "start": "2026-08-20T08:00:00Z",
        "end": "2026-08-20T21:00:00.000+00:00"
      },
      "length": {
        "value": 0,
        "unit": "days"
      }
    },
    "request": {
      "method": "PUT",
      "url": "Encounter/1328647e-5384-4515-b82d-2e43bed643e3"
    }
  }, {
    "fullUrl": "https://madie.cms.gov/Encounter/f95fe2a1-5e9e-41ef-81f8-93fe86ecf227",
    "resource": {
      "resourceType": "Encounter",
      "id": "f95fe2a1-5e9e-41ef-81f8-93fe86ecf227",
      "meta": {
        "profile": [ "http://hl7.org/fhir/us/qicore/StructureDefinition/qicore-encounter" ]
      },
      "status": "finished",
      "class": {
        "system": "http://terminology.hl7.org/CodeSystem/v3-ActCode",
        "code": "IMP",
        "display": "inpatient encounter"
      },
      "type": [ {
        "coding": [ {
          "system": "http://snomed.info/sct",
          "code": "32485007"
        } ]
      } ],
      "subject": {
        "reference": "Patient/7317795b-638b-4d0c-9e9e-b55ade45958c"
      },
      "period": {
        "start": "2026-08-20T22:00:00Z",
        "end": "2026-08-20T23:59:00.000+00:00"
      },
      "length": {
        "value": 0,
        "unit": "days"
      },
      "reasonReference": [ {
        "reference": "Condition/406e4d4d-f3f0-4dc1-b882-871e5d1684ed"
      } ]
    },
    "request": {
      "method": "PUT",
      "url": "Encounter/f95fe2a1-5e9e-41ef-81f8-93fe86ecf227"
    }
  }, {
    "fullUrl": "https://madie.cms.gov/Coverage/a95f7183-e82f-4b26-a3ec-bd68c63bfe55",
    "resource": {
      "resourceType": "Coverage",
      "id": "a95f7183-e82f-4b26-a3ec-bd68c63bfe55",
      "status": "active",
      "beneficiary": {
        "reference": "Patient/7317795b-638b-4d0c-9e9e-b55ade45958c"
      },
      "period": {
        "start": "1994-08-21T07:00:00Z"
      },
      "payor": [ {
        "reference": "Organization/23e0a246-1ac6-4394-8bd2-09abc65cc35f"
      } ]
    },
    "request": {
      "method": "PUT",
      "url": "Coverage/a95f7183-e82f-4b26-a3ec-bd68c63bfe55"
    }
  }, {
    "fullUrl": "https://madie.cms.gov/Condition/406e4d4d-f3f0-4dc1-b882-871e5d1684ed",
    "resource": {
      "resourceType": "Condition",
      "id": "406e4d4d-f3f0-4dc1-b882-871e5d1684ed",
      "meta": {
        "profile": [ "http://hl7.org/fhir/us/qicore/StructureDefinition/qicore-condition-encounter-diagnosis" ]
      },
      "clinicalStatus": {
        "coding": [ {
          "system": "http://terminology.hl7.org/CodeSystem/condition-clinical",
          "code": "active"
        } ]
      },
      "verificationStatus": {
        "coding": [ {
          "system": "http://terminology.hl7.org/CodeSystem/condition-ver-status",
          "code": "confirmed"
        } ]
      },
      "category": [ {
        "coding": [ {
          "system": "http://terminology.hl7.org/CodeSystem/condition-category",
          "code": "encounter-diagnosis",
          "display": "Encounter Diagnosis"
        } ]
      } ],
      "code": {
        "coding": [ {
          "system": "http://snomed.info/sct",
          "version": "2020-09",
          "code": "111297002",
          "display": "Nonparalytic stroke (disorder)",
          "userSelected": true
        } ]
      },
      "subject": {
        "reference": "Patient/7317795b-638b-4d0c-9e9e-b55ade45958c"
      },
      "encounter": {
        "reference": "Encounter/f95fe2a1-5e9e-41ef-81f8-93fe86ecf227"
      },
      "recordedDate": "2026-08-13T08:00:00Z"
    },
    "request": {
      "method": "PUT",
      "url": "Condition/406e4d4d-f3f0-4dc1-b882-871e5d1684ed"
    }
  }, {
    "fullUrl": "https://madie.cms.gov/claim/5ca62962b8484628b8de1ec5",
    "resource": {
      "resourceType": "Claim",
      "id": "5ca62962b8484628b8de1ec5",
      "meta": {
        "profile": [ "http://hl7.org/fhir/us/qicore/StructureDefinition/qicore-claim" ]
      },
      "status": "active",
      "type": {
        "coding": [ {
          "system": "http://terminology.hl7.org/CodeSystem/claim-type",
          "code": "institutional"
        } ]
      },
      "use": "claim",
      "patient": {
        "reference": "Patient/d170a0a8-b5ad-4303-b6df-e304dd5f92ad"
      },
      "created": "2026-12-01",
      "provider": {
        "reference": "Practitioner/practitioner-123456"
      },
      "priority": {
        "coding": [ {
          "system": "http://terminology.hl7.org/CodeSystem/processpriority",
          "code": "normal"
        } ]
      },
      "diagnosis": [ {
        "sequence": 1,
        "diagnosisCodeableConcept": {
          "coding": [ {
            "system": "http://hl7.org/fhir/sid/icd-10-cm",
            "code": "I63.00"
          } ]
        },
        "type": [ {
          "coding": [ {
            "system": "http://terminology.hl7.org/CodeSystem/ex-diagnosistype",
            "code": "principal"
          } ]
        } ]
      } ],
      "insurance": [ {
        "sequence": 1,
        "focal": true,
        "coverage": {
          "reference": "Coverage/5fa041661c76ba66d9959367"
        }
      } ],
      "item": [ {
        "sequence": 1,
        "diagnosisSequence": [ 1 ],
        "productOrService": {
          "coding": [ {
            "system": "http://terminology.hl7.org/CodeSystem/ex-USCLS",
            "code": "99555"
          } ]
        },
        "encounter": [ {
          "reference": "Encounter/f95fe2a1-5e9e-41ef-81f8-93fe86ecf227"
        } ]
      } ]
    },
    "request": {
      "method": "PUT",
      "url": "Claim/5ca62962b8484628b8de1ec5"
    }
  }, {
    "fullUrl": "https://madie.cms.gov/Organization/23e0a246-1ac6-4394-8bd2-09abc65cc35f",
    "resource": {
      "resourceType": "Organization",
      "id": "23e0a246-1ac6-4394-8bd2-09abc65cc35f",
      "meta": {
        "profile": [ "http://hl7.org/fhir/us/qicore/StructureDefinition/qicore-organization" ]
      },
      "identifier": [ {
        "use": "temp",
        "system": "urn:oid:2.16.840.1.113883.4.4",
        "value": "21-3259825"
      } ],
      "active": true,
      "type": [ {
        "coding": [ {
          "system": "http://terminology.hl7.org/CodeSystem/organization-type",
          "code": "pay",
          "display": "Payer"
        } ]
      } ],
      "name": "Blue Cross Blue Shield of Texas",
      "telecom": [ {
        "system": "phone",
        "value": "(+1) 972-766-6900"
      } ],
      "address": [ {
        "use": "billing",
        "type": "postal",
        "line": [ "P.O. Box 660044" ],
        "city": "Dallas",
        "state": "TX",
        "postalCode": "75266-0044",
        "country": "USA"
      } ]
    },
    "request": {
      "method": "PUT",
      "url": "Organization/23e0a246-1ac6-4394-8bd2-09abc65cc35f"
    }
  }, {
    "fullUrl": "https://madie.cms.gov/MeasureReport/00fea063-baf4-4f66-ac31-0aa37efb5ec1",
    "resource": {
      "resourceType": "MeasureReport",
      "id": "00fea063-baf4-4f66-ac31-0aa37efb5ec1",
      "meta": {
        "profile": [ "http://hl7.org/fhir/us/cqfmeasures/StructureDefinition/test-case-cqfm" ]
      },
      "contained": [ {
        "resourceType": "Parameters",
        "id": "8968adb8-c047-4f61-b58f-7283be43da45-parameters",
        "parameter": [ {
          "name": "subject",
          "valueString": "7317795b-638b-4d0c-9e9e-b55ade45958c"
        } ]
      } ],
      "extension": [ {
        "url": "http://hl7.org/fhir/StructureDefinition/cqf-inputParameters",
        "valueReference": {
          "reference": "#8968adb8-c047-4f61-b58f-7283be43da45-parameters"
        }
      }, {
        "url": "http://hl7.org/fhir/us/cqfmeasures/StructureDefinition/cqfm-testCaseDescription",
        "valueMarkdown": "LOS < 1 day, timing starts with ED visit since ED ends concurrent with IP Encounter start. global.Hospitalization ( =Ed +IP)\n"
      } ],
      "modifierExtension": [ {
        "url": "http://hl7.org/fhir/us/cqfmeasures/StructureDefinition/cqfm-isTestCase",
        "valueBoolean": true
      } ],
      "status": "complete",
      "type": "individual",
      "measure": "https://madie.cms.gov/Measure/CMS72FHIRSTKAntithromboticDay2",
      "period": {
        "start": "2026-01-01",
        "end": "2026-12-31"
      },
      "group": [ {
        "id": "Group_1",
        "population": [ {
          "id": "InitialPopulation_1",
          "code": {
            "coding": [ {
              "system": "http://terminology.hl7.org/CodeSystem/measure-population",
              "code": "initial-population",
              "display": "Initial Population"
            } ]
          },
          "count": 1
        }, {
          "id": "Denominator_1",
          "code": {
            "coding": [ {
              "system": "http://terminology.hl7.org/CodeSystem/measure-population",
              "code": "denominator",
              "display": "Denominator"
            } ]
          },
          "count": 1
        }, {
          "id": "DenominatorExclusion_1",
          "code": {
            "coding": [ {
              "system": "http://terminology.hl7.org/CodeSystem/measure-population",
              "code": "denominator-exclusion",
              "display": "Denominator Exclusion"
            } ]
          },
          "count": 1
        }, {
          "id": "Numerator_1",
          "code": {
            "coding": [ {
              "system": "http://terminology.hl7.org/CodeSystem/measure-population",
              "code": "numerator",
              "display": "Numerator"
            } ]
          },
          "count": 0
        }, {
          "id": "DenominatorException_1",
          "code": {
            "coding": [ {
              "system": "http://terminology.hl7.org/CodeSystem/measure-population",
              "code": "denominator-exception",
              "display": "Denominator Exception"
            } ]
          },
          "count": 0
        } ],
        "measureScore": {
          "value": 0.0
        }
      } ],
      "evaluatedResource": [ {
        "reference": "Patient/7317795b-638b-4d0c-9e9e-b55ade45958c"
      }, {
        "reference": "Encounter/1328647e-5384-4515-b82d-2e43bed643e3"
      }, {
        "reference": "Encounter/f95fe2a1-5e9e-41ef-81f8-93fe86ecf227"
      }, {
        "reference": "Coverage/a95f7183-e82f-4b26-a3ec-bd68c63bfe55"
      }, {
        "reference": "Condition/406e4d4d-f3f0-4dc1-b882-871e5d1684ed"
      }, {
        "reference": "Claim/5ca62962b8484628b8de1ec5"
      }, {
        "reference": "Organization/23e0a246-1ac6-4394-8bd2-09abc65cc35f"
      } ]
    },
    "request": {
      "method": "PUT",
      "url": "MeasureReport/00fea063-baf4-4f66-ac31-0aa37efb5ec1"
    }
  } ]
}