{
  "resourceType": "Bundle",
  "id": "630307c30968f80122477ae5",
  "type": "transaction",
  "entry": [ {
    "fullUrl": "https://madie.cms.gov/Patient/9f647f13-3b86-4bba-8f9d-0a07add72c04",
    "resource": {
      "resourceType": "Patient",
      "id": "9f647f13-3b86-4bba-8f9d-0a07add72c04",
      "meta": {
        "profile": [ "http://hl7.org/fhir/us/qicore/StructureDefinition/qicore-patient" ]
      },
      "extension": [ {
        "url": "http://hl7.org/fhir/us/core/StructureDefinition/us-core-race",
        "extension": [ {
          "url": "ombCategory",
          "valueCoding": {
            "system": "urn:oid:2.16.840.1.113883.6.238",
            "code": "2106-3",
            "display": "White"
          }
        }, {
          "url": "text",
          "valueString": "White"
        } ]
      }, {
        "url": "http://hl7.org/fhir/us/core/StructureDefinition/us-core-ethnicity",
        "extension": [ {
          "url": "ombCategory",
          "valueCoding": {
            "system": "urn:oid:2.16.840.1.113883.6.238",
            "code": "2186-5",
            "display": "Not Hispanic or Latino"
          }
        }, {
          "url": "text",
          "valueString": "Not Hispanic or Latino"
        } ]
      } ],
      "identifier": [ {
        "type": {
          "coding": [ {
            "system": "http://terminology.hl7.org/CodeSystem/v2-0203",
            "code": "MR"
          } ]
        },
        "system": "https://bonnie-fhir.healthit.gov/",
        "value": "630307c30968f80122477ae5"
      } ],
      "name": [ {
        "family": "DENEXPopStrat1Fail",
        "given": [ "HospiceEncounterStatusUnknown" ]
      } ],
      "gender": "female",
      "birthDate": "2011-01-01"
    },
    "request": {
      "method": "PUT",
      "url": "Patient/9f647f13-3b86-4bba-8f9d-0a07add72c04"
    }
  }, {
    "fullUrl": "https://madie.cms.gov/Encounter/462a7293-196a-4175-ab4e-fd6479b3f96c",
    "resource": {
      "resourceType": "Encounter",
      "id": "462a7293-196a-4175-ab4e-fd6479b3f96c",
      "meta": {
        "profile": [ "http://hl7.org/fhir/us/qicore/StructureDefinition/qicore-encounter" ]
      },
      "status": "finished",
      "class": {
        "system": "http://terminology.hl7.org/CodeSystem/v3-ActCode",
        "code": "AMB",
        "display": "ambulatory"
      },
      "type": [ {
        "coding": [ {
          "system": "http://www.ama-assn.org/go/cpt",
          "version": "2024",
          "code": "90791"
        } ]
      } ],
      "subject": {
        "reference": "Patient/9f647f13-3b86-4bba-8f9d-0a07add72c04"
      },
      "period": {
        "start": "2025-02-25T14:30:00+00:00",
        "end": "2025-02-25T14:50:00+00:00"
      },
      "length": {
        "value": 0,
        "unit": "days"
      }
    },
    "request": {
      "method": "PUT",
      "url": "Encounter/462a7293-196a-4175-ab4e-fd6479b3f96c"
    }
  }, {
    "fullUrl": "https://madie.cms.gov/Observation/52174f1c-1637-4cc1-8a2b-c70e26ca224a",
    "resource": {
      "resourceType": "Observation",
      "id": "52174f1c-1637-4cc1-8a2b-c70e26ca224a",
      "meta": {
        "profile": [ "http://hl7.org/fhir/us/qicore/StructureDefinition/qicore-observation-screening-assessment" ]
      },
      "status": "final",
      "category": [ {
        "coding": [ {
          "system": "http://terminology.hl7.org/CodeSystem/observation-category",
          "code": "survey",
          "display": "Survey"
        } ]
      } ],
      "code": {
        "coding": [ {
          "system": "http://loinc.org",
          "version": "2.76",
          "code": "44261-6"
        } ]
      },
      "subject": {
        "reference": "Patient/9f647f13-3b86-4bba-8f9d-0a07add72c04"
      },
      "effectiveDateTime": "2025-02-25T14:35:00+00:00",
      "valueInteger": 10
    },
    "request": {
      "method": "PUT",
      "url": "Observation/52174f1c-1637-4cc1-8a2b-c70e26ca224a"
    }
  }, {
    "fullUrl": "https://madie.cms.gov/Condition/ff2ed054-ee91-4a45-a3fa-6bf409607ed5",
    "resource": {
      "resourceType": "Condition",
      "id": "ff2ed054-ee91-4a45-a3fa-6bf409607ed5",
      "meta": {
        "profile": [ "http://hl7.org/fhir/us/qicore/StructureDefinition/qicore-condition-problems-health-concerns" ]
      },
      "clinicalStatus": {
        "coding": [ {
          "system": "http://terminology.hl7.org/CodeSystem/condition-clinical",
          "code": "active",
          "display": "active"
        } ]
      },
      "verificationStatus": {
        "coding": [ {
          "system": "http://terminology.hl7.org/CodeSystem/condition-ver-status",
          "code": "confirmed"
        } ]
      },
      "category": [ {
        "coding": [ {
          "system": "http://terminology.hl7.org/CodeSystem/condition-category",
          "code": "problem-list-item",
          "display": "Problem List Item"
        } ]
      } ],
      "code": {
        "coding": [ {
          "system": "http://hl7.org/fhir/sid/icd-10-cm",
          "version": "2024",
          "code": "F32.9"
        } ]
      },
      "subject": {
        "reference": "Patient/9f647f13-3b86-4bba-8f9d-0a07add72c04"
      },
      "onsetDateTime": "2025-02-25T14:35:00+00:00"
    },
    "request": {
      "method": "PUT",
      "url": "Condition/ff2ed054-ee91-4a45-a3fa-6bf409607ed5"
    }
  }, {
    "fullUrl": "https://madie.cms.gov/Encounter/eb297e92-9e62-452b-bcdd-180154254ec2",
    "resource": {
      "resourceType": "Encounter",
      "id": "eb297e92-9e62-452b-bcdd-180154254ec2",
      "meta": {
        "profile": [ "http://hl7.org/fhir/us/qicore/StructureDefinition/qicore-encounter" ]
      },
      "status": "unknown",
      "class": {
        "system": "http://terminology.hl7.org/CodeSystem/v3-ActCode",
        "code": "NONAC",
        "display": "inpatient non-acute"
      },
      "type": [ {
        "coding": [ {
          "system": "http://snomed.info/sct",
          "version": "http://snomed.info/sct/731000124108/version/20240301",
          "code": "305336008"
        } ]
      } ],
      "subject": {
        "reference": "Patient/9f647f13-3b86-4bba-8f9d-0a07add72c04"
      },
      "period": {
        "start": "2025-12-31T08:00:00+00:00",
        "end": "2026-01-01T12:00:00+00:00"
      }
    },
    "request": {
      "method": "PUT",
      "url": "Encounter/eb297e92-9e62-452b-bcdd-180154254ec2"
    }
  }, {
    "fullUrl": "https://madie.cms.gov/MeasureReport/4ffca1bc-bba8-452b-a7c8-a6bfff536a3b",
    "resource": {
      "resourceType": "MeasureReport",
      "id": "4ffca1bc-bba8-452b-a7c8-a6bfff536a3b",
      "meta": {
        "profile": [ "http://hl7.org/fhir/us/cqfmeasures/StructureDefinition/test-case-cqfm" ]
      },
      "contained": [ {
        "resourceType": "Parameters",
        "id": "d4492e35-41c7-45fb-9670-d01f88f2de25-parameters",
        "parameter": [ {
          "name": "subject",
          "valueString": "9f647f13-3b86-4bba-8f9d-0a07add72c04"
        } ]
      } ],
      "extension": [ {
        "url": "http://hl7.org/fhir/StructureDefinition/cqf-inputParameters",
        "valueReference": {
          "reference": "#d4492e35-41c7-45fb-9670-d01f88f2de25-parameters"
        }
      }, {
        "url": "http://hl7.org/fhir/us/cqfmeasures/StructureDefinition/cqfm-testCaseDescription",
        "valueMarkdown": "Patient has a Major Depression Dx and PHQ-9 > 9 during the denom ID period. Patient has unknown status for Hospice Encounter during start of denom ID period and start of measure assessment period. Should not be in denominator exclusion for Strat 1."
      } ],
      "modifierExtension": [ {
        "url": "http://hl7.org/fhir/us/cqfmeasures/StructureDefinition/cqfm-isTestCase",
        "valueBoolean": true
      } ],
      "status": "complete",
      "type": "individual",
      "measure": "https://madie.cms.gov/Measure/CMS159FHIRDepressionRemissionatTwelveMonths",
      "period": {
        "start": "2026-01-01",
        "end": "2026-12-31"
      },
      "group": [ {
        "id": "Group_1",
        "population": [ {
          "id": "InitialPopulation_1",
          "code": {
            "coding": [ {
              "system": "http://terminology.hl7.org/CodeSystem/measure-population",
              "code": "initial-population",
              "display": "Initial Population"
            } ]
          },
          "count": 1
        }, {
          "id": "Denominator_1",
          "code": {
            "coding": [ {
              "system": "http://terminology.hl7.org/CodeSystem/measure-population",
              "code": "denominator",
              "display": "Denominator"
            } ]
          },
          "count": 1
        }, {
          "id": "DenominatorExclusion_1",
          "code": {
            "coding": [ {
              "system": "http://terminology.hl7.org/CodeSystem/measure-population",
              "code": "denominator-exclusion",
              "display": "Denominator Exclusion"
            } ]
          },
          "count": 0
        }, {
          "id": "Numerator_1",
          "code": {
            "coding": [ {
              "system": "http://terminology.hl7.org/CodeSystem/measure-population",
              "code": "numerator",
              "display": "Numerator"
            } ]
          },
          "count": 0
        } ],
        "measureScore": {
          "value": 1.0
        }
      } ],
      "evaluatedResource": [ {
        "reference": "Patient/9f647f13-3b86-4bba-8f9d-0a07add72c04"
      }, {
        "reference": "Encounter/462a7293-196a-4175-ab4e-fd6479b3f96c"
      }, {
        "reference": "Observation/52174f1c-1637-4cc1-8a2b-c70e26ca224a"
      }, {
        "reference": "Condition/ff2ed054-ee91-4a45-a3fa-6bf409607ed5"
      }, {
        "reference": "Encounter/eb297e92-9e62-452b-bcdd-180154254ec2"
      } ]
    },
    "request": {
      "method": "PUT",
      "url": "MeasureReport/4ffca1bc-bba8-452b-a7c8-a6bfff536a3b"
    }
  } ]
}