{
  "resourceType": "Bundle",
  "id": "60f82c3098086b570510e2f4",
  "type": "transaction",
  "entry": [ {
    "fullUrl": "https://madie.cms.gov/Patient/c21e25c9-a450-4e08-b9be-f0ca9dac5389",
    "resource": {
      "resourceType": "Patient",
      "id": "c21e25c9-a450-4e08-b9be-f0ca9dac5389",
      "meta": {
        "profile": [ "http://hl7.org/fhir/us/qicore/StructureDefinition/qicore-patient" ]
      },
      "text": {
        "status": "generated",
        "div": "<div xmlns=\"http://www.w3.org/1999/xhtml\"><div class=\"hapiHeaderText\">CMO_DayOf_AuthDat_1minB4EDStart_EDEndLT1hrB4Obs_ObsEndLT1hrB4IP <b>DENEXPASS </b></div><table class=\"hapiPropertyTable\"><tbody><tr><td>Date of birth</td><td><span>01 January 1980</span></td></tr></tbody></table></div>"
      },
      "extension": [ {
        "url": "http://hl7.org/fhir/us/core/StructureDefinition/us-core-race",
        "extension": [ {
          "url": "ombCategory",
          "valueCoding": {
            "system": "urn:oid:2.16.840.1.113883.6.238",
            "code": "2106-3",
            "display": "White",
            "userSelected": true
          }
        }, {
          "url": "text",
          "valueString": "White"
        } ]
      }, {
        "url": "http://hl7.org/fhir/us/core/StructureDefinition/us-core-ethnicity",
        "extension": [ {
          "url": "ombCategory",
          "valueCoding": {
            "system": "urn:oid:2.16.840.1.113883.6.238",
            "code": "2186-5",
            "display": "Not Hispanic or Latino",
            "userSelected": true
          }
        }, {
          "url": "text",
          "valueString": "Not Hispanic or Latino"
        } ]
      } ],
      "identifier": [ {
        "type": {
          "coding": [ {
            "system": "http://terminology.hl7.org/CodeSystem/v2-0203",
            "code": "MR"
          } ]
        },
        "system": "https://bonnie-fhir.healthit.gov/",
        "value": "60f82c3098086b570510e2f4"
      } ],
      "active": true,
      "name": [ {
        "use": "usual",
        "family": "DENEXPass",
        "given": [ "CMO_DayOf_AuthDat_1minB4EDStart_EDEndLT1hrB4Obs_ObsEndLT1hrB4IP" ]
      } ],
      "gender": "female",
      "birthDate": "1981-01-01"
    },
    "request": {
      "method": "PUT",
      "url": "Patient/c21e25c9-a450-4e08-b9be-f0ca9dac5389"
    }
  }, {
    "fullUrl": "https://madie.cms.gov/Encounter/0473e175-ede8-4f8a-8f09-baece4d61adf",
    "resource": {
      "resourceType": "Encounter",
      "id": "0473e175-ede8-4f8a-8f09-baece4d61adf",
      "meta": {
        "profile": [ "http://hl7.org/fhir/us/qicore/StructureDefinition/qicore-encounter" ]
      },
      "status": "finished",
      "class": {
        "system": "http://terminology.hl7.org/CodeSystem/v3-ActCode",
        "code": "EMER",
        "display": "emergency",
        "userSelected": true
      },
      "type": [ {
        "coding": [ {
          "system": "http://snomed.info/sct",
          "code": "4525004"
        } ]
      } ],
      "subject": {
        "reference": "Patient/c21e25c9-a450-4e08-b9be-f0ca9dac5389"
      },
      "period": {
        "start": "2026-11-18T07:00:00Z",
        "end": "2026-11-18T08:01:00.000+00:00"
      },
      "reasonReference": [ {
        "reference": "Condition/3208d5b8-9978-4422-9485-9f859ca5a298"
      } ]
    },
    "request": {
      "method": "PUT",
      "url": "Encounter/0473e175-ede8-4f8a-8f09-baece4d61adf"
    }
  }, {
    "fullUrl": "https://madie.cms.gov/Encounter/1213ac01-54c9-423c-a2b3-f7d5daf7ec39",
    "resource": {
      "resourceType": "Encounter",
      "id": "1213ac01-54c9-423c-a2b3-f7d5daf7ec39",
      "meta": {
        "profile": [ "http://hl7.org/fhir/us/qicore/StructureDefinition/qicore-encounter" ]
      },
      "status": "finished",
      "class": {
        "system": "http://terminology.hl7.org/CodeSystem/v3-ActCode",
        "code": "OBSENC",
        "display": "observation encounter",
        "userSelected": true
      },
      "type": [ {
        "coding": [ {
          "system": "http://snomed.info/sct",
          "code": "448951000124107"
        } ]
      } ],
      "subject": {
        "reference": "Patient/c21e25c9-a450-4e08-b9be-f0ca9dac5389"
      },
      "period": {
        "start": "2026-11-18T09:00:00Z",
        "end": "2026-11-18T10:01:00.000+00:00"
      }
    },
    "request": {
      "method": "PUT",
      "url": "Encounter/1213ac01-54c9-423c-a2b3-f7d5daf7ec39"
    }
  }, {
    "fullUrl": "https://madie.cms.gov/claim/5ca62962b8484628b8de1ec5",
    "resource": {
      "resourceType": "Claim",
      "id": "5ca62962b8484628b8de1ec5",
      "meta": {
        "profile": [ "http://hl7.org/fhir/us/qicore/StructureDefinition/qicore-claim" ]
      },
      "status": "active",
      "type": {
        "coding": [ {
          "system": "http://terminology.hl7.org/CodeSystem/claim-type",
          "code": "institutional"
        } ]
      },
      "use": "claim",
      "patient": {
        "reference": "Patient/c21e25c9-a450-4e08-b9be-f0ca9dac5389"
      },
      "created": "2026-12-01",
      "provider": {
        "reference": "Practitioner/practitioner-123456"
      },
      "priority": {
        "coding": [ {
          "system": "http://terminology.hl7.org/CodeSystem/processpriority",
          "code": "normal"
        } ]
      },
      "diagnosis": [ {
        "sequence": 1,
        "diagnosisCodeableConcept": {
          "coding": [ {
            "system": "http://hl7.org/fhir/sid/icd-10-cm",
            "code": "I63.00"
          } ]
        },
        "type": [ {
          "coding": [ {
            "system": "http://terminology.hl7.org/CodeSystem/ex-diagnosistype",
            "code": "principal"
          } ]
        } ]
      } ],
      "insurance": [ {
        "sequence": 1,
        "focal": true,
        "coverage": {
          "reference": "Coverage/5fa041661c76ba66d9959367"
        }
      } ],
      "item": [ {
        "sequence": 1,
        "diagnosisSequence": [ 1 ],
        "productOrService": {
          "coding": [ {
            "system": "http://terminology.hl7.org/CodeSystem/ex-USCLS",
            "code": "99555"
          } ]
        },
        "encounter": [ {
          "reference": "Encounter/e9ecbfc8-d086-4939-8e29-207e4d17d822"
        } ]
      } ]
    },
    "request": {
      "method": "PUT",
      "url": "Claim/5ca62962b8484628b8de1ec5"
    }
  }, {
    "fullUrl": "https://madie.cms.gov/Encounter/e9ecbfc8-d086-4939-8e29-207e4d17d822",
    "resource": {
      "resourceType": "Encounter",
      "id": "e9ecbfc8-d086-4939-8e29-207e4d17d822",
      "meta": {
        "profile": [ "http://hl7.org/fhir/us/qicore/StructureDefinition/qicore-encounter" ]
      },
      "status": "finished",
      "class": {
        "system": "http://terminology.hl7.org/CodeSystem/v3-ActCode",
        "code": "IMP",
        "display": "inpatient encounter",
        "userSelected": true
      },
      "type": [ {
        "coding": [ {
          "system": "http://snomed.info/sct",
          "code": "183452005"
        } ]
      } ],
      "subject": {
        "reference": "Patient/c21e25c9-a450-4e08-b9be-f0ca9dac5389"
      },
      "period": {
        "start": "2026-11-18T11:00:00Z",
        "end": "2026-11-20T08:15:00.000+00:00"
      },
      "reasonReference": [ {
        "reference": "Condition/3208d5b8-9978-4422-9485-9f859ca5a298"
      } ]
    },
    "request": {
      "method": "PUT",
      "url": "Encounter/e9ecbfc8-d086-4939-8e29-207e4d17d822"
    }
  }, {
    "fullUrl": "https://madie.cms.gov/ServiceRequest/b0303ccc-b543-496f-b59c-f7e495566198",
    "resource": {
      "resourceType": "ServiceRequest",
      "id": "b0303ccc-b543-496f-b59c-f7e495566198",
      "meta": {
        "profile": [ "http://hl7.org/fhir/us/qicore/StructureDefinition/qicore-servicerequest" ]
      },
      "status": "active",
      "intent": "order",
      "code": {
        "coding": [ {
          "system": "http://snomed.info/sct",
          "code": "133918004"
        } ]
      },
      "subject": {
        "reference": "Patient/c21e25c9-a450-4e08-b9be-f0ca9dac5389"
      },
      "authoredOn": "2026-11-18T06:59:00Z"
    },
    "request": {
      "method": "PUT",
      "url": "ServiceRequest/b0303ccc-b543-496f-b59c-f7e495566198"
    }
  }, {
    "fullUrl": "https://madie.cms.gov/Condition/3208d5b8-9978-4422-9485-9f859ca5a298",
    "resource": {
      "resourceType": "Condition",
      "id": "3208d5b8-9978-4422-9485-9f859ca5a298",
      "meta": {
        "profile": [ "http://hl7.org/fhir/us/qicore/StructureDefinition/qicore-condition" ]
      },
      "clinicalStatus": {
        "coding": [ {
          "system": "http://terminology.hl7.org/CodeSystem/condition-clinical",
          "code": "active"
        } ]
      },
      "verificationStatus": {
        "coding": [ {
          "system": "http://terminology.hl7.org/CodeSystem/condition-ver-status",
          "code": "confirmed"
        } ]
      },
      "category": [ {
        "coding": [ {
          "system": "http://terminology.hl7.org/CodeSystem/condition-category",
          "code": "encounter-diagnosis",
          "display": "Encounter Diagnosis"
        } ]
      } ],
      "code": {
        "coding": [ {
          "system": "http://snomed.info/sct",
          "version": "2020-09",
          "code": "111297002",
          "display": "Nonparalytic stroke (disorder)",
          "userSelected": true
        } ]
      },
      "subject": {
        "reference": "Patient/c21e25c9-a450-4e08-b9be-f0ca9dac5389"
      },
      "recordedDate": "2026-08-12T08:00:00Z"
    },
    "request": {
      "method": "PUT",
      "url": "Condition/3208d5b8-9978-4422-9485-9f859ca5a298"
    }
  }, {
    "fullUrl": "https://madie.cms.gov/Coverage/df519cd2-cc08-4717-b146-e43ce082de69",
    "resource": {
      "resourceType": "Coverage",
      "id": "df519cd2-cc08-4717-b146-e43ce082de69",
      "meta": {
        "profile": [ "http://hl7.org/fhir/us/qicore/StructureDefinition/qicore-coverage" ]
      },
      "status": "active",
      "beneficiary": {
        "reference": "Patient/c21e25c9-a450-4e08-b9be-f0ca9dac5389"
      },
      "payor": [ {
        "reference": "Organization/bc686d7c-1f8e-4209-b2db-07a2f33e3404"
      } ]
    },
    "request": {
      "method": "PUT",
      "url": "Coverage/df519cd2-cc08-4717-b146-e43ce082de69"
    }
  }, {
    "fullUrl": "https://madie.cms.gov/Organization/bc686d7c-1f8e-4209-b2db-07a2f33e3404",
    "resource": {
      "resourceType": "Organization",
      "id": "bc686d7c-1f8e-4209-b2db-07a2f33e3404",
      "meta": {
        "profile": [ "http://hl7.org/fhir/us/qicore/StructureDefinition/qicore-organization" ]
      },
      "identifier": [ {
        "use": "temp",
        "system": "urn:oid:2.16.840.1.113883.4.4",
        "value": "21-3259825"
      } ],
      "active": true,
      "type": [ {
        "coding": [ {
          "system": "http://terminology.hl7.org/CodeSystem/organization-type",
          "code": "pay",
          "display": "Payer"
        } ]
      } ],
      "name": "Blue Cross Blue Shield of Texas",
      "telecom": [ {
        "system": "phone",
        "value": "(+1) 972-766-6900"
      } ],
      "address": [ {
        "use": "billing",
        "type": "postal",
        "line": [ "P.O. Box 660044" ],
        "city": "Dallas",
        "state": "TX",
        "postalCode": "75266-0044",
        "country": "USA"
      } ]
    },
    "request": {
      "method": "PUT",
      "url": "Organization/bc686d7c-1f8e-4209-b2db-07a2f33e3404"
    }
  }, {
    "fullUrl": "https://madie.cms.gov/MeasureReport/1bbbc521-82d6-4a91-9e51-8a9d8792afc3",
    "resource": {
      "resourceType": "MeasureReport",
      "id": "1bbbc521-82d6-4a91-9e51-8a9d8792afc3",
      "meta": {
        "profile": [ "http://hl7.org/fhir/us/cqfmeasures/StructureDefinition/test-case-cqfm" ]
      },
      "contained": [ {
        "resourceType": "Parameters",
        "id": "3bbf44c2-658d-4a04-8106-9370d80f37b6-parameters",
        "parameter": [ {
          "name": "subject",
          "valueString": "c21e25c9-a450-4e08-b9be-f0ca9dac5389"
        } ]
      } ],
      "extension": [ {
        "url": "http://hl7.org/fhir/StructureDefinition/cqf-inputParameters",
        "valueReference": {
          "reference": "#3bbf44c2-658d-4a04-8106-9370d80f37b6-parameters"
        }
      }, {
        "url": "http://hl7.org/fhir/us/cqfmeasures/StructureDefinition/cqfm-testCaseDescription",
        "valueMarkdown": "Patient receives comfort measures ordereded on the day of hospital arrival, 1 minute before the start of the ED start. ED ends less than 1 hour before Obs Start, Obs ends less than 1 hour before IP start.\n"
      } ],
      "modifierExtension": [ {
        "url": "http://hl7.org/fhir/us/cqfmeasures/StructureDefinition/cqfm-isTestCase",
        "valueBoolean": true
      } ],
      "status": "complete",
      "type": "individual",
      "measure": "https://madie.cms.gov/Measure/CMS72FHIRSTKAntithromboticDay2",
      "period": {
        "start": "2026-01-01",
        "end": "2026-12-31"
      },
      "group": [ {
        "id": "Group_1",
        "population": [ {
          "id": "InitialPopulation_1",
          "code": {
            "coding": [ {
              "system": "http://terminology.hl7.org/CodeSystem/measure-population",
              "code": "initial-population",
              "display": "Initial Population"
            } ]
          },
          "count": 1
        }, {
          "id": "Denominator_1",
          "code": {
            "coding": [ {
              "system": "http://terminology.hl7.org/CodeSystem/measure-population",
              "code": "denominator",
              "display": "Denominator"
            } ]
          },
          "count": 1
        }, {
          "id": "DenominatorExclusion_1",
          "code": {
            "coding": [ {
              "system": "http://terminology.hl7.org/CodeSystem/measure-population",
              "code": "denominator-exclusion",
              "display": "Denominator Exclusion"
            } ]
          },
          "count": 1
        }, {
          "id": "Numerator_1",
          "code": {
            "coding": [ {
              "system": "http://terminology.hl7.org/CodeSystem/measure-population",
              "code": "numerator",
              "display": "Numerator"
            } ]
          },
          "count": 0
        }, {
          "id": "DenominatorException_1",
          "code": {
            "coding": [ {
              "system": "http://terminology.hl7.org/CodeSystem/measure-population",
              "code": "denominator-exception",
              "display": "Denominator Exception"
            } ]
          },
          "count": 0
        } ],
        "measureScore": {
          "value": 0.0
        }
      } ],
      "evaluatedResource": [ {
        "reference": "Patient/c21e25c9-a450-4e08-b9be-f0ca9dac5389"
      }, {
        "reference": "Encounter/0473e175-ede8-4f8a-8f09-baece4d61adf"
      }, {
        "reference": "Encounter/1213ac01-54c9-423c-a2b3-f7d5daf7ec39"
      }, {
        "reference": "Claim/5ca62962b8484628b8de1ec5"
      }, {
        "reference": "Encounter/e9ecbfc8-d086-4939-8e29-207e4d17d822"
      }, {
        "reference": "ServiceRequest/b0303ccc-b543-496f-b59c-f7e495566198"
      }, {
        "reference": "Condition/3208d5b8-9978-4422-9485-9f859ca5a298"
      }, {
        "reference": "Coverage/df519cd2-cc08-4717-b146-e43ce082de69"
      }, {
        "reference": "Organization/bc686d7c-1f8e-4209-b2db-07a2f33e3404"
      } ]
    },
    "request": {
      "method": "PUT",
      "url": "MeasureReport/1bbbc521-82d6-4a91-9e51-8a9d8792afc3"
    }
  } ]
}