{
  "resourceType": "Bundle",
  "id": "60f82c2e98086b570510e287",
  "type": "transaction",
  "entry": [ {
    "fullUrl": "https://madie.cms.gov/Patient/3b193bfc-511a-49a2-987a-50d8c7d9a0df",
    "resource": {
      "resourceType": "Patient",
      "id": "3b193bfc-511a-49a2-987a-50d8c7d9a0df",
      "meta": {
        "profile": [ "http://hl7.org/fhir/us/qicore/StructureDefinition/qicore-patient" ]
      },
      "text": {
        "status": "generated",
        "div": "<div xmlns=\"http://www.w3.org/1999/xhtml\"><div class=\"hapiHeaderText\">CMP_DayOf_RelvDat_1minB4EDEnd_EDEndLT1hrB4Obs_ObsEndLT1hrB4IP <b>DENEXPASS </b></div><table class=\"hapiPropertyTable\"><tbody><tr><td>Identifier</td><td>e45ea273a97caf856d1691cd883a08e0</td></tr><tr><td>Date of birth</td><td><span>26 September 1975</span></td></tr></tbody></table></div>"
      },
      "extension": [ {
        "url": "http://hl7.org/fhir/us/core/StructureDefinition/us-core-race",
        "extension": [ {
          "url": "ombCategory",
          "valueCoding": {
            "system": "urn:oid:2.16.840.1.113883.6.238",
            "code": "2054-5",
            "display": "Black or African American",
            "userSelected": true
          }
        }, {
          "url": "text",
          "valueString": "Black or African American"
        } ]
      }, {
        "url": "http://hl7.org/fhir/us/core/StructureDefinition/us-core-ethnicity",
        "extension": [ {
          "url": "ombCategory",
          "valueCoding": {
            "system": "urn:oid:2.16.840.1.113883.6.238",
            "code": "2186-5",
            "display": "Not Hispanic or Latino",
            "userSelected": true
          }
        }, {
          "url": "text",
          "valueString": "Not Hispanic or Latino"
        } ]
      } ],
      "identifier": [ {
        "type": {
          "coding": [ {
            "system": "http://terminology.hl7.org/CodeSystem/v2-0203",
            "code": "MR"
          } ]
        },
        "system": "https://bonnie-fhir.healthit.gov/",
        "value": "60f82c2e98086b570510e287"
      } ],
      "active": true,
      "name": [ {
        "use": "usual",
        "family": "DENEXPass",
        "given": [ "CMPDayOfRelvDat1minB4EDEndEDEndLT1hrB4ObsObsEndLT1hrB4IP" ]
      } ],
      "gender": "female",
      "birthDate": "1976-09-26"
    },
    "request": {
      "method": "PUT",
      "url": "Patient/3b193bfc-511a-49a2-987a-50d8c7d9a0df"
    }
  }, {
    "fullUrl": "https://madie.cms.gov/Encounter/b556f21f-22e4-4d5b-84eb-e1de1ed93cd1",
    "resource": {
      "resourceType": "Encounter",
      "id": "b556f21f-22e4-4d5b-84eb-e1de1ed93cd1",
      "meta": {
        "profile": [ "http://hl7.org/fhir/us/qicore/StructureDefinition/qicore-encounter" ]
      },
      "status": "finished",
      "class": {
        "system": "http://terminology.hl7.org/CodeSystem/v3-ActCode",
        "code": "EMER",
        "display": "emergency"
      },
      "type": [ {
        "coding": [ {
          "system": "http://snomed.info/sct",
          "code": "4525004"
        } ]
      } ],
      "subject": {
        "reference": "Patient/3b193bfc-511a-49a2-987a-50d8c7d9a0df"
      },
      "period": {
        "start": "2026-10-10T04:00:00Z",
        "end": "2026-10-10T06:00:00.000+00:00"
      },
      "length": {
        "value": 1,
        "unit": "days"
      }
    },
    "request": {
      "method": "PUT",
      "url": "Encounter/b556f21f-22e4-4d5b-84eb-e1de1ed93cd1"
    }
  }, {
    "fullUrl": "https://madie.cms.gov/Encounter/05850853-01a2-4c8c-9967-481bdd87f4bb",
    "resource": {
      "resourceType": "Encounter",
      "id": "05850853-01a2-4c8c-9967-481bdd87f4bb",
      "meta": {
        "profile": [ "http://hl7.org/fhir/us/qicore/StructureDefinition/qicore-encounter" ]
      },
      "status": "finished",
      "class": {
        "system": "http://terminology.hl7.org/CodeSystem/v3-ActCode",
        "code": "IMP",
        "display": "inpatient encounter"
      },
      "type": [ {
        "coding": [ {
          "system": "http://snomed.info/sct",
          "code": "32485007"
        } ]
      } ],
      "subject": {
        "reference": "Patient/3b193bfc-511a-49a2-987a-50d8c7d9a0df"
      },
      "period": {
        "start": "2026-10-10T08:59:00Z",
        "end": "2026-10-11T11:15:00.000+00:00"
      },
      "length": {
        "value": 1,
        "unit": "days"
      },
      "reasonReference": [ {
        "reference": "Condition/cda50f61-e462-41d7-af28-81b3a56e589c"
      } ]
    },
    "request": {
      "method": "PUT",
      "url": "Encounter/05850853-01a2-4c8c-9967-481bdd87f4bb"
    }
  }, {
    "fullUrl": "https://madie.cms.gov/claim/5ca62962b8484628b8de1ec5",
    "resource": {
      "resourceType": "Claim",
      "id": "5ca62962b8484628b8de1ec5",
      "meta": {
        "profile": [ "http://hl7.org/fhir/us/qicore/StructureDefinition/qicore-claim" ]
      },
      "status": "active",
      "type": {
        "coding": [ {
          "system": "http://terminology.hl7.org/CodeSystem/claim-type",
          "code": "institutional"
        } ]
      },
      "use": "claim",
      "patient": {
        "reference": "Patient/3b193bfc-511a-49a2-987a-50d8c7d9a0df"
      },
      "created": "2026-12-01",
      "provider": {
        "reference": "Practitioner/practitioner-123456"
      },
      "priority": {
        "coding": [ {
          "system": "http://terminology.hl7.org/CodeSystem/processpriority",
          "code": "normal"
        } ]
      },
      "diagnosis": [ {
        "sequence": 1,
        "diagnosisCodeableConcept": {
          "coding": [ {
            "system": "http://hl7.org/fhir/sid/icd-10-cm",
            "code": "I63.00"
          } ]
        },
        "type": [ {
          "coding": [ {
            "system": "http://terminology.hl7.org/CodeSystem/ex-diagnosistype",
            "code": "principal"
          } ]
        } ]
      } ],
      "insurance": [ {
        "sequence": 1,
        "focal": true,
        "coverage": {
          "reference": "Coverage/7f786e22-68e1-4b93-95c8-cd31770cac55"
        }
      } ],
      "item": [ {
        "sequence": 1,
        "diagnosisSequence": [ 1 ],
        "productOrService": {
          "coding": [ {
            "system": "http://terminology.hl7.org/CodeSystem/ex-USCLS",
            "code": "99555"
          } ]
        },
        "encounter": [ {
          "reference": "Encounter/05850853-01a2-4c8c-9967-481bdd87f4bb"
        } ]
      } ]
    },
    "request": {
      "method": "PUT",
      "url": "Claim/5ca62962b8484628b8de1ec5"
    }
  }, {
    "fullUrl": "https://madie.cms.gov/Encounter/7d5b3aec-87d6-44e8-8b85-17bd236c5fa4",
    "resource": {
      "resourceType": "Encounter",
      "id": "7d5b3aec-87d6-44e8-8b85-17bd236c5fa4",
      "meta": {
        "profile": [ "http://hl7.org/fhir/us/qicore/StructureDefinition/qicore-encounter" ]
      },
      "status": "finished",
      "class": {
        "system": "http://terminology.hl7.org/CodeSystem/v3-ActCode",
        "code": "OBSENC",
        "display": "observation encounter"
      },
      "type": [ {
        "coding": [ {
          "system": "http://snomed.info/sct",
          "code": "448951000124107"
        } ]
      } ],
      "subject": {
        "reference": "Patient/3b193bfc-511a-49a2-987a-50d8c7d9a0df"
      },
      "period": {
        "start": "2026-10-10T06:59:00Z",
        "end": "2026-10-10T08:00:00.000+00:00"
      }
    },
    "request": {
      "method": "PUT",
      "url": "Encounter/7d5b3aec-87d6-44e8-8b85-17bd236c5fa4"
    }
  }, {
    "fullUrl": "https://madie.cms.gov/Procedure/9e7b4c10-a1cd-4297-a6c2-65a038e7bbee",
    "resource": {
      "resourceType": "Procedure",
      "id": "9e7b4c10-a1cd-4297-a6c2-65a038e7bbee",
      "meta": {
        "profile": [ "http://hl7.org/fhir/us/qicore/StructureDefinition/qicore-procedure" ]
      },
      "extension": [ {
        "url": "http://hl7.org/fhir/us/qicore/StructureDefinition/qicore-recorded",
        "valueDateTime": "2026-10-10T05:59:00Z"
      } ],
      "status": "completed",
      "code": {
        "coding": [ {
          "system": "http://snomed.info/sct",
          "code": "133918004"
        } ]
      },
      "subject": {
        "reference": "Patient/3b193bfc-511a-49a2-987a-50d8c7d9a0df"
      },
      "performedPeriod": {
        "start": "2026-10-10T05:59:00Z",
        "end": "2026-10-10T06:00:00.000+00:00"
      }
    },
    "request": {
      "method": "PUT",
      "url": "Procedure/9e7b4c10-a1cd-4297-a6c2-65a038e7bbee"
    }
  }, {
    "fullUrl": "https://madie.cms.gov/Coverage/7f786e22-68e1-4b93-95c8-cd31770cac55",
    "resource": {
      "resourceType": "Coverage",
      "id": "7f786e22-68e1-4b93-95c8-cd31770cac55",
      "status": "active",
      "beneficiary": {
        "reference": "Patient/3b193bfc-511a-49a2-987a-50d8c7d9a0df"
      },
      "period": {
        "start": "1976-09-26T08:00:00Z"
      },
      "payor": [ {
        "reference": "Organization/83342911-ba0e-4198-8005-63ff809329ad"
      } ]
    },
    "request": {
      "method": "PUT",
      "url": "Coverage/7f786e22-68e1-4b93-95c8-cd31770cac55"
    }
  }, {
    "fullUrl": "https://madie.cms.gov/Condition/cda50f61-e462-41d7-af28-81b3a56e589c",
    "resource": {
      "resourceType": "Condition",
      "id": "cda50f61-e462-41d7-af28-81b3a56e589c",
      "meta": {
        "profile": [ "http://hl7.org/fhir/us/qicore/StructureDefinition/qicore-condition-encounter-diagnosis" ]
      },
      "clinicalStatus": {
        "coding": [ {
          "system": "http://terminology.hl7.org/CodeSystem/condition-clinical",
          "code": "active"
        } ]
      },
      "verificationStatus": {
        "coding": [ {
          "system": "http://terminology.hl7.org/CodeSystem/condition-ver-status",
          "code": "confirmed"
        } ]
      },
      "category": [ {
        "coding": [ {
          "system": "http://terminology.hl7.org/CodeSystem/condition-category",
          "code": "encounter-diagnosis",
          "display": "Encounter Diagnosis"
        } ]
      } ],
      "code": {
        "coding": [ {
          "system": "http://snomed.info/sct",
          "version": "2020-09",
          "code": "111297002",
          "display": "Nonparalytic stroke (disorder)",
          "userSelected": true
        } ]
      },
      "subject": {
        "reference": "Patient/3b193bfc-511a-49a2-987a-50d8c7d9a0df"
      },
      "recordedDate": "2026-08-13T08:00:00Z"
    },
    "request": {
      "method": "PUT",
      "url": "Condition/cda50f61-e462-41d7-af28-81b3a56e589c"
    }
  }, {
    "fullUrl": "https://madie.cms.gov/Organization/83342911-ba0e-4198-8005-63ff809329ad",
    "resource": {
      "resourceType": "Organization",
      "id": "83342911-ba0e-4198-8005-63ff809329ad",
      "meta": {
        "profile": [ "http://hl7.org/fhir/us/qicore/StructureDefinition/qicore-organization" ]
      },
      "identifier": [ {
        "use": "temp",
        "system": "urn:oid:2.16.840.1.113883.4.4",
        "value": "21-3259825"
      } ],
      "active": true,
      "type": [ {
        "coding": [ {
          "system": "http://terminology.hl7.org/CodeSystem/organization-type",
          "code": "pay",
          "display": "Payer"
        } ]
      } ],
      "name": "Blue Cross Blue Shield of Texas",
      "telecom": [ {
        "system": "phone",
        "value": "(+1) 972-766-6900"
      } ],
      "address": [ {
        "use": "billing",
        "type": "postal",
        "line": [ "P.O. Box 660044" ],
        "city": "Dallas",
        "state": "TX",
        "postalCode": "75266-0044",
        "country": "USA"
      } ]
    },
    "request": {
      "method": "PUT",
      "url": "Organization/83342911-ba0e-4198-8005-63ff809329ad"
    }
  }, {
    "fullUrl": "https://madie.cms.gov/MeasureReport/59bee9f5-5856-44db-9e4e-9e633c9e01bd",
    "resource": {
      "resourceType": "MeasureReport",
      "id": "59bee9f5-5856-44db-9e4e-9e633c9e01bd",
      "meta": {
        "profile": [ "http://hl7.org/fhir/us/cqfmeasures/StructureDefinition/test-case-cqfm" ]
      },
      "contained": [ {
        "resourceType": "Parameters",
        "id": "150dc340-372a-4d7f-9c4b-658fa9c6a563-parameters",
        "parameter": [ {
          "name": "subject",
          "valueString": "3b193bfc-511a-49a2-987a-50d8c7d9a0df"
        } ]
      } ],
      "extension": [ {
        "url": "http://hl7.org/fhir/StructureDefinition/cqf-inputParameters",
        "valueReference": {
          "reference": "#150dc340-372a-4d7f-9c4b-658fa9c6a563-parameters"
        }
      }, {
        "url": "http://hl7.org/fhir/us/cqfmeasures/StructureDefinition/cqfm-testCaseDescription",
        "valueMarkdown": "Comfort measures performed on the first day of hospitalization using relevant date time, 1 minute before ED end, ED ends less than 1 hour before Obs, Obs ends less than 1 hour before IP. \n"
      } ],
      "modifierExtension": [ {
        "url": "http://hl7.org/fhir/us/cqfmeasures/StructureDefinition/cqfm-isTestCase",
        "valueBoolean": true
      } ],
      "status": "complete",
      "type": "individual",
      "measure": "https://madie.cms.gov/Measure/CMS72FHIRSTKAntithromboticDay2",
      "period": {
        "start": "2026-01-01",
        "end": "2026-12-31"
      },
      "group": [ {
        "id": "Group_1",
        "population": [ {
          "id": "InitialPopulation_1",
          "code": {
            "coding": [ {
              "system": "http://terminology.hl7.org/CodeSystem/measure-population",
              "code": "initial-population",
              "display": "Initial Population"
            } ]
          },
          "count": 1
        }, {
          "id": "Denominator_1",
          "code": {
            "coding": [ {
              "system": "http://terminology.hl7.org/CodeSystem/measure-population",
              "code": "denominator",
              "display": "Denominator"
            } ]
          },
          "count": 1
        }, {
          "id": "DenominatorExclusion_1",
          "code": {
            "coding": [ {
              "system": "http://terminology.hl7.org/CodeSystem/measure-population",
              "code": "denominator-exclusion",
              "display": "Denominator Exclusion"
            } ]
          },
          "count": 1
        }, {
          "id": "Numerator_1",
          "code": {
            "coding": [ {
              "system": "http://terminology.hl7.org/CodeSystem/measure-population",
              "code": "numerator",
              "display": "Numerator"
            } ]
          },
          "count": 0
        }, {
          "id": "DenominatorException_1",
          "code": {
            "coding": [ {
              "system": "http://terminology.hl7.org/CodeSystem/measure-population",
              "code": "denominator-exception",
              "display": "Denominator Exception"
            } ]
          },
          "count": 0
        } ],
        "measureScore": {
          "value": 0.0
        }
      } ],
      "evaluatedResource": [ {
        "reference": "Patient/3b193bfc-511a-49a2-987a-50d8c7d9a0df"
      }, {
        "reference": "Encounter/b556f21f-22e4-4d5b-84eb-e1de1ed93cd1"
      }, {
        "reference": "Encounter/05850853-01a2-4c8c-9967-481bdd87f4bb"
      }, {
        "reference": "Claim/5ca62962b8484628b8de1ec5"
      }, {
        "reference": "Encounter/7d5b3aec-87d6-44e8-8b85-17bd236c5fa4"
      }, {
        "reference": "Procedure/9e7b4c10-a1cd-4297-a6c2-65a038e7bbee"
      }, {
        "reference": "Coverage/7f786e22-68e1-4b93-95c8-cd31770cac55"
      }, {
        "reference": "Condition/cda50f61-e462-41d7-af28-81b3a56e589c"
      }, {
        "reference": "Organization/83342911-ba0e-4198-8005-63ff809329ad"
      } ]
    },
    "request": {
      "method": "PUT",
      "url": "MeasureReport/59bee9f5-5856-44db-9e4e-9e633c9e01bd"
    }
  } ]
}