{
  "resourceType": "Bundle",
  "id": "610965b898086b538055c149",
  "type": "transaction",
  "entry": [
    {
      "fullUrl": "https://madie.cms.gov/Patient/689dcbd3-84b3-4f28-9c87-6b5127e7b0d1",
      "resource": {
        "resourceType": "Patient",
        "id": "689dcbd3-84b3-4f28-9c87-6b5127e7b0d1",
        "meta": {
          "profile": [
            "http://hl7.org/fhir/us/qicore/StructureDefinition/qicore-patient"
          ]
        },
        "text": {
          "status": "generated",
          "div": "<div xmlns=\"http://www.w3.org/1999/xhtml\"><div class=\"hapiHeaderText\">HIVDxStartsDuringMP <b>DENEXFAIL </b></div><table class=\"hapiPropertyTable\"><tbody><tr><td>Identifier</td><td>a7dd2df328fa2276f91b533eb53429c7adfb893d94ea60345f454e9af370ab3d</td></tr><tr><td>Date of birth</td><td><span>31 July 1992</span></td></tr></tbody></table></div>"
        },
        "extension": [
          {
            "url": "http://hl7.org/fhir/us/core/StructureDefinition/us-core-race",
            "extension": [
              {
                "url": "ombCategory",
                "valueCoding": {
                  "system": "urn:oid:2.16.840.1.113883.6.238",
                  "code": "2106-3",
                  "display": "White",
                  "userSelected": true
                }
              },
              {
                "url": "text",
                "valueString": "White"
              }
            ]
          },
          {
            "url": "http://hl7.org/fhir/us/core/StructureDefinition/us-core-ethnicity",
            "extension": [
              {
                "url": "ombCategory",
                "valueCoding": {
                  "system": "urn:oid:2.16.840.1.113883.6.238",
                  "code": "2186-5",
                  "display": "Not Hispanic or Latino",
                  "userSelected": true
                }
              },
              {
                "url": "text",
                "valueString": "Not Hispanic or Latino"
              }
            ]
          }
        ],
        "identifier": [
          {
            "type": {
              "coding": [
                {
                  "system": "http://terminology.hl7.org/CodeSystem/v2-0203",
                  "code": "MR"
                }
              ]
            },
            "system": "https://bonnie-fhir.healthit.gov/",
            "value": "610965b898086b538055c149"
          }
        ],
        "active": true,
        "name": [
          {
            "use": "usual",
            "family": "DENEXFail",
            "given": [
              "HIVDxStartsDuringMP "
            ]
          }
        ],
        "gender": "male",
        "birthDate": "1993-07-31"
      },
      "request": {
        "method": "PUT",
        "url": "Patient/689dcbd3-84b3-4f28-9c87-6b5127e7b0d1"
      }
    },
    {
      "fullUrl": "https://madie.cms.gov/Encounter/92dee78e-dd46-430a-8e60-89323d7a3d8e",
      "resource": {
        "resourceType": "Encounter",
        "id": "92dee78e-dd46-430a-8e60-89323d7a3d8e",
        "meta": {
          "profile": [
            "http://hl7.org/fhir/us/qicore/StructureDefinition/qicore-encounter"
          ]
        },
        "status": "finished",
        "class": {
          "system": "http://terminology.hl7.org/CodeSystem/v3-ActCode",
          "code": "AMB",
          "display": "ambulatory",
          "userSelected": true
        },
        "type": [
          {
            "coding": [
              {
                "system": "http://www.ama-assn.org/go/cpt",
                "code": "99395"
              }
            ]
          }
        ],
        "subject": {
          "reference": "Patient/689dcbd3-84b3-4f28-9c87-6b5127e7b0d1"
        },
        "period": {
          "start": "2025-10-24T08:00:00.000+00:00",
          "end": "2025-10-24T08:15:00.000+00:00"
        }
      },
      "request": {
        "method": "PUT",
        "url": "Encounter/92dee78e-dd46-430a-8e60-89323d7a3d8e"
      }
    },
    {
      "fullUrl": "https://madie.cms.gov/Condition/f10f7be8-30c1-471f-a90b-6e55d8ce6a4d",
      "resource": {
        "resourceType": "Condition",
        "id": "f10f7be8-30c1-471f-a90b-6e55d8ce6a4d",
        "meta": {
          "profile": [
            "http://hl7.org/fhir/us/qicore/StructureDefinition/qicore-condition"
          ]
        },
        "clinicalStatus": {
          "coding": [
            {
              "system": "http://terminology.hl7.org/CodeSystem/condition-clinical",
              "code": "active",
              "display": "active",
              "userSelected": true
            }
          ]
        },
        "verificationStatus": {
          "coding": [
            {
              "system": "http://terminology.hl7.org/CodeSystem/condition-ver-status",
              "code": "confirmed"
            }
          ]
        },
        "category": [
          {
            "coding": [
              {
                "system": "http://terminology.hl7.org/CodeSystem/condition-category",
                "code": "encounter-diagnosis",
                "display": "Encounter Diagnosis",
                "userSelected": true
              }
            ]
          }
        ],
        "code": {
          "coding": [
            {
              "system": "http://hl7.org/fhir/sid/icd-9-cm",
              "version": "2013",
              "code": "042",
              "display": "Human immunodeficiency virus [HIV] disease",
              "userSelected": true
            },
            {
              "system": "http://snomed.info/sct",
              "code": "165816005",
              "userSelected": true
            }
          ]
        },
        "subject": {
          "reference": "Patient/689dcbd3-84b3-4f28-9c87-6b5127e7b0d1"
        },
        "onsetDateTime": "2025-03-29T08:00:00.000+00:00",
        "recordedDate": "2025-03-29T08:00:00.000+00:00"
      },
      "request": {
        "method": "PUT",
        "url": "Condition/f10f7be8-30c1-471f-a90b-6e55d8ce6a4d"
      }
    },
    {
      "fullUrl": "https://madie.cms.gov/MeasureReport/7e9aa263-d9e4-4449-b43e-5856be8dda60",
      "resource": {
        "resourceType": "MeasureReport",
        "id": "7e9aa263-d9e4-4449-b43e-5856be8dda60",
        "meta": {
          "profile": [
            "http://hl7.org/fhir/us/cqfmeasures/StructureDefinition/test-case-cqfm"
          ]
        },
        "contained": [
          {
            "resourceType": "Parameters",
            "id": "4ca964e1-53be-4a47-bbf2-b6dc21ee17f7-parameters",
            "parameter": [
              {
                "name": "subject",
                "valueString": "689dcbd3-84b3-4f28-9c87-6b5127e7b0d1"
              }
            ]
          }
        ],
        "extension": [
          {
            "url": "http://hl7.org/fhir/us/cqfmeasures/StructureDefinition/cqfm-inputParameters",
            "valueReference": {
              "reference": "#4ca964e1-53be-4a47-bbf2-b6dc21ee17f7-parameters"
            }
          },
          {
            "url": "http://hl7.org/fhir/us/cqfmeasures/StructureDefinition/cqfm-testCaseDescription",
            "valueMarkdown": "Patient 31 at start of MP, qualifying encounter during MP, HIV diagnosis starts during MP."
          }
        ],
        "modifierExtension": [
          {
            "url": "http://hl7.org/fhir/us/cqfmeasures/StructureDefinition/cqfm-isTestCase",
            "valueBoolean": true
          }
        ],
        "status": "complete",
        "type": "individual",
        "measure": "https://madie.cms.gov/Measure/HIVScreeningFHIR",
        "period": {
          "start": "2025-01-01",
          "end": "2025-12-31"
        },
        "group": [
          {
            "population": [
              {
                "code": {
                  "coding": [
                    {
                      "system": "http://terminology.hl7.org/CodeSystem/measure-population",
                      "code": "initial-population",
                      "display": "Initial Population"
                    }
                  ]
                },
                "count": 1
              },
              {
                "code": {
                  "coding": [
                    {
                      "system": "http://terminology.hl7.org/CodeSystem/measure-population",
                      "code": "denominator",
                      "display": "Denominator"
                    }
                  ]
                },
                "count": 1
              },
              {
                "code": {
                  "coding": [
                    {
                      "system": "http://terminology.hl7.org/CodeSystem/measure-population",
                      "code": "denominator-exclusion",
                      "display": "Denominator Exclusion"
                    }
                  ]
                },
                "count": 0
              },
              {
                "code": {
                  "coding": [
                    {
                      "system": "http://terminology.hl7.org/CodeSystem/measure-population",
                      "code": "numerator",
                      "display": "Numerator"
                    }
                  ]
                },
                "count": 0
              }
            ]
          }
        ],
        "evaluatedResource": [
          {
            "reference": "Patient/689dcbd3-84b3-4f28-9c87-6b5127e7b0d1"
          },
          {
            "reference": "Encounter/92dee78e-dd46-430a-8e60-89323d7a3d8e"
          },
          {
            "reference": "Condition/f10f7be8-30c1-471f-a90b-6e55d8ce6a4d"
          }
        ]
      },
      "request": {
        "method": "PUT",
        "url": "MeasureReport/7e9aa263-d9e4-4449-b43e-5856be8dda60"
      }
    }
  ]
}