{"resourceType":"Bundle","id":"tests-73673965-9b35-446e-bad7-1701991e6906-bundle","type":"transaction","entry":[{"fullUrl":"https://madie.cms.gov/Patient/73673965-9b35-446e-bad7-1701991e6906","resource":{"resourceType":"Patient","id":"73673965-9b35-446e-bad7-1701991e6906","meta":{"profile":["http://hl7.org/fhir/us/qicore/StructureDefinition/qicore-patient"]},"text":{"status":"generated","div":"<div xmlns=\"http://www.w3.org/1999/xhtml\"><div class=\"hapiHeaderText\">VTERiskAssStartEDendOnIPEncStart <b>NUMERPASS </b></div><table class=\"hapiPropertyTable\"><tbody><tr><td>Identifier</td><td>9eeaae30f2c13f342ba722a8c92cd6bf</td></tr><tr><td>Date of birth</td><td><span>02 January 1974</span></td></tr></tbody></table></div>"},"extension":[{"url":"http://hl7.org/fhir/us/core/StructureDefinition/us-core-race","extension":[{"url":"ombCategory","valueCoding":{"system":"urn:oid:2.16.840.1.113883.6.238","code":"1002-5","display":"American Indian or Alaska Native","userSelected":true}},{"url":"text","valueString":"American Indian or Alaska Native"}]},{"url":"http://hl7.org/fhir/us/core/StructureDefinition/us-core-ethnicity","extension":[{"url":"ombCategory","valueCoding":{"system":"urn:oid:2.16.840.1.113883.6.238","code":"2135-2","display":"Hispanic or Latino","userSelected":true}},{"url":"text","valueString":"Hispanic or Latino"}]}],"identifier":[{"type":{"coding":[{"system":"http://terminology.hl7.org/CodeSystem/v2-0203","code":"MR"}]},"system":"https://bonnie-fhir.healthit.gov/","value":"612e6b2902c62a011f2ecaf3"}],"active":true,"name":[{"use":"usual","family":"NUMERPass","given":["VTERiskAssStartEDendOnIPEncStart"]}],"gender":"male","birthDate":"1975-01-02"},"request":{"method":"PUT","url":"Patient/73673965-9b35-446e-bad7-1701991e6906"}},{"fullUrl":"https://madie.cms.gov/Encounter/a93a7291-a3d8-418b-968c-70d661379377","resource":{"resourceType":"Encounter","id":"a93a7291-a3d8-418b-968c-70d661379377","meta":{"profile":["http://hl7.org/fhir/us/qicore/StructureDefinition/qicore-encounter"]},"status":"finished","class":{"system":"http://terminology.hl7.org/CodeSystem/v3-ActCode","code":"EMER","display":"emergency"},"type":[{"coding":[{"system":"http://snomed.info/sct","code":"4525004"}]}],"subject":{"reference":"Patient/73673965-9b35-446e-bad7-1701991e6906"},"period":{"start":"2026-11-01T06:00:00.000+00:00","end":"2026-11-01T08:00:00.000+00:00"},"length":{"value":0,"unit":"days"}},"request":{"method":"PUT","url":"Encounter/a93a7291-a3d8-418b-968c-70d661379377"}},{"fullUrl":"https://madie.cms.gov/Encounter/ea432212-d7e1-48e1-90c9-618fd667e0e2","resource":{"resourceType":"Encounter","id":"ea432212-d7e1-48e1-90c9-618fd667e0e2","meta":{"profile":["http://hl7.org/fhir/us/qicore/StructureDefinition/qicore-encounter"]},"status":"finished","class":{"system":"http://terminology.hl7.org/CodeSystem/v3-ActCode","code":"IMP","display":"inpatient encounter"},"type":[{"coding":[{"system":"http://snomed.info/sct","code":"8715000"}]}],"subject":{"reference":"Patient/73673965-9b35-446e-bad7-1701991e6906"},"period":{"start":"2026-11-01T08:00:00.000+00:00","end":"2026-11-26T08:15:00.000+00:00"},"length":{"value":25,"unit":"days"}},"request":{"method":"PUT","url":"Encounter/ea432212-d7e1-48e1-90c9-618fd667e0e2"}},{"fullUrl":"https://madie.cms.gov/Observation/ebd4fe9a-a76d-4010-af6d-e9e876f1b9a7","resource":{"resourceType":"Observation","id":"ebd4fe9a-a76d-4010-af6d-e9e876f1b9a7","meta":{"profile":["http://hl7.org/fhir/us/qicore/StructureDefinition/qicore-simple-observation"]},"status":"final","category":[{"coding":[{"system":"http://terminology.hl7.org/CodeSystem/observation-category","code":"exam","display":"Exam","userSelected":true}]}],"code":{"coding":[{"system":"http://loinc.org","code":"72136-5"}]},"subject":{"reference":"Patient/73673965-9b35-446e-bad7-1701991e6906"},"effectivePeriod":{"start":"2026-11-01T07:15:00.000+00:00"},"valueCodeableConcept":{"coding":[{"system":"http://snomed.info/sct","code":"260362008","display":"Low Risk"}]}},"request":{"method":"PUT","url":"Observation/ebd4fe9a-a76d-4010-af6d-e9e876f1b9a7"}},{"fullUrl":"https://madie.cms.gov/Coverage/2dc5f26b-875a-4491-91b3-f1aeac60f661","resource":{"resourceType":"Coverage","id":"2dc5f26b-875a-4491-91b3-f1aeac60f661","status":"active","beneficiary":{"reference":"Patient/73673965-9b35-446e-bad7-1701991e6906"},"period":{"start":"1975-01-02T08:00:00.000+00:00"},"payor":[{"reference":"Organization/558bb5ae-13e6-49b2-9688-e551ba449fa8"}]},"request":{"method":"PUT","url":"Coverage/2dc5f26b-875a-4491-91b3-f1aeac60f661"}},{"fullUrl":"https://madie.cms.gov/Organization/558bb5ae-13e6-49b2-9688-e551ba449fa8","resource":{"resourceType":"Organization","id":"558bb5ae-13e6-49b2-9688-e551ba449fa8","meta":{"profile":["http://hl7.org/fhir/us/qicore/StructureDefinition/qicore-organization"]},"identifier":[{"use":"temp","system":"urn:oid:2.16.840.1.113883.4.4","value":"21-3259825"}],"active":true,"type":[{"coding":[{"system":"http://terminology.hl7.org/CodeSystem/organization-type","code":"pay","display":"Payer"}]}],"name":"Blue Cross Blue Shield of Texas","telecom":[{"system":"phone","value":"(+1) 972-766-6900"}],"address":[{"use":"billing","type":"postal","line":["P.O. Box 660044"],"city":"Dallas","state":"TX","postalCode":"75266-0044","country":"USA"}]},"request":{"method":"PUT","url":"Organization/558bb5ae-13e6-49b2-9688-e551ba449fa8"}},{"fullUrl":"https://madie.cms.gov/Practitioner/0863dde6-6c7c-464f-a6c0-d20b9ab8e38a","resource":{"resourceType":"Practitioner","id":"0863dde6-6c7c-464f-a6c0-d20b9ab8e38a","identifier":[{"system":"http://hl7.org/fhir/sid/us-npi","value":"123456"}],"name":[{"family":"Evil","prefix":["Dr"]}]},"request":{"method":"PUT","url":"Practitioner/0863dde6-6c7c-464f-a6c0-d20b9ab8e38a"}},{"fullUrl":"https://madie.cms.gov/MeasureReport/338dbfc2-6cf9-4581-a8f6-12d2aaf4d073","resource":{"resourceType":"MeasureReport","id":"338dbfc2-6cf9-4581-a8f6-12d2aaf4d073","meta":{"profile":["http://hl7.org/fhir/us/cqfmeasures/StructureDefinition/test-case-cqfm"]},"contained":[{"resourceType":"Parameters","id":"29b99ea5-4904-4cab-a8b9-3120011519c3-parameters","parameter":[{"name":"subject","valueString":"73673965-9b35-446e-bad7-1701991e6906"}]}],"extension":[{"url":"http://hl7.org/fhir/StructureDefinition/cqf-inputParameters","valueReference":{"reference":"#29b99ea5-4904-4cab-a8b9-3120011519c3-parameters"}},{"url":"http://hl7.org/fhir/us/cqfmeasures/StructureDefinition/cqfm-testCaseDescription","valueMarkdown":"\">18, LOS<120 day,Risk, RCA period start in ED (RCA endtime is null, and ED.end = IP.start\n\"\n"}],"modifierExtension":[{"url":"http://hl7.org/fhir/us/cqfmeasures/StructureDefinition/cqfm-isTestCase","valueBoolean":true}],"status":"complete","type":"individual","measure":"https://madie.cms.gov/Measure/CMS108FHIRVTEProphylaxis","period":{"start":"2026-01-01","end":"2026-12-31"},"group":[{"id":"Group_1","population":[{"id":"InitialPopulation_1","code":{"coding":[{"system":"http://terminology.hl7.org/CodeSystem/measure-population","code":"initial-population","display":"Initial Population"}]},"count":1},{"id":"Denominator_1","code":{"coding":[{"system":"http://terminology.hl7.org/CodeSystem/measure-population","code":"denominator","display":"Denominator"}]},"count":1},{"id":"DenominatorExclusion_1","code":{"coding":[{"system":"http://terminology.hl7.org/CodeSystem/measure-population","code":"denominator-exclusion","display":"Denominator Exclusion"}]},"count":0},{"id":"Numerator_1","code":{"coding":[{"system":"http://terminology.hl7.org/CodeSystem/measure-population","code":"numerator","display":"Numerator"}]},"count":1}],"measureScore":{"value":0.0}}],"evaluatedResource":[{"reference":"Patient/73673965-9b35-446e-bad7-1701991e6906"},{"reference":"Encounter/a93a7291-a3d8-418b-968c-70d661379377"},{"reference":"Encounter/ea432212-d7e1-48e1-90c9-618fd667e0e2"},{"reference":"Observation/ebd4fe9a-a76d-4010-af6d-e9e876f1b9a7"},{"reference":"Coverage/2dc5f26b-875a-4491-91b3-f1aeac60f661"},{"reference":"Organization/558bb5ae-13e6-49b2-9688-e551ba449fa8"},{"reference":"Practitioner/0863dde6-6c7c-464f-a6c0-d20b9ab8e38a"}]},"request":{"method":"PUT","url":"MeasureReport/338dbfc2-6cf9-4581-a8f6-12d2aaf4d073"}}]}