{"resourceType":"Bundle","id":"tests-ccd7f9d7-35e8-4623-9f2e-f229cf7d829c-bundle","type":"transaction","entry":[{"fullUrl":"https://madie.cms.gov/Patient/ccd7f9d7-35e8-4623-9f2e-f229cf7d829c","resource":{"resourceType":"Patient","id":"ccd7f9d7-35e8-4623-9f2e-f229cf7d829c","meta":{"profile":["http://hl7.org/fhir/us/qicore/StructureDefinition/qicore-patient"]},"text":{"status":"generated","div":"<div xmlns=\"http://www.w3.org/1999/xhtml\"><div class=\"hapiHeaderText\">PtRef_DA_IPC_DuringOBS <b>NUMERPASS </b></div><table class=\"hapiPropertyTable\"><tbody><tr><td>Identifier</td><td>5f7ad5e9fc357bf072546722e2c19e60</td></tr><tr><td>Date of birth</td><td><span>02 January 1974</span></td></tr></tbody></table></div>"},"extension":[{"url":"http://hl7.org/fhir/us/core/StructureDefinition/us-core-race","extension":[{"url":"ombCategory","valueCoding":{"system":"urn:oid:2.16.840.1.113883.6.238","code":"1002-5","display":"American Indian or Alaska Native","userSelected":true}},{"url":"text","valueString":"American Indian or Alaska Native"}]},{"url":"http://hl7.org/fhir/us/core/StructureDefinition/us-core-ethnicity","extension":[{"url":"ombCategory","valueCoding":{"system":"urn:oid:2.16.840.1.113883.6.238","code":"2135-2","display":"Hispanic or Latino","userSelected":true}},{"url":"text","valueString":"Hispanic or Latino"}]}],"identifier":[{"type":{"coding":[{"system":"http://terminology.hl7.org/CodeSystem/v2-0203","code":"MR"}]},"system":"https://bonnie-fhir.healthit.gov/","value":"612e6ab302c62a011f2eafaf"}],"active":true,"name":[{"use":"usual","family":"NUMERPass","given":["PtRefDAIPCDuringOBS"]}],"gender":"male","birthDate":"1975-01-02"},"request":{"method":"PUT","url":"Patient/ccd7f9d7-35e8-4623-9f2e-f229cf7d829c"}},{"fullUrl":"https://madie.cms.gov/Encounter/90268de2-f13f-41aa-9107-b0fff8cfa2ed","resource":{"resourceType":"Encounter","id":"90268de2-f13f-41aa-9107-b0fff8cfa2ed","meta":{"profile":["http://hl7.org/fhir/us/qicore/StructureDefinition/qicore-encounter"]},"status":"finished","class":{"system":"http://terminology.hl7.org/CodeSystem/v3-ActCode","code":"OBSENC","display":"observation encounter"},"type":[{"coding":[{"system":"http://snomed.info/sct","code":"448951000124107"}]}],"subject":{"reference":"Patient/ccd7f9d7-35e8-4623-9f2e-f229cf7d829c"},"period":{"start":"2026-10-31T05:00:00.000+00:00","end":"2026-11-01T07:15:00.000+00:00"},"length":{"value":1,"unit":"days"}},"request":{"method":"PUT","url":"Encounter/90268de2-f13f-41aa-9107-b0fff8cfa2ed"}},{"fullUrl":"https://madie.cms.gov/Encounter/699aad6d-9413-4d2b-ac4b-7bd372168a3b","resource":{"resourceType":"Encounter","id":"699aad6d-9413-4d2b-ac4b-7bd372168a3b","meta":{"profile":["http://hl7.org/fhir/us/qicore/StructureDefinition/qicore-encounter"]},"status":"finished","class":{"system":"http://terminology.hl7.org/CodeSystem/v3-ActCode","code":"IMP","display":"inpatient encounter"},"type":[{"coding":[{"system":"http://snomed.info/sct","code":"8715000"}]}],"subject":{"reference":"Patient/ccd7f9d7-35e8-4623-9f2e-f229cf7d829c"},"period":{"start":"2026-11-01T08:00:00.000+00:00","end":"2026-11-26T08:15:00.000+00:00"},"length":{"value":25,"unit":"days"}},"request":{"method":"PUT","url":"Encounter/699aad6d-9413-4d2b-ac4b-7bd372168a3b"}},{"fullUrl":"https://madie.cms.gov/Coverage/f546434c-ee81-4973-8b61-6eef1538f5d4","resource":{"resourceType":"Coverage","id":"f546434c-ee81-4973-8b61-6eef1538f5d4","status":"active","beneficiary":{"reference":"Patient/ccd7f9d7-35e8-4623-9f2e-f229cf7d829c"},"period":{"start":"1975-01-02T08:00:00.000+00:00"},"payor":[{"reference":"Organization/48724ec7-4e83-42f9-8c59-6904cb91ede6"}]},"request":{"method":"PUT","url":"Coverage/f546434c-ee81-4973-8b61-6eef1538f5d4"}},{"fullUrl":"https://madie.cms.gov/Procedure/6a4d89be-3771-4127-8fb5-fce33e4dbb6e","resource":{"resourceType":"Procedure","id":"6a4d89be-3771-4127-8fb5-fce33e4dbb6e","meta":{"profile":["http://hl7.org/fhir/us/qicore/StructureDefinition/qicore-procedurenotdone"]},"extension":[{"url":"http://hl7.org/fhir/us/qicore/StructureDefinition/qicore-recorded","valueDateTime":"2026-10-31T21:35:00.000+00:00"}],"status":"not-done","statusReason":{"coding":[{"system":"http://snomed.info/sct","code":"443390004","display":"Refused (qualifier value)","userSelected":true}]},"code":{"coding":[{"system":"http://snomed.info/sct","version":"2025-03","code":"443448006","display":"Application of intermittent pneumatic compression device (procedure)","userSelected":true}]},"subject":{"reference":"Patient/ccd7f9d7-35e8-4623-9f2e-f229cf7d829c"},"_performedDateTime":{"extension":[{"url":"http://hl7.org/fhir/StructureDefinition/data-absent-reason","valueCode":"not-performed"}]}},"request":{"method":"PUT","url":"Procedure/6a4d89be-3771-4127-8fb5-fce33e4dbb6e"}},{"fullUrl":"https://madie.cms.gov/Organization/48724ec7-4e83-42f9-8c59-6904cb91ede6","resource":{"resourceType":"Organization","id":"48724ec7-4e83-42f9-8c59-6904cb91ede6","meta":{"profile":["http://hl7.org/fhir/us/qicore/StructureDefinition/qicore-organization"]},"identifier":[{"use":"temp","system":"urn:oid:2.16.840.1.113883.4.4","value":"21-3259825"}],"active":true,"type":[{"coding":[{"system":"http://terminology.hl7.org/CodeSystem/organization-type","code":"pay","display":"Payer"}]}],"name":"Blue Cross Blue Shield of Texas","telecom":[{"system":"phone","value":"(+1) 972-766-6900"}],"address":[{"use":"billing","type":"postal","line":["P.O. Box 660044"],"city":"Dallas","state":"TX","postalCode":"75266-0044","country":"USA"}]},"request":{"method":"PUT","url":"Organization/48724ec7-4e83-42f9-8c59-6904cb91ede6"}},{"fullUrl":"https://madie.cms.gov/Practitioner/82249ad6-69d9-496c-bb17-0646e434be74","resource":{"resourceType":"Practitioner","id":"82249ad6-69d9-496c-bb17-0646e434be74","identifier":[{"system":"http://hl7.org/fhir/sid/us-npi","value":"123456"}],"name":[{"family":"Evil","prefix":["Dr"]}]},"request":{"method":"PUT","url":"Practitioner/82249ad6-69d9-496c-bb17-0646e434be74"}},{"fullUrl":"https://madie.cms.gov/MeasureReport/f14322f7-12a9-4090-aeae-d6f805271aa8","resource":{"resourceType":"MeasureReport","id":"f14322f7-12a9-4090-aeae-d6f805271aa8","meta":{"profile":["http://hl7.org/fhir/us/cqfmeasures/StructureDefinition/test-case-cqfm"]},"contained":[{"resourceType":"Parameters","id":"fa783e03-425d-412d-9e76-b0d39f319bbd-parameters","parameter":[{"name":"subject","valueString":"ccd7f9d7-35e8-4623-9f2e-f229cf7d829c"}]}],"extension":[{"url":"http://hl7.org/fhir/StructureDefinition/cqf-inputParameters","valueReference":{"reference":"#fa783e03-425d-412d-9e76-b0d39f319bbd-parameters"}},{"url":"http://hl7.org/fhir/us/cqfmeasures/StructureDefinition/cqfm-testCaseDescription","valueMarkdown":"patient refused IPC in Observation service \n"}],"modifierExtension":[{"url":"http://hl7.org/fhir/us/cqfmeasures/StructureDefinition/cqfm-isTestCase","valueBoolean":true}],"status":"complete","type":"individual","measure":"https://madie.cms.gov/Measure/CMS108FHIRVTEProphylaxis","period":{"start":"2026-01-01","end":"2026-12-31"},"group":[{"id":"Group_1","population":[{"id":"InitialPopulation_1","code":{"coding":[{"system":"http://terminology.hl7.org/CodeSystem/measure-population","code":"initial-population","display":"Initial Population"}]},"count":1},{"id":"Denominator_1","code":{"coding":[{"system":"http://terminology.hl7.org/CodeSystem/measure-population","code":"denominator","display":"Denominator"}]},"count":1},{"id":"DenominatorExclusion_1","code":{"coding":[{"system":"http://terminology.hl7.org/CodeSystem/measure-population","code":"denominator-exclusion","display":"Denominator Exclusion"}]},"count":0},{"id":"Numerator_1","code":{"coding":[{"system":"http://terminology.hl7.org/CodeSystem/measure-population","code":"numerator","display":"Numerator"}]},"count":1}],"measureScore":{"value":0.0}}],"evaluatedResource":[{"reference":"Patient/ccd7f9d7-35e8-4623-9f2e-f229cf7d829c"},{"reference":"Encounter/90268de2-f13f-41aa-9107-b0fff8cfa2ed"},{"reference":"Encounter/699aad6d-9413-4d2b-ac4b-7bd372168a3b"},{"reference":"Coverage/f546434c-ee81-4973-8b61-6eef1538f5d4"},{"reference":"Procedure/6a4d89be-3771-4127-8fb5-fce33e4dbb6e"},{"reference":"Organization/48724ec7-4e83-42f9-8c59-6904cb91ede6"},{"reference":"Practitioner/82249ad6-69d9-496c-bb17-0646e434be74"}]},"request":{"method":"PUT","url":"MeasureReport/f14322f7-12a9-4090-aeae-d6f805271aa8"}}]}