{"resourceType":"Bundle","id":"tests-610c90c9-f387-40f8-9bd7-710d20dfd6f0-bundle","type":"transaction","entry":[{"fullUrl":"https://madie.cms.gov/Patient/610c90c9-f387-40f8-9bd7-710d20dfd6f0","resource":{"resourceType":"Patient","id":"610c90c9-f387-40f8-9bd7-710d20dfd6f0","meta":{"profile":["http://hl7.org/fhir/us/qicore/StructureDefinition/qicore-patient"]},"text":{"status":"generated","div":"<div xmlns=\"http://www.w3.org/1999/xhtml\"><div class=\"hapiHeaderText\">MA_LMWH_DayOfAnes <b>NUMERPASS </b></div><table class=\"hapiPropertyTable\"><tbody><tr><td>Identifier</td><td>b927d5087a427d5964453696d616a163</td></tr><tr><td>Date of birth</td><td><span>02 January 1974</span></td></tr></tbody></table></div>"},"extension":[{"url":"http://hl7.org/fhir/us/core/StructureDefinition/us-core-race","extension":[{"url":"ombCategory","valueCoding":{"system":"urn:oid:2.16.840.1.113883.6.238","code":"1002-5","display":"American Indian or Alaska Native","userSelected":true}},{"url":"text","valueString":"American Indian or Alaska Native"}]},{"url":"http://hl7.org/fhir/us/core/StructureDefinition/us-core-ethnicity","extension":[{"url":"ombCategory","valueCoding":{"system":"urn:oid:2.16.840.1.113883.6.238","code":"2135-2","display":"Hispanic or Latino","userSelected":true}},{"url":"text","valueString":"Hispanic or Latino"}]}],"identifier":[{"type":{"coding":[{"system":"http://terminology.hl7.org/CodeSystem/v2-0203","code":"MR"}]},"system":"https://bonnie-fhir.healthit.gov/","value":"612e6a8f02c62a011f2ea597"}],"active":true,"name":[{"use":"usual","family":"NUMERPass","given":["MALMWHDayOfAnes"]}],"gender":"male","birthDate":"1975-01-02"},"request":{"method":"PUT","url":"Patient/610c90c9-f387-40f8-9bd7-710d20dfd6f0"}},{"fullUrl":"https://madie.cms.gov/Encounter/13ba0c9e-330a-420a-b46c-818e6adb6fd7","resource":{"resourceType":"Encounter","id":"13ba0c9e-330a-420a-b46c-818e6adb6fd7","meta":{"profile":["http://hl7.org/fhir/us/qicore/StructureDefinition/qicore-encounter"]},"status":"finished","class":{"system":"http://terminology.hl7.org/CodeSystem/v3-ActCode","code":"IMP","display":"inpatient encounter"},"type":[{"coding":[{"system":"http://snomed.info/sct","code":"8715000"}]}],"subject":{"reference":"Patient/610c90c9-f387-40f8-9bd7-710d20dfd6f0"},"period":{"start":"2026-11-01T08:00:00.000+00:00","end":"2026-11-26T08:15:00.000+00:00"},"length":{"value":25,"unit":"days"}},"request":{"method":"PUT","url":"Encounter/13ba0c9e-330a-420a-b46c-818e6adb6fd7"}},{"fullUrl":"https://madie.cms.gov/Coverage/10b656cd-877f-4fae-b851-688f57578a68","resource":{"resourceType":"Coverage","id":"10b656cd-877f-4fae-b851-688f57578a68","status":"active","beneficiary":{"reference":"Patient/610c90c9-f387-40f8-9bd7-710d20dfd6f0"},"period":{"start":"1975-01-02T08:00:00.000+00:00"},"payor":[{"reference":"Organization/7f20c0f2-9240-4107-bf52-6af02595bc94"}]},"request":{"method":"PUT","url":"Coverage/10b656cd-877f-4fae-b851-688f57578a68"}},{"fullUrl":"https://madie.cms.gov/MedicationAdministration/2681f30c-a53a-4ed2-976c-7737c4e76237","resource":{"resourceType":"MedicationAdministration","id":"2681f30c-a53a-4ed2-976c-7737c4e76237","meta":{"profile":["http://hl7.org/fhir/us/qicore/StructureDefinition/qicore-medicationadministration"]},"status":"completed","medicationCodeableConcept":{"coding":[{"system":"http://www.nlm.nih.gov/research/umls/rxnorm","code":"854228"}]},"subject":{"reference":"Patient/610c90c9-f387-40f8-9bd7-710d20dfd6f0"},"effectivePeriod":{"start":"2026-11-01T10:00:00.000+00:00"}},"request":{"method":"PUT","url":"MedicationAdministration/2681f30c-a53a-4ed2-976c-7737c4e76237"}},{"fullUrl":"https://madie.cms.gov/Procedure/92fff022-9647-4221-b98a-28aaa2d1e4dd","resource":{"resourceType":"Procedure","id":"92fff022-9647-4221-b98a-28aaa2d1e4dd","meta":{"profile":["http://hl7.org/fhir/us/qicore/StructureDefinition/qicore-procedure"]},"extension":[{"url":"http://hl7.org/fhir/us/qicore/StructureDefinition/qicore-recorded","valueDateTime":"2013-11-01T13:35:00.000+00:00"}],"status":"completed","code":{"coding":[{"system":"http://www.icd10data.com/icd10pcs","code":"3E030FZ"},{"system":"http://snomed.info/sct","code":"18946005"}]},"subject":{"reference":"Patient/610c90c9-f387-40f8-9bd7-710d20dfd6f0"},"performedPeriod":{"start":"2026-11-01T09:00:00.000+00:00","end":"2026-11-01T09:15:00.000+00:00"}},"request":{"method":"PUT","url":"Procedure/92fff022-9647-4221-b98a-28aaa2d1e4dd"}},{"fullUrl":"https://madie.cms.gov/Organization/7f20c0f2-9240-4107-bf52-6af02595bc94","resource":{"resourceType":"Organization","id":"7f20c0f2-9240-4107-bf52-6af02595bc94","meta":{"profile":["http://hl7.org/fhir/us/qicore/StructureDefinition/qicore-organization"]},"identifier":[{"use":"temp","system":"urn:oid:2.16.840.1.113883.4.4","value":"21-3259825"}],"active":true,"type":[{"coding":[{"system":"http://terminology.hl7.org/CodeSystem/organization-type","code":"pay","display":"Payer"}]}],"name":"Blue Cross Blue Shield of Texas","telecom":[{"system":"phone","value":"(+1) 972-766-6900"}],"address":[{"use":"billing","type":"postal","line":["P.O. Box 660044"],"city":"Dallas","state":"TX","postalCode":"75266-0044","country":"USA"}]},"request":{"method":"PUT","url":"Organization/7f20c0f2-9240-4107-bf52-6af02595bc94"}},{"fullUrl":"https://madie.cms.gov/Practitioner/34fa7190-e78c-411c-b076-9afd0ff97cb6","resource":{"resourceType":"Practitioner","id":"34fa7190-e78c-411c-b076-9afd0ff97cb6","identifier":[{"system":"http://hl7.org/fhir/sid/us-npi","value":"123456"}],"name":[{"family":"Evil","prefix":["Dr"]}]},"request":{"method":"PUT","url":"Practitioner/34fa7190-e78c-411c-b076-9afd0ff97cb6"}},{"fullUrl":"https://madie.cms.gov/MeasureReport/24fa2d9c-1d78-4a84-9db4-e0a657a64913","resource":{"resourceType":"MeasureReport","id":"24fa2d9c-1d78-4a84-9db4-e0a657a64913","meta":{"profile":["http://hl7.org/fhir/us/cqfmeasures/StructureDefinition/test-case-cqfm"]},"contained":[{"resourceType":"Parameters","id":"d848278e-ffed-411d-9442-074c384df15f-parameters","parameter":[{"name":"subject","valueString":"610c90c9-f387-40f8-9bd7-710d20dfd6f0"}]}],"extension":[{"url":"http://hl7.org/fhir/StructureDefinition/cqf-inputParameters","valueReference":{"reference":"#d848278e-ffed-411d-9442-074c384df15f-parameters"}},{"url":"http://hl7.org/fhir/us/cqfmeasures/StructureDefinition/cqfm-testCaseDescription","valueMarkdown":"lmwh administered =0  day after end of anesthesia\n"}],"modifierExtension":[{"url":"http://hl7.org/fhir/us/cqfmeasures/StructureDefinition/cqfm-isTestCase","valueBoolean":true}],"status":"complete","type":"individual","measure":"https://madie.cms.gov/Measure/CMS108FHIRVTEProphylaxis","period":{"start":"2026-01-01","end":"2026-12-31"},"group":[{"id":"Group_1","population":[{"id":"InitialPopulation_1","code":{"coding":[{"system":"http://terminology.hl7.org/CodeSystem/measure-population","code":"initial-population","display":"Initial Population"}]},"count":1},{"id":"Denominator_1","code":{"coding":[{"system":"http://terminology.hl7.org/CodeSystem/measure-population","code":"denominator","display":"Denominator"}]},"count":1},{"id":"DenominatorExclusion_1","code":{"coding":[{"system":"http://terminology.hl7.org/CodeSystem/measure-population","code":"denominator-exclusion","display":"Denominator Exclusion"}]},"count":0},{"id":"Numerator_1","code":{"coding":[{"system":"http://terminology.hl7.org/CodeSystem/measure-population","code":"numerator","display":"Numerator"}]},"count":1}],"measureScore":{"value":0.0}}],"evaluatedResource":[{"reference":"Patient/610c90c9-f387-40f8-9bd7-710d20dfd6f0"},{"reference":"Encounter/13ba0c9e-330a-420a-b46c-818e6adb6fd7"},{"reference":"Coverage/10b656cd-877f-4fae-b851-688f57578a68"},{"reference":"MedicationAdministration/2681f30c-a53a-4ed2-976c-7737c4e76237"},{"reference":"Procedure/92fff022-9647-4221-b98a-28aaa2d1e4dd"},{"reference":"Organization/7f20c0f2-9240-4107-bf52-6af02595bc94"},{"reference":"Practitioner/34fa7190-e78c-411c-b076-9afd0ff97cb6"}]},"request":{"method":"PUT","url":"MeasureReport/24fa2d9c-1d78-4a84-9db4-e0a657a64913"}}]}