{"resourceType":"Bundle","id":"tests-fa475afd-7282-48cc-95bc-747bf3dac16a-bundle","type":"transaction","entry":[{"fullUrl":"https://madie.cms.gov/Patient/fa475afd-7282-48cc-95bc-747bf3dac16a","resource":{"resourceType":"Patient","id":"fa475afd-7282-48cc-95bc-747bf3dac16a","meta":{"profile":["http://hl7.org/fhir/us/qicore/StructureDefinition/qicore-patient"]},"text":{"status":"generated","div":"<div xmlns=\"http://www.w3.org/1999/xhtml\"><div class=\"hapiHeaderText\">WarfarinAFDisch_2Encounters <b>NUMERFAIL </b></div><table class=\"hapiPropertyTable\"><tbody><tr><td>Identifier</td><td>f6b3ce4fb2b87a4aa5f00ca8118e0e9a</td></tr><tr><td>Date of birth</td><td><span>02 January 1974</span></td></tr></tbody></table></div>"},"extension":[{"url":"http://hl7.org/fhir/us/core/StructureDefinition/us-core-race","extension":[{"url":"ombCategory","valueCoding":{"system":"urn:oid:2.16.840.1.113883.6.238","code":"1002-5","display":"American Indian or Alaska Native","userSelected":true}},{"url":"text","valueString":"American Indian or Alaska Native"}]},{"url":"http://hl7.org/fhir/us/core/StructureDefinition/us-core-ethnicity","extension":[{"url":"ombCategory","valueCoding":{"system":"urn:oid:2.16.840.1.113883.6.238","code":"2135-2","display":"Hispanic or Latino","userSelected":true}},{"url":"text","valueString":"Hispanic or Latino"}]}],"identifier":[{"type":{"coding":[{"system":"http://terminology.hl7.org/CodeSystem/v2-0203","code":"MR"}]},"system":"https://bonnie-fhir.healthit.gov/","value":"612e6b1602c62a011f2ec5e7"}],"active":true,"name":[{"use":"usual","family":"NUMERFail","given":["WarfarinAFDisch2Encounters"]}],"gender":"male","birthDate":"1975-01-02"},"request":{"method":"PUT","url":"Patient/fa475afd-7282-48cc-95bc-747bf3dac16a"}},{"fullUrl":"https://madie.cms.gov/Encounter/8a72cb77-086a-4a55-a7e5-250e5c90040d","resource":{"resourceType":"Encounter","id":"8a72cb77-086a-4a55-a7e5-250e5c90040d","meta":{"profile":["http://hl7.org/fhir/us/qicore/StructureDefinition/qicore-encounter"]},"status":"finished","class":{"system":"http://terminology.hl7.org/CodeSystem/v3-ActCode","code":"IMP","display":"inpatient encounter"},"type":[{"coding":[{"system":"http://snomed.info/sct","code":"8715000"}]}],"subject":{"reference":"Patient/fa475afd-7282-48cc-95bc-747bf3dac16a"},"period":{"start":"2026-10-03T08:00:00.000+00:00","end":"2026-10-05T08:15:00.000+00:00"},"length":{"value":2,"unit":"days"},"diagnosis":[{"condition":{"reference":"Condition/hemorrhagic-stroke-1c3b"},"rank":1}]},"request":{"method":"PUT","url":"Encounter/8a72cb77-086a-4a55-a7e5-250e5c90040d"}},{"fullUrl":"https://madie.cms.gov/Encounter/b6ac39d4-83b6-4ba4-b8bc-39a932e8bca2","resource":{"resourceType":"Encounter","id":"b6ac39d4-83b6-4ba4-b8bc-39a932e8bca2","meta":{"profile":["http://hl7.org/fhir/us/qicore/StructureDefinition/qicore-encounter"]},"status":"finished","class":{"system":"http://terminology.hl7.org/CodeSystem/v3-ActCode","code":"IMP","display":"inpatient encounter"},"type":[{"coding":[{"system":"http://snomed.info/sct","code":"8715000"}]}],"subject":{"reference":"Patient/fa475afd-7282-48cc-95bc-747bf3dac16a"},"period":{"start":"2026-11-01T08:00:00.000+00:00","end":"2026-11-26T08:15:00.000+00:00"},"length":{"value":25,"unit":"days"}},"request":{"method":"PUT","url":"Encounter/b6ac39d4-83b6-4ba4-b8bc-39a932e8bca2"}},{"fullUrl":"https://madie.cms.gov/Coverage/0f08b2d2-1f40-402b-9150-e26aa4c09689","resource":{"resourceType":"Coverage","id":"0f08b2d2-1f40-402b-9150-e26aa4c09689","status":"active","beneficiary":{"reference":"Patient/fa475afd-7282-48cc-95bc-747bf3dac16a"},"period":{"start":"1975-01-02T08:00:00.000+00:00"},"payor":[{"reference":"Organization/0111c221-a4f8-4d62-b050-876c5a4355a7"}]},"request":{"method":"PUT","url":"Coverage/0f08b2d2-1f40-402b-9150-e26aa4c09689"}},{"fullUrl":"https://madie.cms.gov/MedicationAdministration/c54454a6-89de-4a1f-83ed-6a11a857fb17","resource":{"resourceType":"MedicationAdministration","id":"c54454a6-89de-4a1f-83ed-6a11a857fb17","meta":{"profile":["http://hl7.org/fhir/us/qicore/StructureDefinition/qicore-medicationadministration"]},"status":"completed","medicationCodeableConcept":{"coding":[{"system":"http://www.nlm.nih.gov/research/umls/rxnorm","code":"855288"}]},"subject":{"reference":"Patient/fa475afd-7282-48cc-95bc-747bf3dac16a"},"effectiveDateTime":"2026-10-26T08:00:00.000+00:00"},"request":{"method":"PUT","url":"MedicationAdministration/c54454a6-89de-4a1f-83ed-6a11a857fb17"}},{"fullUrl":"https://madie.cms.gov/Organization/0111c221-a4f8-4d62-b050-876c5a4355a7","resource":{"resourceType":"Organization","id":"0111c221-a4f8-4d62-b050-876c5a4355a7","meta":{"profile":["http://hl7.org/fhir/us/qicore/StructureDefinition/qicore-organization"]},"identifier":[{"use":"temp","system":"urn:oid:2.16.840.1.113883.4.4","value":"21-3259825"}],"active":true,"type":[{"coding":[{"system":"http://terminology.hl7.org/CodeSystem/organization-type","code":"pay","display":"Payer"}]}],"name":"Blue Cross Blue Shield of Texas","telecom":[{"system":"phone","value":"(+1) 972-766-6900"}],"address":[{"use":"billing","type":"postal","line":["P.O. Box 660044"],"city":"Dallas","state":"TX","postalCode":"75266-0044","country":"USA"}]},"request":{"method":"PUT","url":"Organization/0111c221-a4f8-4d62-b050-876c5a4355a7"}},{"fullUrl":"https://madie.cms.gov/Practitioner/4256382d-ab56-4737-befd-f7b4b563e651","resource":{"resourceType":"Practitioner","id":"4256382d-ab56-4737-befd-f7b4b563e651","identifier":[{"system":"http://hl7.org/fhir/sid/us-npi","value":"123456"}],"name":[{"family":"Evil","prefix":["Dr"]}]},"request":{"method":"PUT","url":"Practitioner/4256382d-ab56-4737-befd-f7b4b563e651"}},{"fullUrl":"https://madie.cms.gov/MeasureReport/46420d33-76f0-4cb0-9bbd-681a72bcf8b5","resource":{"resourceType":"MeasureReport","id":"46420d33-76f0-4cb0-9bbd-681a72bcf8b5","meta":{"profile":["http://hl7.org/fhir/us/cqfmeasures/StructureDefinition/test-case-cqfm"]},"contained":[{"resourceType":"Parameters","id":"277db9d7-7c0c-467c-a796-3358165d58f5-parameters","parameter":[{"name":"subject","valueString":"fa475afd-7282-48cc-95bc-747bf3dac16a"}]}],"extension":[{"url":"http://hl7.org/fhir/StructureDefinition/cqf-inputParameters","valueReference":{"reference":"#277db9d7-7c0c-467c-a796-3358165d58f5-parameters"}},{"url":"http://hl7.org/fhir/us/cqfmeasures/StructureDefinition/cqfm-testCaseDescription","valueMarkdown":"2 encounters. warfarin administered 1 day Before 2nd encounter\n"}],"modifierExtension":[{"url":"http://hl7.org/fhir/us/cqfmeasures/StructureDefinition/cqfm-isTestCase","valueBoolean":true}],"status":"complete","type":"individual","measure":"https://madie.cms.gov/Measure/CMS108FHIRVTEProphylaxis","period":{"start":"2026-01-01","end":"2026-12-31"},"group":[{"id":"Group_1","population":[{"id":"InitialPopulation_1","code":{"coding":[{"system":"http://terminology.hl7.org/CodeSystem/measure-population","code":"initial-population","display":"Initial Population"}]},"count":2},{"id":"Denominator_1","code":{"coding":[{"system":"http://terminology.hl7.org/CodeSystem/measure-population","code":"denominator","display":"Denominator"}]},"count":2},{"id":"DenominatorExclusion_1","code":{"coding":[{"system":"http://terminology.hl7.org/CodeSystem/measure-population","code":"denominator-exclusion","display":"Denominator Exclusion"}]},"count":0},{"id":"Numerator_1","code":{"coding":[{"system":"http://terminology.hl7.org/CodeSystem/measure-population","code":"numerator","display":"Numerator"}]},"count":0}],"measureScore":{"value":0.0}}],"evaluatedResource":[{"reference":"Patient/fa475afd-7282-48cc-95bc-747bf3dac16a"},{"reference":"Encounter/8a72cb77-086a-4a55-a7e5-250e5c90040d"},{"reference":"Encounter/b6ac39d4-83b6-4ba4-b8bc-39a932e8bca2"},{"reference":"Coverage/0f08b2d2-1f40-402b-9150-e26aa4c09689"},{"reference":"MedicationAdministration/c54454a6-89de-4a1f-83ed-6a11a857fb17"},{"reference":"Organization/0111c221-a4f8-4d62-b050-876c5a4355a7"},{"reference":"Practitioner/4256382d-ab56-4737-befd-f7b4b563e651"}]},"request":{"method":"PUT","url":"MeasureReport/46420d33-76f0-4cb0-9bbd-681a72bcf8b5"}}]}