{"resourceType":"Bundle","id":"tests-f546eaac-8f7c-4325-ae6a-af049231ef5f-bundle","type":"transaction","entry":[{"fullUrl":"https://madie.cms.gov/Patient/f546eaac-8f7c-4325-ae6a-af049231ef5f","resource":{"resourceType":"Patient","id":"f546eaac-8f7c-4325-ae6a-af049231ef5f","meta":{"profile":["http://hl7.org/fhir/us/qicore/StructureDefinition/qicore-patient"]},"text":{"status":"generated","div":"<div xmlns=\"http://www.w3.org/1999/xhtml\"><div class=\"hapiHeaderText\">MA_LDUHep1DayAfAnes_MedAdmRvltDT <b>NUMERPASS </b></div><table class=\"hapiPropertyTable\"><tbody><tr><td>Identifier</td><td>8a33d2769a6bdab7ccc20de0552fc909</td></tr><tr><td>Date of birth</td><td><span>02 January 1974</span></td></tr></tbody></table></div>"},"extension":[{"url":"http://hl7.org/fhir/us/core/StructureDefinition/us-core-race","extension":[{"url":"ombCategory","valueCoding":{"system":"urn:oid:2.16.840.1.113883.6.238","code":"1002-5","display":"American Indian or Alaska Native","userSelected":true}},{"url":"text","valueString":"American Indian or Alaska Native"}]},{"url":"http://hl7.org/fhir/us/core/StructureDefinition/us-core-ethnicity","extension":[{"url":"ombCategory","valueCoding":{"system":"urn:oid:2.16.840.1.113883.6.238","code":"2135-2","display":"Hispanic or Latino","userSelected":true}},{"url":"text","valueString":"Hispanic or Latino"}]}],"identifier":[{"type":{"coding":[{"system":"http://terminology.hl7.org/CodeSystem/v2-0203","code":"MR"}]},"system":"https://bonnie-fhir.healthit.gov/","value":"612e6a8b02c62a011f2ea4e5"}],"active":true,"name":[{"use":"usual","family":"NUMERPass","given":["MALDUHep1DayAfAnesMedAdmRvltDT"]}],"gender":"male","birthDate":"1975-01-02"},"request":{"method":"PUT","url":"Patient/f546eaac-8f7c-4325-ae6a-af049231ef5f"}},{"fullUrl":"https://madie.cms.gov/Encounter/8353a3e3-6c39-427d-81f7-8219f9fe4a1d","resource":{"resourceType":"Encounter","id":"8353a3e3-6c39-427d-81f7-8219f9fe4a1d","meta":{"profile":["http://hl7.org/fhir/us/qicore/StructureDefinition/qicore-encounter"]},"status":"finished","class":{"system":"http://terminology.hl7.org/CodeSystem/v3-ActCode","code":"IMP","display":"inpatient encounter"},"type":[{"coding":[{"system":"http://snomed.info/sct","code":"8715000"}]}],"subject":{"reference":"Patient/f546eaac-8f7c-4325-ae6a-af049231ef5f"},"period":{"start":"2026-11-01T08:00:00.000+00:00","end":"2026-11-26T08:15:00.000+00:00"},"length":{"value":25,"unit":"days"}},"request":{"method":"PUT","url":"Encounter/8353a3e3-6c39-427d-81f7-8219f9fe4a1d"}},{"fullUrl":"https://madie.cms.gov/Coverage/798146a3-4479-414a-90ba-ad951e12e046","resource":{"resourceType":"Coverage","id":"798146a3-4479-414a-90ba-ad951e12e046","status":"active","beneficiary":{"reference":"Patient/f546eaac-8f7c-4325-ae6a-af049231ef5f"},"period":{"start":"1975-01-02T08:00:00.000+00:00"},"payor":[{"reference":"Organization/26f524f5-bc4a-4084-aabc-f58f09f35a54"}]},"request":{"method":"PUT","url":"Coverage/798146a3-4479-414a-90ba-ad951e12e046"}},{"fullUrl":"https://madie.cms.gov/MedicationAdministration/4df16928-02ed-47f6-8dce-822340a3edde","resource":{"resourceType":"MedicationAdministration","id":"4df16928-02ed-47f6-8dce-822340a3edde","meta":{"profile":["http://hl7.org/fhir/us/qicore/StructureDefinition/qicore-medicationadministration"]},"status":"completed","medicationCodeableConcept":{"coding":[{"system":"http://www.nlm.nih.gov/research/umls/rxnorm","code":"1361574"}]},"subject":{"reference":"Patient/f546eaac-8f7c-4325-ae6a-af049231ef5f"},"effectiveDateTime":"2026-11-03T10:00:00.000+00:00","dosage":{"route":{"coding":[{"system":"http://snomed.info/sct","code":"34206005","display":"Subcutaneous route"}]},"dose":{"value":20000,"unit":"UNT/ML","system":"http://unitsofmeasure.org","code":"ML"}}},"request":{"method":"PUT","url":"MedicationAdministration/4df16928-02ed-47f6-8dce-822340a3edde"}},{"fullUrl":"https://madie.cms.gov/Procedure/1e2818c2-787e-49b3-bc3a-048ea90650e9","resource":{"resourceType":"Procedure","id":"1e2818c2-787e-49b3-bc3a-048ea90650e9","meta":{"profile":["http://hl7.org/fhir/us/qicore/StructureDefinition/qicore-procedure"]},"extension":[{"url":"http://hl7.org/fhir/us/qicore/StructureDefinition/qicore-recorded","valueDateTime":"2013-11-02T13:35:00.000+00:00"}],"status":"completed","code":{"coding":[{"system":"http://www.icd10data.com/icd10pcs","code":"3E030FZ"},{"system":"http://snomed.info/sct","code":"18946005"}]},"subject":{"reference":"Patient/f546eaac-8f7c-4325-ae6a-af049231ef5f"},"performedPeriod":{"start":"2026-11-02T09:00:00.000+00:00","end":"2026-11-02T09:15:00.000+00:00"}},"request":{"method":"PUT","url":"Procedure/1e2818c2-787e-49b3-bc3a-048ea90650e9"}},{"fullUrl":"https://madie.cms.gov/Organization/26f524f5-bc4a-4084-aabc-f58f09f35a54","resource":{"resourceType":"Organization","id":"26f524f5-bc4a-4084-aabc-f58f09f35a54","meta":{"profile":["http://hl7.org/fhir/us/qicore/StructureDefinition/qicore-organization"]},"identifier":[{"use":"temp","system":"urn:oid:2.16.840.1.113883.4.4","value":"21-3259825"}],"active":true,"type":[{"coding":[{"system":"http://terminology.hl7.org/CodeSystem/organization-type","code":"pay","display":"Payer"}]}],"name":"Blue Cross Blue Shield of Texas","telecom":[{"system":"phone","value":"(+1) 972-766-6900"}],"address":[{"use":"billing","type":"postal","line":["P.O. Box 660044"],"city":"Dallas","state":"TX","postalCode":"75266-0044","country":"USA"}]},"request":{"method":"PUT","url":"Organization/26f524f5-bc4a-4084-aabc-f58f09f35a54"}},{"fullUrl":"https://madie.cms.gov/Practitioner/debb8eab-858b-4729-bd36-09e97973e2b9","resource":{"resourceType":"Practitioner","id":"debb8eab-858b-4729-bd36-09e97973e2b9","identifier":[{"system":"http://hl7.org/fhir/sid/us-npi","value":"123456"}],"name":[{"family":"Evil","prefix":["Dr"]}]},"request":{"method":"PUT","url":"Practitioner/debb8eab-858b-4729-bd36-09e97973e2b9"}},{"fullUrl":"https://madie.cms.gov/MeasureReport/fa2a7201-415c-48b9-90d9-70268c40d558","resource":{"resourceType":"MeasureReport","id":"fa2a7201-415c-48b9-90d9-70268c40d558","meta":{"profile":["http://hl7.org/fhir/us/cqfmeasures/StructureDefinition/test-case-cqfm"]},"contained":[{"resourceType":"Parameters","id":"8a6210e4-cf59-4817-81f8-58f392cf11b1-parameters","parameter":[{"name":"subject","valueString":"f546eaac-8f7c-4325-ae6a-af049231ef5f"}]}],"extension":[{"url":"http://hl7.org/fhir/StructureDefinition/cqf-inputParameters","valueReference":{"reference":"#8a6210e4-cf59-4817-81f8-58f392cf11b1-parameters"}},{"url":"http://hl7.org/fhir/us/cqfmeasures/StructureDefinition/cqfm-testCaseDescription","valueMarkdown":"low dose SQ heparin as relevant datetime after 1 day of Aneth\n"}],"modifierExtension":[{"url":"http://hl7.org/fhir/us/cqfmeasures/StructureDefinition/cqfm-isTestCase","valueBoolean":true}],"status":"complete","type":"individual","measure":"https://madie.cms.gov/Measure/CMS108FHIRVTEProphylaxis","period":{"start":"2026-01-01","end":"2026-12-31"},"group":[{"id":"Group_1","population":[{"id":"InitialPopulation_1","code":{"coding":[{"system":"http://terminology.hl7.org/CodeSystem/measure-population","code":"initial-population","display":"Initial Population"}]},"count":1},{"id":"Denominator_1","code":{"coding":[{"system":"http://terminology.hl7.org/CodeSystem/measure-population","code":"denominator","display":"Denominator"}]},"count":1},{"id":"DenominatorExclusion_1","code":{"coding":[{"system":"http://terminology.hl7.org/CodeSystem/measure-population","code":"denominator-exclusion","display":"Denominator Exclusion"}]},"count":0},{"id":"Numerator_1","code":{"coding":[{"system":"http://terminology.hl7.org/CodeSystem/measure-population","code":"numerator","display":"Numerator"}]},"count":1}],"measureScore":{"value":0.0}}],"evaluatedResource":[{"reference":"Patient/f546eaac-8f7c-4325-ae6a-af049231ef5f"},{"reference":"Encounter/8353a3e3-6c39-427d-81f7-8219f9fe4a1d"},{"reference":"Coverage/798146a3-4479-414a-90ba-ad951e12e046"},{"reference":"MedicationAdministration/4df16928-02ed-47f6-8dce-822340a3edde"},{"reference":"Procedure/1e2818c2-787e-49b3-bc3a-048ea90650e9"},{"reference":"Organization/26f524f5-bc4a-4084-aabc-f58f09f35a54"},{"reference":"Practitioner/debb8eab-858b-4729-bd36-09e97973e2b9"}]},"request":{"method":"PUT","url":"MeasureReport/fa2a7201-415c-48b9-90d9-70268c40d558"}}]}