{"resourceType":"Bundle","id":"tests-3dcb32cf-6ad1-4a44-89da-1125e19b5c8c-bundle","type":"transaction","entry":[{"fullUrl":"https://madie.cms.gov/Patient/3dcb32cf-6ad1-4a44-89da-1125e19b5c8c","resource":{"resourceType":"Patient","id":"3dcb32cf-6ad1-4a44-89da-1125e19b5c8c","meta":{"profile":["http://hl7.org/fhir/us/qicore/StructureDefinition/qicore-patient"]},"text":{"status":"generated","div":"<div xmlns=\"http://www.w3.org/1999/xhtml\"><div class=\"hapiHeaderText\">PtRef_DO_GCS=1DayAFAnes <b>NUMERPASS </b></div><table class=\"hapiPropertyTable\"><tbody><tr><td>Identifier</td><td>24fc1ce85ce14557dd4d9eba17df9f17</td></tr><tr><td>Date of birth</td><td><span>02 January 1974</span></td></tr></tbody></table></div>"},"extension":[{"url":"http://hl7.org/fhir/us/core/StructureDefinition/us-core-race","extension":[{"url":"ombCategory","valueCoding":{"system":"urn:oid:2.16.840.1.113883.6.238","code":"1002-5","display":"American Indian or Alaska Native","userSelected":true}},{"url":"text","valueString":"American Indian or Alaska Native"}]},{"url":"http://hl7.org/fhir/us/core/StructureDefinition/us-core-ethnicity","extension":[{"url":"ombCategory","valueCoding":{"system":"urn:oid:2.16.840.1.113883.6.238","code":"2135-2","display":"Hispanic or Latino","userSelected":true}},{"url":"text","valueString":"Hispanic or Latino"}]}],"identifier":[{"type":{"coding":[{"system":"http://terminology.hl7.org/CodeSystem/v2-0203","code":"MR"}]},"system":"https://bonnie-fhir.healthit.gov/","value":"612e6b9302c62a011f2ee63c"}],"active":true,"name":[{"use":"usual","family":"NUMERPass","given":["PtRefDOIPCDayAFEnc"]}],"gender":"male","birthDate":"1975-01-02"},"request":{"method":"PUT","url":"Patient/3dcb32cf-6ad1-4a44-89da-1125e19b5c8c"}},{"fullUrl":"https://madie.cms.gov/Encounter/b21d7807-1050-40fc-af7d-4ff95401ac28","resource":{"resourceType":"Encounter","id":"b21d7807-1050-40fc-af7d-4ff95401ac28","meta":{"profile":["http://hl7.org/fhir/us/qicore/StructureDefinition/qicore-encounter"]},"status":"finished","class":{"system":"http://terminology.hl7.org/CodeSystem/v3-ActCode","code":"IMP","display":"inpatient encounter"},"type":[{"coding":[{"system":"http://snomed.info/sct","code":"8715000"}]}],"subject":{"reference":"Patient/3dcb32cf-6ad1-4a44-89da-1125e19b5c8c"},"period":{"start":"2026-11-01T08:00:00.000+00:00","end":"2026-11-26T08:15:00.000+00:00"},"length":{"value":25,"unit":"days"}},"request":{"method":"PUT","url":"Encounter/b21d7807-1050-40fc-af7d-4ff95401ac28"}},{"fullUrl":"https://madie.cms.gov/Coverage/11a24ed0-7885-4726-b6a3-a65a1ce97879","resource":{"resourceType":"Coverage","id":"11a24ed0-7885-4726-b6a3-a65a1ce97879","status":"active","beneficiary":{"reference":"Patient/3dcb32cf-6ad1-4a44-89da-1125e19b5c8c"},"period":{"start":"1975-01-02T08:00:00.000+00:00"},"payor":[{"reference":"Organization/19172bc1-e275-49ed-8ff1-5a51c15723b7"}]},"request":{"method":"PUT","url":"Coverage/11a24ed0-7885-4726-b6a3-a65a1ce97879"}},{"fullUrl":"https://madie.cms.gov/Procedure/ee73841b-f9c8-4398-97d8-d09170fd700e","resource":{"resourceType":"Procedure","id":"ee73841b-f9c8-4398-97d8-d09170fd700e","meta":{"profile":["http://hl7.org/fhir/us/qicore/StructureDefinition/qicore-procedure"]},"extension":[{"url":"http://hl7.org/fhir/us/qicore/StructureDefinition/qicore-recorded","valueDateTime":"2013-11-03T13:35:00.000+00:00"}],"status":"completed","code":{"coding":[{"system":"http://www.icd10data.com/icd10pcs","code":"3E030FZ"},{"system":"http://snomed.info/sct","code":"18946005"}]},"subject":{"reference":"Patient/3dcb32cf-6ad1-4a44-89da-1125e19b5c8c"},"performedPeriod":{"start":"2026-11-02T09:00:00.000+00:00","end":"2026-11-02T09:15:00.000+00:00"}},"request":{"method":"PUT","url":"Procedure/ee73841b-f9c8-4398-97d8-d09170fd700e"}},{"fullUrl":"https://madie.cms.gov/ServiceRequest/c95f2750-e463-4fa3-8f27-7a82cd9f2dce","resource":{"resourceType":"ServiceRequest","id":"c95f2750-e463-4fa3-8f27-7a82cd9f2dce","meta":{"profile":["http://hl7.org/fhir/us/qicore/StructureDefinition/qicore-servicenotrequested"]},"extension":[{"url":"http://hl7.org/fhir/us/qicore/StructureDefinition/qicore-doNotPerformReason","valueCodeableConcept":{"coding":[{"system":"http://snomed.info/sct","code":"443390004","display":"Refusal of treatment by patient (situation)"}]}}],"status":"completed","intent":"order","doNotPerform":true,"code":{"coding":[{"system":"http://snomed.info/sct","version":"2025-03","code":"428411000124104","display":"Intermittent pneumatic compression boot (physical object)","userSelected":true}]},"subject":{"reference":"Patient/3dcb32cf-6ad1-4a44-89da-1125e19b5c8c"},"authoredOn":"2026-11-02T11:00:00.000+00:00"},"request":{"method":"PUT","url":"ServiceRequest/c95f2750-e463-4fa3-8f27-7a82cd9f2dce"}},{"fullUrl":"https://madie.cms.gov/Organization/19172bc1-e275-49ed-8ff1-5a51c15723b7","resource":{"resourceType":"Organization","id":"19172bc1-e275-49ed-8ff1-5a51c15723b7","meta":{"profile":["http://hl7.org/fhir/us/qicore/StructureDefinition/qicore-organization"]},"identifier":[{"use":"temp","system":"urn:oid:2.16.840.1.113883.4.4","value":"21-3259825"}],"active":true,"type":[{"coding":[{"system":"http://terminology.hl7.org/CodeSystem/organization-type","code":"pay","display":"Payer"}]}],"name":"Blue Cross Blue Shield of Texas","telecom":[{"system":"phone","value":"(+1) 972-766-6900"}],"address":[{"use":"billing","type":"postal","line":["P.O. Box 660044"],"city":"Dallas","state":"TX","postalCode":"75266-0044","country":"USA"}]},"request":{"method":"PUT","url":"Organization/19172bc1-e275-49ed-8ff1-5a51c15723b7"}},{"fullUrl":"https://madie.cms.gov/Practitioner/7aba6577-0ffb-4885-a21e-1f2c5f47b7ac","resource":{"resourceType":"Practitioner","id":"7aba6577-0ffb-4885-a21e-1f2c5f47b7ac","identifier":[{"system":"http://hl7.org/fhir/sid/us-npi","value":"123456"}],"name":[{"family":"Evil","prefix":["Dr"]}]},"request":{"method":"PUT","url":"Practitioner/7aba6577-0ffb-4885-a21e-1f2c5f47b7ac"}},{"fullUrl":"https://madie.cms.gov/MeasureReport/1b51e78f-0e41-4154-af30-7288cf56a26f","resource":{"resourceType":"MeasureReport","id":"1b51e78f-0e41-4154-af30-7288cf56a26f","meta":{"profile":["http://hl7.org/fhir/us/cqfmeasures/StructureDefinition/test-case-cqfm"]},"contained":[{"resourceType":"Parameters","id":"5baa50e3-639c-4a3e-a9ae-c89e6b6c55c6-parameters","parameter":[{"name":"subject","valueString":"3dcb32cf-6ad1-4a44-89da-1125e19b5c8c"}]}],"extension":[{"url":"http://hl7.org/fhir/StructureDefinition/cqf-inputParameters","valueReference":{"reference":"#5baa50e3-639c-4a3e-a9ae-c89e6b6c55c6-parameters"}},{"url":"http://hl7.org/fhir/us/cqfmeasures/StructureDefinition/cqfm-testCaseDescription","valueMarkdown":"patient refused IPC order on 1 day after start of IP encounter and same day with Aneth\n"}],"modifierExtension":[{"url":"http://hl7.org/fhir/us/cqfmeasures/StructureDefinition/cqfm-isTestCase","valueBoolean":true}],"status":"complete","type":"individual","measure":"https://madie.cms.gov/Measure/CMS108FHIRVTEProphylaxis","period":{"start":"2026-01-01","end":"2026-12-31"},"group":[{"id":"Group_1","population":[{"id":"InitialPopulation_1","code":{"coding":[{"system":"http://terminology.hl7.org/CodeSystem/measure-population","code":"initial-population","display":"Initial Population"}]},"count":1},{"id":"Denominator_1","code":{"coding":[{"system":"http://terminology.hl7.org/CodeSystem/measure-population","code":"denominator","display":"Denominator"}]},"count":1},{"id":"DenominatorExclusion_1","code":{"coding":[{"system":"http://terminology.hl7.org/CodeSystem/measure-population","code":"denominator-exclusion","display":"Denominator Exclusion"}]},"count":0},{"id":"Numerator_1","code":{"coding":[{"system":"http://terminology.hl7.org/CodeSystem/measure-population","code":"numerator","display":"Numerator"}]},"count":1}],"measureScore":{"value":0.0}}],"evaluatedResource":[{"reference":"Patient/3dcb32cf-6ad1-4a44-89da-1125e19b5c8c"},{"reference":"Encounter/b21d7807-1050-40fc-af7d-4ff95401ac28"},{"reference":"Coverage/11a24ed0-7885-4726-b6a3-a65a1ce97879"},{"reference":"Procedure/ee73841b-f9c8-4398-97d8-d09170fd700e"},{"reference":"ServiceRequest/c95f2750-e463-4fa3-8f27-7a82cd9f2dce"},{"reference":"Organization/19172bc1-e275-49ed-8ff1-5a51c15723b7"},{"reference":"Practitioner/7aba6577-0ffb-4885-a21e-1f2c5f47b7ac"}]},"request":{"method":"PUT","url":"MeasureReport/1b51e78f-0e41-4154-af30-7288cf56a26f"}}]}