{"resourceType":"Bundle","id":"tests-9ee0f965-4287-41db-bd8e-5631e408c116-bundle","type":"transaction","entry":[{"fullUrl":"https://madie.cms.gov/Patient/9ee0f965-4287-41db-bd8e-5631e408c116","resource":{"resourceType":"Patient","id":"9ee0f965-4287-41db-bd8e-5631e408c116","meta":{"profile":["http://hl7.org/fhir/us/qicore/StructureDefinition/qicore-patient"]},"text":{"status":"generated","div":"<div xmlns=\"http://www.w3.org/1999/xhtml\"><div class=\"hapiHeaderText\">PrincDxHemStroke <b>DENEXPASS </b></div><table class=\"hapiPropertyTable\"><tbody><tr><td>Identifier</td><td>29c9716eb5f48b54d7b337bf497e0e5e</td></tr><tr><td>Date of birth</td><td><span>01 December 2003</span></td></tr></tbody></table></div>"},"extension":[{"url":"http://hl7.org/fhir/us/core/StructureDefinition/us-core-race","extension":[{"url":"ombCategory","valueCoding":{"system":"urn:oid:2.16.840.1.113883.6.238","code":"1002-5","display":"American Indian or Alaska Native","userSelected":true}},{"url":"text","valueString":"American Indian or Alaska Native"}]},{"url":"http://hl7.org/fhir/us/core/StructureDefinition/us-core-ethnicity","extension":[{"url":"ombCategory","valueCoding":{"system":"urn:oid:2.16.840.1.113883.6.238","code":"2135-2","display":"Hispanic or Latino","userSelected":true}},{"url":"text","valueString":"Hispanic or Latino"}]}],"identifier":[{"type":{"coding":[{"system":"http://terminology.hl7.org/CodeSystem/v2-0203","code":"MR"}]},"system":"https://bonnie-fhir.healthit.gov/","value":"612e6afc02c62a011f2ec022"}],"active":true,"name":[{"use":"usual","family":"DENEXPass","given":["PrincDxHemStroke"]}],"gender":"female","birthDate":"2002-12-01"},"request":{"method":"PUT","url":"Patient/9ee0f965-4287-41db-bd8e-5631e408c116"}},{"fullUrl":"https://madie.cms.gov/Encounter/bed51b88-2db5-4750-b94d-c5cd76e8703c","resource":{"resourceType":"Encounter","id":"bed51b88-2db5-4750-b94d-c5cd76e8703c","meta":{"profile":["http://hl7.org/fhir/us/qicore/StructureDefinition/qicore-encounter"]},"status":"finished","class":{"system":"http://terminology.hl7.org/CodeSystem/v3-ActCode","code":"IMP","display":"inpatient encounter"},"type":[{"coding":[{"system":"http://snomed.info/sct","code":"183452005"}]}],"subject":{"reference":"Patient/9ee0f965-4287-41db-bd8e-5631e408c116"},"period":{"start":"2026-12-01T00:00:00.000+00:00","end":"2026-12-31T23:59:00.000+00:00"},"length":{"value":30,"unit":"days"},"diagnosis":[{"condition":{"reference":"Condition/f729fbbe-6993-4697-b161-6f6cff9c76d5"},"use":{"coding":[{"system":"http://terminology.hl7.org/CodeSystem/diagnosis-role","code":"billing"}]},"rank":1}]},"request":{"method":"PUT","url":"Encounter/bed51b88-2db5-4750-b94d-c5cd76e8703c"}},{"fullUrl":"https://madie.cms.gov/claim/5ca62962b8484628b8de1ec5","resource":{"resourceType":"Claim","id":"5ca62962b8484628b8de1ec5","meta":{"profile":["http://hl7.org/fhir/us/qicore/StructureDefinition/qicore-claim"]},"status":"active","type":{"coding":[{"system":"http://terminology.hl7.org/CodeSystem/claim-type","code":"institutional"}]},"use":"claim","patient":{"reference":"Patient/9ee0f965-4287-41db-bd8e-5631e408c116"},"created":"2026-12-01","provider":{"reference":"Practitioner/98bfbafe-375d-490a-b48f-9a88c46e1986"},"priority":{"coding":[{"system":"http://terminology.hl7.org/CodeSystem/processpriority","code":"normal"}]},"diagnosis":[{"sequence":1,"diagnosisCodeableConcept":{"coding":[{"system":"http://hl7.org/fhir/sid/icd-10-cm","code":"I60.00"}]},"type":[{"coding":[{"system":"http://terminology.hl7.org/CodeSystem/ex-diagnosistype","code":"principal"}]}]}],"insurance":[{"sequence":1,"focal":true,"coverage":{"reference":"Coverage/44f2ab13-ea93-4fc2-9ce0-8c300dfea863"}}],"item":[{"sequence":1,"diagnosisSequence":[1],"productOrService":{"coding":[{"system":"http://terminology.hl7.org/CodeSystem/ex-USCLS","code":"99555"}]},"encounter":[{"reference":"Encounter/bed51b88-2db5-4750-b94d-c5cd76e8703c"}]}]},"request":{"method":"PUT","url":"Claim/5ca62962b8484628b8de1ec5"}},{"fullUrl":"https://madie.cms.gov/Coverage/44f2ab13-ea93-4fc2-9ce0-8c300dfea863","resource":{"resourceType":"Coverage","id":"44f2ab13-ea93-4fc2-9ce0-8c300dfea863","status":"active","beneficiary":{"reference":"Patient/9ee0f965-4287-41db-bd8e-5631e408c116"},"period":{"start":"2004-12-01T01:00:00.000+00:00"},"payor":[{"reference":"Organization/e0449d9f-02cb-4750-878d-cb90c1c1de0c"}]},"request":{"method":"PUT","url":"Coverage/44f2ab13-ea93-4fc2-9ce0-8c300dfea863"}},{"fullUrl":"https://madie.cms.gov/Condition/f729fbbe-6993-4697-b161-6f6cff9c76d5","resource":{"resourceType":"Condition","id":"f729fbbe-6993-4697-b161-6f6cff9c76d5","meta":{"profile":["http://hl7.org/fhir/us/qicore/StructureDefinition/qicore-condition"]},"category":[{"coding":[{"system":"http://terminology.hl7.org/CodeSystem/condition-category","code":"encounter-diagnosis","display":"Encounter Diagnosis"}]}],"code":{"coding":[{"system":"http://snomed.info/sct","version":"2025-03","code":"195155004","display":"Subarachnoid hemorrhage from carotid siphon and bifurcation (disorder)","userSelected":true}]},"subject":{"reference":"Patient/9ee0f965-4287-41db-bd8e-5631e408c116"},"recordedDate":"2026-07-13T08:00:00.000+00:00"},"request":{"method":"PUT","url":"Condition/f729fbbe-6993-4697-b161-6f6cff9c76d5"}},{"fullUrl":"https://madie.cms.gov/Organization/e0449d9f-02cb-4750-878d-cb90c1c1de0c","resource":{"resourceType":"Organization","id":"e0449d9f-02cb-4750-878d-cb90c1c1de0c","meta":{"profile":["http://hl7.org/fhir/us/qicore/StructureDefinition/qicore-organization"]},"identifier":[{"use":"temp","system":"urn:oid:2.16.840.1.113883.4.4","value":"21-3259825"}],"active":true,"type":[{"coding":[{"system":"http://terminology.hl7.org/CodeSystem/organization-type","code":"pay","display":"Payer"}]}],"name":"Blue Cross Blue Shield of Texas","telecom":[{"system":"phone","value":"(+1) 972-766-6900"}],"address":[{"use":"billing","type":"postal","line":["P.O. Box 660044"],"city":"Dallas","state":"TX","postalCode":"75266-0044","country":"USA"}]},"request":{"method":"PUT","url":"Organization/e0449d9f-02cb-4750-878d-cb90c1c1de0c"}},{"fullUrl":"https://madie.cms.gov/Practitioner/98bfbafe-375d-490a-b48f-9a88c46e1986","resource":{"resourceType":"Practitioner","id":"98bfbafe-375d-490a-b48f-9a88c46e1986","identifier":[{"system":"http://hl7.org/fhir/sid/us-npi","value":"123456"}],"name":[{"family":"Evil","prefix":["Dr"]}]},"request":{"method":"PUT","url":"Practitioner/98bfbafe-375d-490a-b48f-9a88c46e1986"}},{"fullUrl":"https://madie.cms.gov/MeasureReport/f21d757e-5351-4d0b-a353-9ccdad6a6770","resource":{"resourceType":"MeasureReport","id":"f21d757e-5351-4d0b-a353-9ccdad6a6770","meta":{"profile":["http://hl7.org/fhir/us/cqfmeasures/StructureDefinition/test-case-cqfm"]},"contained":[{"resourceType":"Parameters","id":"1dd6df84-8de9-4581-b40a-992ba2a9af49-parameters","parameter":[{"name":"subject","valueString":"9ee0f965-4287-41db-bd8e-5631e408c116"}]}],"extension":[{"url":"http://hl7.org/fhir/StructureDefinition/cqf-inputParameters","valueReference":{"reference":"#1dd6df84-8de9-4581-b40a-992ba2a9af49-parameters"}},{"url":"http://hl7.org/fhir/us/cqfmeasures/StructureDefinition/cqfm-testCaseDescription","valueMarkdown":"Principal Dx of HemStroke\n"}],"modifierExtension":[{"url":"http://hl7.org/fhir/us/cqfmeasures/StructureDefinition/cqfm-isTestCase","valueBoolean":true}],"status":"complete","type":"individual","measure":"https://madie.cms.gov/Measure/CMS108FHIRVTEProphylaxis","period":{"start":"2026-01-01","end":"2026-12-31"},"group":[{"id":"Group_1","population":[{"id":"InitialPopulation_1","code":{"coding":[{"system":"http://terminology.hl7.org/CodeSystem/measure-population","code":"initial-population","display":"Initial Population"}]},"count":1},{"id":"Denominator_1","code":{"coding":[{"system":"http://terminology.hl7.org/CodeSystem/measure-population","code":"denominator","display":"Denominator"}]},"count":1},{"id":"DenominatorExclusion_1","code":{"coding":[{"system":"http://terminology.hl7.org/CodeSystem/measure-population","code":"denominator-exclusion","display":"Denominator Exclusion"}]},"count":1},{"id":"Numerator_1","code":{"coding":[{"system":"http://terminology.hl7.org/CodeSystem/measure-population","code":"numerator","display":"Numerator"}]},"count":0}],"measureScore":{"value":0.0}}],"evaluatedResource":[{"reference":"Patient/9ee0f965-4287-41db-bd8e-5631e408c116"},{"reference":"Encounter/bed51b88-2db5-4750-b94d-c5cd76e8703c"},{"reference":"Claim/5ca62962b8484628b8de1ec5"},{"reference":"Coverage/44f2ab13-ea93-4fc2-9ce0-8c300dfea863"},{"reference":"Condition/f729fbbe-6993-4697-b161-6f6cff9c76d5"},{"reference":"Organization/e0449d9f-02cb-4750-878d-cb90c1c1de0c"},{"reference":"Practitioner/98bfbafe-375d-490a-b48f-9a88c46e1986"}]},"request":{"method":"PUT","url":"MeasureReport/f21d757e-5351-4d0b-a353-9ccdad6a6770"}}]}