{"resourceType":"Bundle","id":"tests-77c1bf41-fce8-4044-9eeb-c205b8fdc0a9-bundle","type":"transaction","entry":[{"fullUrl":"https://madie.cms.gov/Patient/77c1bf41-fce8-4044-9eeb-c205b8fdc0a9","resource":{"resourceType":"Patient","id":"77c1bf41-fce8-4044-9eeb-c205b8fdc0a9","meta":{"profile":["http://hl7.org/fhir/us/qicore/StructureDefinition/qicore-patient"]},"text":{"status":"generated","div":"<div xmlns=\"http://www.w3.org/1999/xhtml\"><div class=\"hapiHeaderText\">MA_InjXa_1MinAfterAnesEndTime <b>NUMERPASS </b></div><table class=\"hapiPropertyTable\"><tbody><tr><td>Identifier</td><td>9a09d8440030e02516ccf84b416cd528</td></tr><tr><td>Date of birth</td><td><span>02 January 1974</span></td></tr></tbody></table></div>"},"extension":[{"url":"http://hl7.org/fhir/us/core/StructureDefinition/us-core-race","extension":[{"url":"ombCategory","valueCoding":{"system":"urn:oid:2.16.840.1.113883.6.238","code":"1002-5","display":"American Indian or Alaska Native","userSelected":true}},{"url":"text","valueString":"American Indian or Alaska Native"}]},{"url":"http://hl7.org/fhir/us/core/StructureDefinition/us-core-ethnicity","extension":[{"url":"ombCategory","valueCoding":{"system":"urn:oid:2.16.840.1.113883.6.238","code":"2135-2","display":"Hispanic or Latino","userSelected":true}},{"url":"text","valueString":"Hispanic or Latino"}]}],"identifier":[{"type":{"coding":[{"system":"http://terminology.hl7.org/CodeSystem/v2-0203","code":"MR"}]},"system":"https://bonnie-fhir.healthit.gov/","value":"612e6a8d02c62a011f2ea53e"}],"active":true,"name":[{"use":"usual","family":"NUMERPass","given":["MAInjXa1MinAfterAnesEndTime"]}],"gender":"male","birthDate":"1975-01-02"},"request":{"method":"PUT","url":"Patient/77c1bf41-fce8-4044-9eeb-c205b8fdc0a9"}},{"fullUrl":"https://madie.cms.gov/Encounter/320bc57a-eff9-40b1-a484-e2262cdb494f","resource":{"resourceType":"Encounter","id":"320bc57a-eff9-40b1-a484-e2262cdb494f","meta":{"profile":["http://hl7.org/fhir/us/qicore/StructureDefinition/qicore-encounter"]},"status":"finished","class":{"system":"http://terminology.hl7.org/CodeSystem/v3-ActCode","code":"IMP","display":"inpatient encounter"},"type":[{"coding":[{"system":"http://snomed.info/sct","code":"8715000"}]}],"subject":{"reference":"Patient/77c1bf41-fce8-4044-9eeb-c205b8fdc0a9"},"period":{"start":"2026-11-01T00:00:00.000+00:00","end":"2026-11-30T23:59:00.000+00:00"},"length":{"value":29,"unit":"days"}},"request":{"method":"PUT","url":"Encounter/320bc57a-eff9-40b1-a484-e2262cdb494f"}},{"fullUrl":"https://madie.cms.gov/Coverage/d9b9158b-23e2-4a1e-8a4c-b60354d7d504","resource":{"resourceType":"Coverage","id":"d9b9158b-23e2-4a1e-8a4c-b60354d7d504","status":"active","beneficiary":{"reference":"Patient/77c1bf41-fce8-4044-9eeb-c205b8fdc0a9"},"period":{"start":"1975-01-02T08:00:00.000+00:00"},"payor":[{"reference":"Organization/f79bd367-5811-4e53-9e2b-a840a3b3b0b3"}]},"request":{"method":"PUT","url":"Coverage/d9b9158b-23e2-4a1e-8a4c-b60354d7d504"}},{"fullUrl":"https://madie.cms.gov/MedicationAdministration/e9bdd160-7b71-4d26-8837-6c5c1a75f19c","resource":{"resourceType":"MedicationAdministration","id":"e9bdd160-7b71-4d26-8837-6c5c1a75f19c","meta":{"profile":["http://hl7.org/fhir/us/qicore/StructureDefinition/qicore-medicationadministration"]},"status":"completed","medicationCodeableConcept":{"coding":[{"system":"http://www.nlm.nih.gov/research/umls/rxnorm","code":"861356"}]},"subject":{"reference":"Patient/77c1bf41-fce8-4044-9eeb-c205b8fdc0a9"},"effectivePeriod":{"start":"2026-11-01T01:01:00.000+00:00"}},"request":{"method":"PUT","url":"MedicationAdministration/e9bdd160-7b71-4d26-8837-6c5c1a75f19c"}},{"fullUrl":"https://madie.cms.gov/Procedure/d51fbf8b-af55-4ffa-88c3-65ac5e8d9100","resource":{"resourceType":"Procedure","id":"d51fbf8b-af55-4ffa-88c3-65ac5e8d9100","meta":{"profile":["http://hl7.org/fhir/us/qicore/StructureDefinition/qicore-procedure"]},"extension":[{"url":"http://hl7.org/fhir/us/qicore/StructureDefinition/qicore-recorded","valueDateTime":"2013-11-01T13:35:00.000+00:00"}],"status":"completed","code":{"coding":[{"system":"http://www.icd10data.com/icd10pcs","code":"3E030FZ"},{"system":"http://snomed.info/sct","code":"18946005"}]},"subject":{"reference":"Patient/77c1bf41-fce8-4044-9eeb-c205b8fdc0a9"},"performedPeriod":{"start":"2026-11-01T00:00:00.000+00:00","end":"2026-11-01T01:00:00.000+00:00"}},"request":{"method":"PUT","url":"Procedure/d51fbf8b-af55-4ffa-88c3-65ac5e8d9100"}},{"fullUrl":"https://madie.cms.gov/Organization/f79bd367-5811-4e53-9e2b-a840a3b3b0b3","resource":{"resourceType":"Organization","id":"f79bd367-5811-4e53-9e2b-a840a3b3b0b3","meta":{"profile":["http://hl7.org/fhir/us/qicore/StructureDefinition/qicore-organization"]},"identifier":[{"use":"temp","system":"urn:oid:2.16.840.1.113883.4.4","value":"21-3259825"}],"active":true,"type":[{"coding":[{"system":"http://terminology.hl7.org/CodeSystem/organization-type","code":"pay","display":"Payer"}]}],"name":"Blue Cross Blue Shield of Texas","telecom":[{"system":"phone","value":"(+1) 972-766-6900"}],"address":[{"use":"billing","type":"postal","line":["P.O. Box 660044"],"city":"Dallas","state":"TX","postalCode":"75266-0044","country":"USA"}]},"request":{"method":"PUT","url":"Organization/f79bd367-5811-4e53-9e2b-a840a3b3b0b3"}},{"fullUrl":"https://madie.cms.gov/Practitioner/d78ea409-98e1-4dcd-8ca5-9ad130be5a82","resource":{"resourceType":"Practitioner","id":"d78ea409-98e1-4dcd-8ca5-9ad130be5a82","identifier":[{"system":"http://hl7.org/fhir/sid/us-npi","value":"123456"}],"name":[{"family":"Evil","prefix":["Dr"]}]},"request":{"method":"PUT","url":"Practitioner/d78ea409-98e1-4dcd-8ca5-9ad130be5a82"}},{"fullUrl":"https://madie.cms.gov/MeasureReport/ff925b5f-a8c2-49ab-9513-71acff6db786","resource":{"resourceType":"MeasureReport","id":"ff925b5f-a8c2-49ab-9513-71acff6db786","meta":{"profile":["http://hl7.org/fhir/us/cqfmeasures/StructureDefinition/test-case-cqfm"]},"contained":[{"resourceType":"Parameters","id":"05d621f1-81cc-4e3c-bc62-34c2e1fdd92b-parameters","parameter":[{"name":"subject","valueString":"77c1bf41-fce8-4044-9eeb-c205b8fdc0a9"}]}],"extension":[{"url":"http://hl7.org/fhir/StructureDefinition/cqf-inputParameters","valueReference":{"reference":"#05d621f1-81cc-4e3c-bc62-34c2e1fdd92b-parameters"}},{"url":"http://hl7.org/fhir/us/cqfmeasures/StructureDefinition/cqfm-testCaseDescription","valueMarkdown":"Patient received injectable factor Xa med 1 min after anesthesia.end\n"}],"modifierExtension":[{"url":"http://hl7.org/fhir/us/cqfmeasures/StructureDefinition/cqfm-isTestCase","valueBoolean":true}],"status":"complete","type":"individual","measure":"https://madie.cms.gov/Measure/CMS108FHIRVTEProphylaxis","period":{"start":"2026-01-01","end":"2026-12-31"},"group":[{"id":"Group_1","population":[{"id":"InitialPopulation_1","code":{"coding":[{"system":"http://terminology.hl7.org/CodeSystem/measure-population","code":"initial-population","display":"Initial Population"}]},"count":1},{"id":"Denominator_1","code":{"coding":[{"system":"http://terminology.hl7.org/CodeSystem/measure-population","code":"denominator","display":"Denominator"}]},"count":1},{"id":"DenominatorExclusion_1","code":{"coding":[{"system":"http://terminology.hl7.org/CodeSystem/measure-population","code":"denominator-exclusion","display":"Denominator Exclusion"}]},"count":0},{"id":"Numerator_1","code":{"coding":[{"system":"http://terminology.hl7.org/CodeSystem/measure-population","code":"numerator","display":"Numerator"}]},"count":1}],"measureScore":{"value":0.0}}],"evaluatedResource":[{"reference":"Patient/77c1bf41-fce8-4044-9eeb-c205b8fdc0a9"},{"reference":"Encounter/320bc57a-eff9-40b1-a484-e2262cdb494f"},{"reference":"Coverage/d9b9158b-23e2-4a1e-8a4c-b60354d7d504"},{"reference":"MedicationAdministration/e9bdd160-7b71-4d26-8837-6c5c1a75f19c"},{"reference":"Procedure/d51fbf8b-af55-4ffa-88c3-65ac5e8d9100"},{"reference":"Organization/f79bd367-5811-4e53-9e2b-a840a3b3b0b3"},{"reference":"Practitioner/d78ea409-98e1-4dcd-8ca5-9ad130be5a82"}]},"request":{"method":"PUT","url":"MeasureReport/ff925b5f-a8c2-49ab-9513-71acff6db786"}}]}