{"resourceType":"Bundle","id":"tests-41f2785f-4c4f-4497-a46b-e17fd8b5ee3f-bundle","type":"transaction","entry":[{"fullUrl":"https://madie.cms.gov/Patient/41f2785f-4c4f-4497-a46b-e17fd8b5ee3f","resource":{"resourceType":"Patient","id":"41f2785f-4c4f-4497-a46b-e17fd8b5ee3f","meta":{"profile":["http://hl7.org/fhir/us/qicore/StructureDefinition/qicore-patient"]},"text":{"status":"generated","div":"<div xmlns=\"http://www.w3.org/1999/xhtml\"><div class=\"hapiHeaderText\">CMODrgEDHrsBFAdmDoNotPerformTrue <b>DENEXFail </b></div><table class=\"hapiPropertyTable\"><tbody><tr><td>Identifier</td><td>059b8a3b4412b01787dc1d643429cbf6</td></tr><tr><td>Date of birth</td><td><span>02 January 1974</span></td></tr></tbody></table></div>"},"extension":[{"url":"http://hl7.org/fhir/us/core/StructureDefinition/us-core-race","extension":[{"url":"ombCategory","valueCoding":{"system":"urn:oid:2.16.840.1.113883.6.238","code":"1002-5","display":"American Indian or Alaska Native","userSelected":true}},{"url":"text","valueString":"American Indian or Alaska Native"}]},{"url":"http://hl7.org/fhir/us/core/StructureDefinition/us-core-ethnicity","extension":[{"url":"ombCategory","valueCoding":{"system":"urn:oid:2.16.840.1.113883.6.238","code":"2135-2","display":"Hispanic or Latino","userSelected":true}},{"url":"text","valueString":"Hispanic or Latino"}]}],"identifier":[{"type":{"coding":[{"system":"http://terminology.hl7.org/CodeSystem/v2-0203","code":"MR"}]},"system":"https://bonnie-fhir.healthit.gov/","value":"612e6b4302c62a011f2ed189"}],"active":true,"name":[{"use":"usual","family":"DENEXFail","given":["CMODrgEDHrsBFAdmDoNotPerformTrue"]}],"gender":"male","birthDate":"1975-01-02"},"request":{"method":"PUT","url":"Patient/41f2785f-4c4f-4497-a46b-e17fd8b5ee3f"}},{"fullUrl":"https://madie.cms.gov/Encounter/2fbb09c1-6e46-4804-a85e-0b28f1c13c27","resource":{"resourceType":"Encounter","id":"2fbb09c1-6e46-4804-a85e-0b28f1c13c27","meta":{"profile":["http://hl7.org/fhir/us/qicore/StructureDefinition/qicore-encounter"]},"status":"finished","class":{"system":"http://terminology.hl7.org/CodeSystem/v3-ActCode","code":"EMER","display":"emergency"},"type":[{"coding":[{"system":"http://snomed.info/sct","code":"4525004"}]}],"subject":{"reference":"Patient/41f2785f-4c4f-4497-a46b-e17fd8b5ee3f"},"period":{"start":"2026-11-01T03:00:00.000+00:00","end":"2026-11-01T05:15:00.000+00:00"},"length":{"value":0,"unit":"days"}},"request":{"method":"PUT","url":"Encounter/2fbb09c1-6e46-4804-a85e-0b28f1c13c27"}},{"fullUrl":"https://madie.cms.gov/Encounter/88acb830-8efb-43d7-a0a7-a1bfd97211e8","resource":{"resourceType":"Encounter","id":"88acb830-8efb-43d7-a0a7-a1bfd97211e8","meta":{"profile":["http://hl7.org/fhir/us/qicore/StructureDefinition/qicore-encounter"]},"status":"finished","class":{"system":"http://terminology.hl7.org/CodeSystem/v3-ActCode","code":"IMP","display":"inpatient encounter"},"type":[{"coding":[{"system":"http://snomed.info/sct","code":"8715000"}]}],"subject":{"reference":"Patient/41f2785f-4c4f-4497-a46b-e17fd8b5ee3f"},"period":{"start":"2026-11-01T08:00:00.000+00:00","end":"2026-11-26T08:15:00.000+00:00"},"length":{"value":25,"unit":"days"}},"request":{"method":"PUT","url":"Encounter/88acb830-8efb-43d7-a0a7-a1bfd97211e8"}},{"fullUrl":"https://madie.cms.gov/ServiceRequest/723cbf17-1ed5-4327-aa53-78ee142483e1","resource":{"resourceType":"ServiceRequest","id":"723cbf17-1ed5-4327-aa53-78ee142483e1","meta":{"profile":["http://hl7.org/fhir/us/qicore/StructureDefinition/qicore-servicenotrequested"]},"extension":[{"url":"http://hl7.org/fhir/us/qicore/StructureDefinition/qicore-doNotPerformReason","valueCodeableConcept":{"coding":[{"system":"http://snomed.info/sct","code":"416406003","display":"Procedure discontinued (situation)"}]}}],"status":"completed","intent":"order","doNotPerform":true,"code":{"coding":[{"system":"http://snomed.info/sct","code":"133918004"}]},"subject":{"reference":"Patient/41f2785f-4c4f-4497-a46b-e17fd8b5ee3f"},"authoredOn":"2026-11-01T05:00:00.000+00:00"},"request":{"method":"PUT","url":"ServiceRequest/723cbf17-1ed5-4327-aa53-78ee142483e1"}},{"fullUrl":"https://madie.cms.gov/Coverage/39a70864-4c75-4554-b55d-322bc9476565","resource":{"resourceType":"Coverage","id":"39a70864-4c75-4554-b55d-322bc9476565","status":"active","beneficiary":{"reference":"Patient/41f2785f-4c4f-4497-a46b-e17fd8b5ee3f"},"period":{"start":"1975-01-02T08:00:00.000+00:00"},"payor":[{"reference":"Organization/1b612dc0-3301-45e9-b91a-db46ac7cb372"}]},"request":{"method":"PUT","url":"Coverage/39a70864-4c75-4554-b55d-322bc9476565"}},{"fullUrl":"https://madie.cms.gov/Organization/1b612dc0-3301-45e9-b91a-db46ac7cb372","resource":{"resourceType":"Organization","id":"1b612dc0-3301-45e9-b91a-db46ac7cb372","meta":{"profile":["http://hl7.org/fhir/us/qicore/StructureDefinition/qicore-organization"]},"identifier":[{"use":"temp","system":"urn:oid:2.16.840.1.113883.4.4","value":"21-3259825"}],"active":true,"type":[{"coding":[{"system":"http://terminology.hl7.org/CodeSystem/organization-type","code":"pay","display":"Payer"}]}],"name":"Blue Cross Blue Shield of Texas","telecom":[{"system":"phone","value":"(+1) 972-766-6900"}],"address":[{"use":"billing","type":"postal","line":["P.O. Box 660044"],"city":"Dallas","state":"TX","postalCode":"75266-0044","country":"USA"}]},"request":{"method":"PUT","url":"Organization/1b612dc0-3301-45e9-b91a-db46ac7cb372"}},{"fullUrl":"https://madie.cms.gov/Practitioner/4545b0c6-e7d6-4c88-ad2c-7d282311d7ef","resource":{"resourceType":"Practitioner","id":"4545b0c6-e7d6-4c88-ad2c-7d282311d7ef","identifier":[{"system":"http://hl7.org/fhir/sid/us-npi","value":"123456"}],"name":[{"family":"Evil","prefix":["Dr"]}]},"request":{"method":"PUT","url":"Practitioner/4545b0c6-e7d6-4c88-ad2c-7d282311d7ef"}},{"fullUrl":"https://madie.cms.gov/MeasureReport/467c4218-6ff4-45b1-9ef0-ad0fca99a44f","resource":{"resourceType":"MeasureReport","id":"467c4218-6ff4-45b1-9ef0-ad0fca99a44f","meta":{"profile":["http://hl7.org/fhir/us/cqfmeasures/StructureDefinition/test-case-cqfm"]},"contained":[{"resourceType":"Parameters","id":"fa0539c2-4102-4418-9669-18f907fa1fb4-parameters","parameter":[{"name":"subject","valueString":"41f2785f-4c4f-4497-a46b-e17fd8b5ee3f"}]}],"extension":[{"url":"http://hl7.org/fhir/StructureDefinition/cqf-inputParameters","valueReference":{"reference":"#fa0539c2-4102-4418-9669-18f907fa1fb4-parameters"}},{"url":"http://hl7.org/fhir/us/cqfmeasures/StructureDefinition/cqfm-testCaseDescription","valueMarkdown":"Test and cover ServiceRequest.doNOtPerform is true. CMO occurs in ED that ED ends > 1 hour before Adm. But this case pass because it is on the same day as adm date"}],"modifierExtension":[{"url":"http://hl7.org/fhir/us/cqfmeasures/StructureDefinition/cqfm-isTestCase","valueBoolean":true}],"status":"complete","type":"individual","measure":"https://madie.cms.gov/Measure/CMS108FHIRVTEProphylaxis","period":{"start":"2026-01-01","end":"2026-12-31"},"group":[{"id":"Group_1","population":[{"id":"InitialPopulation_1","code":{"coding":[{"system":"http://terminology.hl7.org/CodeSystem/measure-population","code":"initial-population","display":"Initial Population"}]},"count":1},{"id":"Denominator_1","code":{"coding":[{"system":"http://terminology.hl7.org/CodeSystem/measure-population","code":"denominator","display":"Denominator"}]},"count":1},{"id":"DenominatorExclusion_1","code":{"coding":[{"system":"http://terminology.hl7.org/CodeSystem/measure-population","code":"denominator-exclusion","display":"Denominator Exclusion"}]},"count":0},{"id":"Numerator_1","code":{"coding":[{"system":"http://terminology.hl7.org/CodeSystem/measure-population","code":"numerator","display":"Numerator"}]},"count":0}],"measureScore":{"value":0.0}}],"evaluatedResource":[{"reference":"Patient/41f2785f-4c4f-4497-a46b-e17fd8b5ee3f"},{"reference":"Encounter/2fbb09c1-6e46-4804-a85e-0b28f1c13c27"},{"reference":"Encounter/88acb830-8efb-43d7-a0a7-a1bfd97211e8"},{"reference":"ServiceRequest/723cbf17-1ed5-4327-aa53-78ee142483e1"},{"reference":"Coverage/39a70864-4c75-4554-b55d-322bc9476565"},{"reference":"Organization/1b612dc0-3301-45e9-b91a-db46ac7cb372"},{"reference":"Practitioner/4545b0c6-e7d6-4c88-ad2c-7d282311d7ef"}]},"request":{"method":"PUT","url":"MeasureReport/467c4218-6ff4-45b1-9ef0-ad0fca99a44f"}}]}