{"resourceType":"Bundle","id":"tests-8eb00db0-32af-43c6-9c00-79eb2a4462ad-bundle","type":"transaction","entry":[{"fullUrl":"https://madie.cms.gov/Patient/8eb00db0-32af-43c6-9c00-79eb2a4462ad","resource":{"resourceType":"Patient","id":"8eb00db0-32af-43c6-9c00-79eb2a4462ad","meta":{"profile":["http://hl7.org/fhir/us/qicore/StructureDefinition/qicore-patient"]},"text":{"status":"generated","div":"<div xmlns=\"http://www.w3.org/1999/xhtml\"><div class=\"hapiHeaderText\">MA_LDUHep_2DaysAfterAnesth <b>NUMERFAIL </b></div><table class=\"hapiPropertyTable\"><tbody><tr><td>Identifier</td><td>5f49439a0368777e213ee1936c981e56</td></tr><tr><td>Date of birth</td><td><span>02 January 1974</span></td></tr></tbody></table></div>"},"extension":[{"url":"http://hl7.org/fhir/us/core/StructureDefinition/us-core-race","extension":[{"url":"ombCategory","valueCoding":{"system":"urn:oid:2.16.840.1.113883.6.238","code":"1002-5","display":"American Indian or Alaska Native","userSelected":true}},{"url":"text","valueString":"American Indian or Alaska Native"}]},{"url":"http://hl7.org/fhir/us/core/StructureDefinition/us-core-ethnicity","extension":[{"url":"ombCategory","valueCoding":{"system":"urn:oid:2.16.840.1.113883.6.238","code":"2135-2","display":"Hispanic or Latino","userSelected":true}},{"url":"text","valueString":"Hispanic or Latino"}]}],"identifier":[{"type":{"coding":[{"system":"http://terminology.hl7.org/CodeSystem/v2-0203","code":"MR"}]},"system":"https://bonnie-fhir.healthit.gov/","value":"612e6a5102c62a011f2e99b8"}],"active":true,"name":[{"use":"usual","family":"NUMERFail","given":["MALDUHep2DaysAfterAnesth"]}],"gender":"male","birthDate":"1975-01-02"},"request":{"method":"PUT","url":"Patient/8eb00db0-32af-43c6-9c00-79eb2a4462ad"}},{"fullUrl":"https://madie.cms.gov/Encounter/f77cd873-54c9-4927-bc2f-40159fc058ad","resource":{"resourceType":"Encounter","id":"f77cd873-54c9-4927-bc2f-40159fc058ad","meta":{"profile":["http://hl7.org/fhir/us/qicore/StructureDefinition/qicore-encounter"]},"status":"finished","class":{"system":"http://terminology.hl7.org/CodeSystem/v3-ActCode","code":"IMP","display":"inpatient encounter"},"type":[{"coding":[{"system":"http://snomed.info/sct","code":"8715000"}]}],"subject":{"reference":"Patient/8eb00db0-32af-43c6-9c00-79eb2a4462ad"},"period":{"start":"2026-11-01T08:00:00.000+00:00","end":"2026-11-26T08:15:00.000+00:00"},"length":{"value":25,"unit":"days"}},"request":{"method":"PUT","url":"Encounter/f77cd873-54c9-4927-bc2f-40159fc058ad"}},{"fullUrl":"https://madie.cms.gov/Coverage/a64adb6e-2404-4dea-bcf8-b983a3a888b9","resource":{"resourceType":"Coverage","id":"a64adb6e-2404-4dea-bcf8-b983a3a888b9","status":"active","beneficiary":{"reference":"Patient/8eb00db0-32af-43c6-9c00-79eb2a4462ad"},"period":{"start":"1975-01-02T08:00:00.000+00:00"},"payor":[{"reference":"Organization/ee3307cb-90bc-4c97-ae35-fd6c252b425f"}]},"request":{"method":"PUT","url":"Coverage/a64adb6e-2404-4dea-bcf8-b983a3a888b9"}},{"fullUrl":"https://madie.cms.gov/MedicationAdministration/112c8e70-0159-422c-a043-df0a2667ebd7","resource":{"resourceType":"MedicationAdministration","id":"112c8e70-0159-422c-a043-df0a2667ebd7","meta":{"profile":["http://hl7.org/fhir/us/qicore/StructureDefinition/qicore-medicationadministration"]},"status":"completed","medicationCodeableConcept":{"coding":[{"system":"http://www.nlm.nih.gov/research/umls/rxnorm","code":"1361574"}]},"subject":{"reference":"Patient/8eb00db0-32af-43c6-9c00-79eb2a4462ad"},"effectivePeriod":{"start":"2026-11-03T09:00:00.000+00:00","end":"2026-11-03T09:15:00.000+00:00"},"dosage":{"route":{"coding":[{"system":"http://snomed.info/sct","code":"34206005","display":"Subcutaneous route"}]},"dose":{"value":20000,"unit":"UNT/ML","system":"http://unitsofmeasure.org","code":"ML"}}},"request":{"method":"PUT","url":"MedicationAdministration/112c8e70-0159-422c-a043-df0a2667ebd7"}},{"fullUrl":"https://madie.cms.gov/Procedure/8e57b1f8-f2f1-4d7d-8fea-dd926e0532fc","resource":{"resourceType":"Procedure","id":"8e57b1f8-f2f1-4d7d-8fea-dd926e0532fc","meta":{"profile":["http://hl7.org/fhir/us/qicore/StructureDefinition/qicore-procedure"]},"extension":[{"url":"http://hl7.org/fhir/us/qicore/StructureDefinition/qicore-recorded","valueDateTime":"2013-12-04T13:35:00.000+00:00"}],"status":"completed","code":{"coding":[{"system":"http://www.icd10data.com/icd10pcs","code":"3E030FZ"},{"system":"http://snomed.info/sct","code":"18946005"}]},"subject":{"reference":"Patient/8eb00db0-32af-43c6-9c00-79eb2a4462ad"},"performedPeriod":{"start":"2026-11-01T09:00:00.000+00:00","end":"2026-11-01T09:15:00.000+00:00"}},"request":{"method":"PUT","url":"Procedure/8e57b1f8-f2f1-4d7d-8fea-dd926e0532fc"}},{"fullUrl":"https://madie.cms.gov/Organization/ee3307cb-90bc-4c97-ae35-fd6c252b425f","resource":{"resourceType":"Organization","id":"ee3307cb-90bc-4c97-ae35-fd6c252b425f","meta":{"profile":["http://hl7.org/fhir/us/qicore/StructureDefinition/qicore-organization"]},"identifier":[{"use":"temp","system":"urn:oid:2.16.840.1.113883.4.4","value":"21-3259825"}],"active":true,"type":[{"coding":[{"system":"http://terminology.hl7.org/CodeSystem/organization-type","code":"pay","display":"Payer"}]}],"name":"Blue Cross Blue Shield of Texas","telecom":[{"system":"phone","value":"(+1) 972-766-6900"}],"address":[{"use":"billing","type":"postal","line":["P.O. Box 660044"],"city":"Dallas","state":"TX","postalCode":"75266-0044","country":"USA"}]},"request":{"method":"PUT","url":"Organization/ee3307cb-90bc-4c97-ae35-fd6c252b425f"}},{"fullUrl":"https://madie.cms.gov/Practitioner/93db1178-100f-4eba-ab13-4d56aec3ef7a","resource":{"resourceType":"Practitioner","id":"93db1178-100f-4eba-ab13-4d56aec3ef7a","identifier":[{"system":"http://hl7.org/fhir/sid/us-npi","value":"123456"}],"name":[{"family":"Evil","prefix":["Dr"]}]},"request":{"method":"PUT","url":"Practitioner/93db1178-100f-4eba-ab13-4d56aec3ef7a"}},{"fullUrl":"https://madie.cms.gov/MeasureReport/30642975-d27d-47b5-be36-cfee35707237","resource":{"resourceType":"MeasureReport","id":"30642975-d27d-47b5-be36-cfee35707237","meta":{"profile":["http://hl7.org/fhir/us/cqfmeasures/StructureDefinition/test-case-cqfm"]},"contained":[{"resourceType":"Parameters","id":"34bc26c4-0a88-478e-9829-95a07ee1a046-parameters","parameter":[{"name":"subject","valueString":"8eb00db0-32af-43c6-9c00-79eb2a4462ad"}]}],"extension":[{"url":"http://hl7.org/fhir/StructureDefinition/cqf-inputParameters","valueReference":{"reference":"#34bc26c4-0a88-478e-9829-95a07ee1a046-parameters"}},{"url":"http://hl7.org/fhir/us/cqfmeasures/StructureDefinition/cqfm-testCaseDescription","valueMarkdown":"Low Dose Unfractionated Heparin for VTE Prophylaxis administered > 1 day after anesthesia\n"}],"modifierExtension":[{"url":"http://hl7.org/fhir/us/cqfmeasures/StructureDefinition/cqfm-isTestCase","valueBoolean":true}],"status":"complete","type":"individual","measure":"https://madie.cms.gov/Measure/CMS108FHIRVTEProphylaxis","period":{"start":"2026-01-01","end":"2026-12-31"},"group":[{"id":"Group_1","population":[{"id":"InitialPopulation_1","code":{"coding":[{"system":"http://terminology.hl7.org/CodeSystem/measure-population","code":"initial-population","display":"Initial Population"}]},"count":1},{"id":"Denominator_1","code":{"coding":[{"system":"http://terminology.hl7.org/CodeSystem/measure-population","code":"denominator","display":"Denominator"}]},"count":1},{"id":"DenominatorExclusion_1","code":{"coding":[{"system":"http://terminology.hl7.org/CodeSystem/measure-population","code":"denominator-exclusion","display":"Denominator Exclusion"}]},"count":0},{"id":"Numerator_1","code":{"coding":[{"system":"http://terminology.hl7.org/CodeSystem/measure-population","code":"numerator","display":"Numerator"}]},"count":0}],"measureScore":{"value":0.0}}],"evaluatedResource":[{"reference":"Patient/8eb00db0-32af-43c6-9c00-79eb2a4462ad"},{"reference":"Encounter/f77cd873-54c9-4927-bc2f-40159fc058ad"},{"reference":"Coverage/a64adb6e-2404-4dea-bcf8-b983a3a888b9"},{"reference":"MedicationAdministration/112c8e70-0159-422c-a043-df0a2667ebd7"},{"reference":"Procedure/8e57b1f8-f2f1-4d7d-8fea-dd926e0532fc"},{"reference":"Organization/ee3307cb-90bc-4c97-ae35-fd6c252b425f"},{"reference":"Practitioner/93db1178-100f-4eba-ab13-4d56aec3ef7a"}]},"request":{"method":"PUT","url":"MeasureReport/30642975-d27d-47b5-be36-cfee35707237"}}]}