{"resourceType":"Bundle","id":"tests-182103c1-0a38-4d85-819c-148e4e105716-bundle","type":"transaction","entry":[{"fullUrl":"https://madie.cms.gov/Patient/182103c1-0a38-4d85-819c-148e4e105716","resource":{"resourceType":"Patient","id":"182103c1-0a38-4d85-819c-148e4e105716","meta":{"profile":["http://hl7.org/fhir/us/qicore/StructureDefinition/qicore-patient"]},"text":{"status":"generated","div":"<div xmlns=\"http://www.w3.org/1999/xhtml\"><div class=\"hapiHeaderText\">PtRefMOLMWHTaskReject <b>NUMERPASS </b></div><table class=\"hapiPropertyTable\"><tbody><tr><td>Identifier</td><td>bec2580a47ed4bf7691b191e0654b2de</td></tr><tr><td>Date of birth</td><td><span>02 January 1974</span></td></tr></tbody></table></div>"},"extension":[{"url":"http://hl7.org/fhir/us/core/StructureDefinition/us-core-race","extension":[{"url":"ombCategory","valueCoding":{"system":"urn:oid:2.16.840.1.113883.6.238","code":"1002-5","display":"American Indian or Alaska Native","userSelected":true}},{"url":"text","valueString":"American Indian or Alaska Native"}]},{"url":"http://hl7.org/fhir/us/core/StructureDefinition/us-core-ethnicity","extension":[{"url":"ombCategory","valueCoding":{"system":"urn:oid:2.16.840.1.113883.6.238","code":"2135-2","display":"Hispanic or Latino","userSelected":true}},{"url":"text","valueString":"Hispanic or Latino"}]}],"identifier":[{"type":{"coding":[{"system":"http://terminology.hl7.org/CodeSystem/v2-0203","code":"MR"}]},"system":"https://bonnie-fhir.healthit.gov/","value":"612e6b2e02c62a011f2ecc81"}],"active":true,"name":[{"use":"usual","family":"NUMERPass","given":["PtRefMORixTaskReject"]}],"gender":"male","birthDate":"1975-01-02"},"request":{"method":"PUT","url":"Patient/182103c1-0a38-4d85-819c-148e4e105716"}},{"fullUrl":"https://madie.cms.gov/Encounter/0d2781c3-c14e-4515-a64e-c1674cb1a42c","resource":{"resourceType":"Encounter","id":"0d2781c3-c14e-4515-a64e-c1674cb1a42c","meta":{"profile":["http://hl7.org/fhir/us/qicore/StructureDefinition/qicore-encounter"]},"status":"finished","class":{"system":"http://terminology.hl7.org/CodeSystem/v3-ActCode","code":"IMP","display":"inpatient encounter"},"type":[{"coding":[{"system":"http://snomed.info/sct","code":"8715000"}]}],"subject":{"reference":"Patient/182103c1-0a38-4d85-819c-148e4e105716"},"period":{"start":"2026-11-01T08:00:00.000+00:00","end":"2026-11-26T08:15:00.000+00:00"},"length":{"value":25,"unit":"days"}},"request":{"method":"PUT","url":"Encounter/0d2781c3-c14e-4515-a64e-c1674cb1a42c"}},{"fullUrl":"https://madie.cms.gov/Coverage/cc079d88-d517-419f-9f70-2b240eda9d1f","resource":{"resourceType":"Coverage","id":"cc079d88-d517-419f-9f70-2b240eda9d1f","status":"active","beneficiary":{"reference":"Patient/182103c1-0a38-4d85-819c-148e4e105716"},"period":{"start":"1975-01-02T08:00:00.000+00:00"},"payor":[{"reference":"Organization/cd879a95-c3a9-40f0-a140-0f9432dd1498"}]},"request":{"method":"PUT","url":"Coverage/cc079d88-d517-419f-9f70-2b240eda9d1f"}},{"fullUrl":"https://madie.cms.gov/MedicationRequest/059c6d42-aba8-4d7e-ac9b-4d3630b53848","resource":{"resourceType":"MedicationRequest","id":"059c6d42-aba8-4d7e-ac9b-4d3630b53848","meta":{"profile":["http://hl7.org/fhir/us/qicore/StructureDefinition/qicore-medicationrequest"]},"status":"active","intent":"order","category":[{"coding":[{"system":"http://terminology.hl7.org/CodeSystem/medicationrequest-category","code":"inpatient"}]}],"doNotPerform":false,"medicationCodeableConcept":{"coding":[{"system":"http://www.nlm.nih.gov/research/umls/rxnorm","code":"1232086"}]},"subject":{"reference":"Patient/182103c1-0a38-4d85-819c-148e4e105716"},"authoredOn":"2026-11-01T08:00:00.000+00:00","requester":{"reference":"Practitioner/123456"},"dosageInstruction":[{"timing":{"repeat":{"boundsPeriod":{"start":"2026-11-03T09:00:00.000+00:00"}}}}]},"request":{"method":"PUT","url":"MedicationRequest/059c6d42-aba8-4d7e-ac9b-4d3630b53848"}},{"fullUrl":"https://madie.cms.gov/Task/0bae3977-a3fc-4490-8bec-a56f7b9976c1","resource":{"resourceType":"Task","id":"0bae3977-a3fc-4490-8bec-a56f7b9976c1","meta":{"profile":["http://hl7.org/fhir/us/qicore/StructureDefinition/qicore-taskrejected"]},"status":"rejected","statusReason":{"coding":[{"system":"http://snomed.info/sct","code":"443390004","display":"Refusal of treatment by patient (situation)","userSelected":true}]},"code":{"coding":[{"system":"http://hl7.org/fhir/CodeSystem/task-code","code":"fulfill"}]},"focus":{"reference":"MedicationRequest/059c6d42-aba8-4d7e-ac9b-4d3630b53848"},"executionPeriod":{"start":"2026-11-01T09:00:00.000+00:00","end":"2026-11-03T09:00:00.000+00:00"}},"request":{"method":"PUT","url":"Task/0bae3977-a3fc-4490-8bec-a56f7b9976c1"}},{"fullUrl":"https://madie.cms.gov/Organization/cd879a95-c3a9-40f0-a140-0f9432dd1498","resource":{"resourceType":"Organization","id":"cd879a95-c3a9-40f0-a140-0f9432dd1498","meta":{"profile":["http://hl7.org/fhir/us/qicore/StructureDefinition/qicore-organization"]},"identifier":[{"use":"temp","system":"urn:oid:2.16.840.1.113883.4.4","value":"21-3259825"}],"active":true,"type":[{"coding":[{"system":"http://terminology.hl7.org/CodeSystem/organization-type","code":"pay","display":"Payer"}]}],"name":"Blue Cross Blue Shield of Texas","telecom":[{"system":"phone","value":"(+1) 972-766-6900"}],"address":[{"use":"billing","type":"postal","line":["P.O. Box 660044"],"city":"Dallas","state":"TX","postalCode":"75266-0044","country":"USA"}]},"request":{"method":"PUT","url":"Organization/cd879a95-c3a9-40f0-a140-0f9432dd1498"}},{"fullUrl":"https://madie.cms.gov/Practitioner/31b67f63-fb6d-4087-b81e-867a35971207","resource":{"resourceType":"Practitioner","id":"31b67f63-fb6d-4087-b81e-867a35971207","identifier":[{"system":"http://hl7.org/fhir/sid/us-npi","value":"123456"}],"name":[{"family":"Evil","prefix":["Dr"]}]},"request":{"method":"PUT","url":"Practitioner/31b67f63-fb6d-4087-b81e-867a35971207"}},{"fullUrl":"https://madie.cms.gov/MeasureReport/927fb4c7-ddd5-48e1-ae31-3868ddf8836f","resource":{"resourceType":"MeasureReport","id":"927fb4c7-ddd5-48e1-ae31-3868ddf8836f","meta":{"profile":["http://hl7.org/fhir/us/cqfmeasures/StructureDefinition/test-case-cqfm"]},"contained":[{"resourceType":"Parameters","id":"a5eec1a8-02b5-4104-8fa9-24ad3919773e-parameters","parameter":[{"name":"subject","valueString":"182103c1-0a38-4d85-819c-148e4e105716"}]}],"extension":[{"url":"http://hl7.org/fhir/StructureDefinition/cqf-inputParameters","valueReference":{"reference":"#a5eec1a8-02b5-4104-8fa9-24ad3919773e-parameters"}},{"url":"http://hl7.org/fhir/us/cqfmeasures/StructureDefinition/cqfm-testCaseDescription","valueMarkdown":"Rivaroxaban Reject refused with taskReject profile\n"}],"modifierExtension":[{"url":"http://hl7.org/fhir/us/cqfmeasures/StructureDefinition/cqfm-isTestCase","valueBoolean":true}],"status":"complete","type":"individual","measure":"https://madie.cms.gov/Measure/CMS108FHIRVTEProphylaxis","period":{"start":"2026-01-01","end":"2026-12-31"},"group":[{"id":"Group_1","population":[{"id":"InitialPopulation_1","code":{"coding":[{"system":"http://terminology.hl7.org/CodeSystem/measure-population","code":"initial-population","display":"Initial Population"}]},"count":1},{"id":"Denominator_1","code":{"coding":[{"system":"http://terminology.hl7.org/CodeSystem/measure-population","code":"denominator","display":"Denominator"}]},"count":1},{"id":"DenominatorExclusion_1","code":{"coding":[{"system":"http://terminology.hl7.org/CodeSystem/measure-population","code":"denominator-exclusion","display":"Denominator Exclusion"}]},"count":0},{"id":"Numerator_1","code":{"coding":[{"system":"http://terminology.hl7.org/CodeSystem/measure-population","code":"numerator","display":"Numerator"}]},"count":1}],"measureScore":{"value":0.0}}],"evaluatedResource":[{"reference":"Patient/182103c1-0a38-4d85-819c-148e4e105716"},{"reference":"Encounter/0d2781c3-c14e-4515-a64e-c1674cb1a42c"},{"reference":"Coverage/cc079d88-d517-419f-9f70-2b240eda9d1f"},{"reference":"MedicationRequest/059c6d42-aba8-4d7e-ac9b-4d3630b53848"},{"reference":"Task/0bae3977-a3fc-4490-8bec-a56f7b9976c1"},{"reference":"Organization/cd879a95-c3a9-40f0-a140-0f9432dd1498"},{"reference":"Practitioner/31b67f63-fb6d-4087-b81e-867a35971207"}]},"request":{"method":"PUT","url":"MeasureReport/927fb4c7-ddd5-48e1-ae31-3868ddf8836f"}}]}