{"resourceType":"Bundle","id":"tests-4367cc89-c597-45b8-99b9-ccf6c84f2929-bundle","type":"transaction","entry":[{"fullUrl":"https://madie.cms.gov/Patient/4367cc89-c597-45b8-99b9-ccf6c84f2929","resource":{"resourceType":"Patient","id":"4367cc89-c597-45b8-99b9-ccf6c84f2929","meta":{"profile":["http://hl7.org/fhir/us/qicore/StructureDefinition/qicore-patient"]},"text":{"status":"generated","div":"<div xmlns=\"http://www.w3.org/1999/xhtml\"><div class=\"hapiHeaderText\">MA_Warfarin_DayOfAnes <b>NUMERPASS </b></div><table class=\"hapiPropertyTable\"><tbody><tr><td>Identifier</td><td>8a73949853d1489520b4f85cece6c975</td></tr><tr><td>Date of birth</td><td><span>02 January 1974</span></td></tr></tbody></table></div>"},"extension":[{"url":"http://hl7.org/fhir/us/core/StructureDefinition/us-core-race","extension":[{"url":"ombCategory","valueCoding":{"system":"urn:oid:2.16.840.1.113883.6.238","code":"1002-5","display":"American Indian or Alaska Native","userSelected":true}},{"url":"text","valueString":"American Indian or Alaska Native"}]},{"url":"http://hl7.org/fhir/us/core/StructureDefinition/us-core-ethnicity","extension":[{"url":"ombCategory","valueCoding":{"system":"urn:oid:2.16.840.1.113883.6.238","code":"2135-2","display":"Hispanic or Latino","userSelected":true}},{"url":"text","valueString":"Hispanic or Latino"}]}],"identifier":[{"type":{"coding":[{"system":"http://terminology.hl7.org/CodeSystem/v2-0203","code":"MR"}]},"system":"https://bonnie-fhir.healthit.gov/","value":"612e6a5e02c62a011f2e9d40"}],"active":true,"name":[{"use":"usual","family":"NUMERPass","given":["MAWarfarinDayOfAnes"]}],"gender":"male","birthDate":"1975-01-02"},"request":{"method":"PUT","url":"Patient/4367cc89-c597-45b8-99b9-ccf6c84f2929"}},{"fullUrl":"https://madie.cms.gov/Encounter/76d01960-d2fc-42cb-8a90-4b0c3e4c1563","resource":{"resourceType":"Encounter","id":"76d01960-d2fc-42cb-8a90-4b0c3e4c1563","meta":{"profile":["http://hl7.org/fhir/us/qicore/StructureDefinition/qicore-encounter"]},"status":"finished","class":{"system":"http://terminology.hl7.org/CodeSystem/v3-ActCode","code":"IMP","display":"inpatient encounter"},"type":[{"coding":[{"system":"http://snomed.info/sct","code":"8715000"}]}],"subject":{"reference":"Patient/4367cc89-c597-45b8-99b9-ccf6c84f2929"},"period":{"start":"2026-11-01T08:00:00.000+00:00","end":"2026-11-26T08:15:00.000+00:00"},"length":{"value":25,"unit":"days"}},"request":{"method":"PUT","url":"Encounter/76d01960-d2fc-42cb-8a90-4b0c3e4c1563"}},{"fullUrl":"https://madie.cms.gov/Coverage/3c90f51b-70b7-4c30-a473-947c21582e22","resource":{"resourceType":"Coverage","id":"3c90f51b-70b7-4c30-a473-947c21582e22","status":"active","beneficiary":{"reference":"Patient/4367cc89-c597-45b8-99b9-ccf6c84f2929"},"period":{"start":"1975-01-02T08:00:00.000+00:00"},"payor":[{"reference":"Organization/1e5838d0-d2c9-45f1-9c95-f0d4238b6e7a"}]},"request":{"method":"PUT","url":"Coverage/3c90f51b-70b7-4c30-a473-947c21582e22"}},{"fullUrl":"https://madie.cms.gov/MedicationAdministration/f7e07816-bf4f-45f7-a46c-2f6120e579d4","resource":{"resourceType":"MedicationAdministration","id":"f7e07816-bf4f-45f7-a46c-2f6120e579d4","meta":{"profile":["http://hl7.org/fhir/us/qicore/StructureDefinition/qicore-medicationadministration"]},"status":"completed","medicationCodeableConcept":{"coding":[{"system":"http://www.nlm.nih.gov/research/umls/rxnorm","code":"855288"}]},"subject":{"reference":"Patient/4367cc89-c597-45b8-99b9-ccf6c84f2929"},"effectivePeriod":{"start":"2026-11-01T10:00:00.000+00:00","end":"2026-12-02T08:15:00.000+00:00"}},"request":{"method":"PUT","url":"MedicationAdministration/f7e07816-bf4f-45f7-a46c-2f6120e579d4"}},{"fullUrl":"https://madie.cms.gov/Procedure/a692c310-ba2a-430e-9b66-1d50c6ff6b9b","resource":{"resourceType":"Procedure","id":"a692c310-ba2a-430e-9b66-1d50c6ff6b9b","meta":{"profile":["http://hl7.org/fhir/us/qicore/StructureDefinition/qicore-procedure"]},"extension":[{"url":"http://hl7.org/fhir/us/qicore/StructureDefinition/qicore-recorded","valueDateTime":"2013-11-01T13:35:00.000+00:00"}],"status":"completed","code":{"coding":[{"system":"http://www.icd10data.com/icd10pcs","code":"3E030FZ"},{"system":"http://snomed.info/sct","code":"18946005"}]},"subject":{"reference":"Patient/4367cc89-c597-45b8-99b9-ccf6c84f2929"},"performedPeriod":{"start":"2026-11-01T09:00:00.000+00:00","end":"2026-11-01T09:15:00.000+00:00"}},"request":{"method":"PUT","url":"Procedure/a692c310-ba2a-430e-9b66-1d50c6ff6b9b"}},{"fullUrl":"https://madie.cms.gov/Organization/1e5838d0-d2c9-45f1-9c95-f0d4238b6e7a","resource":{"resourceType":"Organization","id":"1e5838d0-d2c9-45f1-9c95-f0d4238b6e7a","meta":{"profile":["http://hl7.org/fhir/us/qicore/StructureDefinition/qicore-organization"]},"identifier":[{"use":"temp","system":"urn:oid:2.16.840.1.113883.4.4","value":"21-3259825"}],"active":true,"type":[{"coding":[{"system":"http://terminology.hl7.org/CodeSystem/organization-type","code":"pay","display":"Payer"}]}],"name":"Blue Cross Blue Shield of Texas","telecom":[{"system":"phone","value":"(+1) 972-766-6900"}],"address":[{"use":"billing","type":"postal","line":["P.O. Box 660044"],"city":"Dallas","state":"TX","postalCode":"75266-0044","country":"USA"}]},"request":{"method":"PUT","url":"Organization/1e5838d0-d2c9-45f1-9c95-f0d4238b6e7a"}},{"fullUrl":"https://madie.cms.gov/Practitioner/80429b29-a63f-4723-bc39-b43f76a3a8a4","resource":{"resourceType":"Practitioner","id":"80429b29-a63f-4723-bc39-b43f76a3a8a4","identifier":[{"system":"http://hl7.org/fhir/sid/us-npi","value":"123456"}],"name":[{"family":"Evil","prefix":["Dr"]}]},"request":{"method":"PUT","url":"Practitioner/80429b29-a63f-4723-bc39-b43f76a3a8a4"}},{"fullUrl":"https://madie.cms.gov/MeasureReport/b3f008b9-ba4d-4188-90d1-d0224ca3ad6f","resource":{"resourceType":"MeasureReport","id":"b3f008b9-ba4d-4188-90d1-d0224ca3ad6f","meta":{"profile":["http://hl7.org/fhir/us/cqfmeasures/StructureDefinition/test-case-cqfm"]},"contained":[{"resourceType":"Parameters","id":"49921adf-2b42-4e8a-b0ac-6baaff96e9a1-parameters","parameter":[{"name":"subject","valueString":"4367cc89-c597-45b8-99b9-ccf6c84f2929"}]}],"extension":[{"url":"http://hl7.org/fhir/StructureDefinition/cqf-inputParameters","valueReference":{"reference":"#49921adf-2b42-4e8a-b0ac-6baaff96e9a1-parameters"}},{"url":"http://hl7.org/fhir/us/cqfmeasures/StructureDefinition/cqfm-testCaseDescription","valueMarkdown":"warfarin given = 0 day after end of anesthesia\n"}],"modifierExtension":[{"url":"http://hl7.org/fhir/us/cqfmeasures/StructureDefinition/cqfm-isTestCase","valueBoolean":true}],"status":"complete","type":"individual","measure":"https://madie.cms.gov/Measure/CMS108FHIRVTEProphylaxis","period":{"start":"2026-01-01","end":"2026-12-31"},"group":[{"id":"Group_1","population":[{"id":"InitialPopulation_1","code":{"coding":[{"system":"http://terminology.hl7.org/CodeSystem/measure-population","code":"initial-population","display":"Initial Population"}]},"count":1},{"id":"Denominator_1","code":{"coding":[{"system":"http://terminology.hl7.org/CodeSystem/measure-population","code":"denominator","display":"Denominator"}]},"count":1},{"id":"DenominatorExclusion_1","code":{"coding":[{"system":"http://terminology.hl7.org/CodeSystem/measure-population","code":"denominator-exclusion","display":"Denominator Exclusion"}]},"count":0},{"id":"Numerator_1","code":{"coding":[{"system":"http://terminology.hl7.org/CodeSystem/measure-population","code":"numerator","display":"Numerator"}]},"count":1}],"measureScore":{"value":0.0}}],"evaluatedResource":[{"reference":"Patient/4367cc89-c597-45b8-99b9-ccf6c84f2929"},{"reference":"Encounter/76d01960-d2fc-42cb-8a90-4b0c3e4c1563"},{"reference":"Coverage/3c90f51b-70b7-4c30-a473-947c21582e22"},{"reference":"MedicationAdministration/f7e07816-bf4f-45f7-a46c-2f6120e579d4"},{"reference":"Procedure/a692c310-ba2a-430e-9b66-1d50c6ff6b9b"},{"reference":"Organization/1e5838d0-d2c9-45f1-9c95-f0d4238b6e7a"},{"reference":"Practitioner/80429b29-a63f-4723-bc39-b43f76a3a8a4"}]},"request":{"method":"PUT","url":"MeasureReport/b3f008b9-ba4d-4188-90d1-d0224ca3ad6f"}}]}