{"resourceType":"Bundle","id":"tests-ef0bebdc-61bf-4233-abd3-1f3c99a2cd8d-bundle","type":"transaction","entry":[{"fullUrl":"https://madie.cms.gov/Patient/ef0bebdc-61bf-4233-abd3-1f3c99a2cd8d","resource":{"resourceType":"Patient","id":"ef0bebdc-61bf-4233-abd3-1f3c99a2cd8d","meta":{"profile":["http://hl7.org/fhir/us/qicore/StructureDefinition/qicore-patient"]},"text":{"status":"generated","div":"<div xmlns=\"http://www.w3.org/1999/xhtml\"><div class=\"hapiHeaderText\">MAOralXaDayAFEncStartHipSurgDrgEnc <b>NUMERPASS </b></div><table class=\"hapiPropertyTable\"><tbody><tr><td>Date of birth</td><td><span>02 January 1974</span></td></tr></tbody></table></div>"},"extension":[{"url":"http://hl7.org/fhir/us/core/StructureDefinition/us-core-race","extension":[{"url":"ombCategory","valueCoding":{"system":"urn:oid:2.16.840.1.113883.6.238","code":"1002-5","display":"American Indian or Alaska Native","userSelected":true}},{"url":"text","valueString":"American Indian or Alaska Native"}]},{"url":"http://hl7.org/fhir/us/core/StructureDefinition/us-core-ethnicity","extension":[{"url":"ombCategory","valueCoding":{"system":"urn:oid:2.16.840.1.113883.6.238","code":"2135-2","display":"Hispanic or Latino","userSelected":true}},{"url":"text","valueString":"Hispanic or Latino"}]}],"identifier":[{"type":{"coding":[{"system":"http://terminology.hl7.org/CodeSystem/v2-0203","code":"MR"}]},"system":"https://bonnie-fhir.healthit.gov/","value":"612e6af202c62a011f2ebdd1"}],"active":true,"name":[{"use":"usual","family":"NUMERPass","given":["MAOralXaDayAFEncStartHipSurgDrgEnc"]}],"gender":"female","birthDate":"1975-01-02"},"request":{"method":"PUT","url":"Patient/ef0bebdc-61bf-4233-abd3-1f3c99a2cd8d"}},{"fullUrl":"https://madie.cms.gov/Encounter/fdb8c19a-2134-4486-8069-5b1b4daa39a2","resource":{"resourceType":"Encounter","id":"fdb8c19a-2134-4486-8069-5b1b4daa39a2","meta":{"profile":["http://hl7.org/fhir/us/qicore/StructureDefinition/qicore-encounter"]},"status":"finished","class":{"system":"http://terminology.hl7.org/CodeSystem/v3-ActCode","code":"IMP","display":"inpatient encounter"},"type":[{"coding":[{"system":"http://snomed.info/sct","code":"183452005"}]}],"subject":{"reference":"Patient/ef0bebdc-61bf-4233-abd3-1f3c99a2cd8d"},"period":{"start":"2026-11-01T08:00:00.000+00:00","end":"2026-11-26T08:15:00.000+00:00"},"length":{"value":25.0,"unit":"day"}},"request":{"method":"PUT","url":"Encounter/fdb8c19a-2134-4486-8069-5b1b4daa39a2"}},{"fullUrl":"https://madie.cms.gov/Coverage/c2b61093-714e-4676-b16e-586748c563d3","resource":{"resourceType":"Coverage","id":"c2b61093-714e-4676-b16e-586748c563d3","status":"active","beneficiary":{"reference":"Patient/ef0bebdc-61bf-4233-abd3-1f3c99a2cd8d"},"period":{"start":"1975-01-02T08:00:00.000+00:00"},"payor":[{"reference":"Organization/581f6c88-1930-4eaa-bb51-69733078c552"}]},"request":{"method":"PUT","url":"Coverage/c2b61093-714e-4676-b16e-586748c563d3"}},{"fullUrl":"https://madie.cms.gov/MedicationAdministration/5b3f2fef-4980-4be8-a5d0-a75de9b148fa","resource":{"resourceType":"MedicationAdministration","id":"5b3f2fef-4980-4be8-a5d0-a75de9b148fa","meta":{"profile":["http://hl7.org/fhir/us/qicore/StructureDefinition/qicore-medicationadministration"]},"status":"completed","medicationCodeableConcept":{"coding":[{"system":"http://www.nlm.nih.gov/research/umls/rxnorm","code":"1992427"}]},"subject":{"reference":"Patient/ef0bebdc-61bf-4233-abd3-1f3c99a2cd8d"},"effectivePeriod":{"start":"2026-11-02T23:59:00.000+00:00","end":"2026-11-02T23:59:00.000+00:00"}},"request":{"method":"PUT","url":"MedicationAdministration/5b3f2fef-4980-4be8-a5d0-a75de9b148fa"}},{"fullUrl":"https://madie.cms.gov/Procedure/2f6daaa5-a610-43e4-840c-31b8d124c8f6","resource":{"resourceType":"Procedure","id":"2f6daaa5-a610-43e4-840c-31b8d124c8f6","meta":{"profile":["http://hl7.org/fhir/us/qicore/StructureDefinition/qicore-procedure"]},"extension":[{"url":"http://hl7.org/fhir/us/qicore/StructureDefinition/qicore-recorded","valueDateTime":"2013-11-19T13:35:00.000+00:00"}],"status":"completed","code":{"coding":[{"system":"http://snomed.info/sct","code":"386649003"}]},"subject":{"reference":"Patient/ef0bebdc-61bf-4233-abd3-1f3c99a2cd8d"},"performedPeriod":{"start":"2026-11-01T09:00:00.000+00:00"}},"request":{"method":"PUT","url":"Procedure/2f6daaa5-a610-43e4-840c-31b8d124c8f6"}},{"fullUrl":"https://madie.cms.gov/Organization/581f6c88-1930-4eaa-bb51-69733078c552","resource":{"resourceType":"Organization","id":"581f6c88-1930-4eaa-bb51-69733078c552","meta":{"profile":["http://hl7.org/fhir/us/qicore/StructureDefinition/qicore-organization"]},"identifier":[{"use":"temp","system":"urn:oid:2.16.840.1.113883.4.4","value":"21-3259825"}],"active":true,"type":[{"coding":[{"system":"http://terminology.hl7.org/CodeSystem/organization-type","code":"pay","display":"Payer"}]}],"name":"Blue Cross Blue Shield of Texas","telecom":[{"system":"phone","value":"(+1) 972-766-6900"}],"address":[{"use":"billing","type":"postal","line":["P.O. Box 660044"],"city":"Dallas","state":"TX","postalCode":"75266-0044","country":"USA"}]},"request":{"method":"PUT","url":"Organization/581f6c88-1930-4eaa-bb51-69733078c552"}},{"fullUrl":"https://madie.cms.gov/Practitioner/e4ea8146-dbea-4513-9cc3-4e1f957ef323","resource":{"resourceType":"Practitioner","id":"e4ea8146-dbea-4513-9cc3-4e1f957ef323","identifier":[{"system":"http://hl7.org/fhir/sid/us-npi","value":"123456"}],"name":[{"family":"Evil","prefix":["Dr"]}]},"request":{"method":"PUT","url":"Practitioner/e4ea8146-dbea-4513-9cc3-4e1f957ef323"}},{"fullUrl":"https://madie.cms.gov/MeasureReport/ae033595-ba95-4c9c-8f46-b3b3fc378d2a","resource":{"resourceType":"MeasureReport","id":"ae033595-ba95-4c9c-8f46-b3b3fc378d2a","meta":{"profile":["http://hl7.org/fhir/us/cqfmeasures/StructureDefinition/test-case-cqfm"]},"contained":[{"resourceType":"Parameters","id":"a1b30c8d-0302-48e2-b49b-5a4ca47e19cb-parameters","parameter":[{"name":"subject","valueString":"ef0bebdc-61bf-4233-abd3-1f3c99a2cd8d"}]}],"extension":[{"url":"http://hl7.org/fhir/StructureDefinition/cqf-inputParameters","valueReference":{"reference":"#a1b30c8d-0302-48e2-b49b-5a4ca47e19cb-parameters"}},{"url":"http://hl7.org/fhir/us/cqfmeasures/StructureDefinition/cqfm-testCaseDescription","valueMarkdown":"\"Oral Xa 11:59PM day after Inp.start\nHip replacement history\"\n"}],"modifierExtension":[{"url":"http://hl7.org/fhir/us/cqfmeasures/StructureDefinition/cqfm-isTestCase","valueBoolean":true}],"status":"complete","type":"individual","measure":"https://madie.cms.gov/Measure/CMS108FHIRVTEProphylaxis","period":{"start":"2026-01-01","end":"2026-12-31"},"group":[{"id":"Group_1","population":[{"id":"InitialPopulation_1","code":{"coding":[{"system":"http://terminology.hl7.org/CodeSystem/measure-population","code":"initial-population","display":"Initial Population"}]},"count":1},{"id":"Denominator_1","code":{"coding":[{"system":"http://terminology.hl7.org/CodeSystem/measure-population","code":"denominator","display":"Denominator"}]},"count":1},{"id":"DenominatorExclusion_1","code":{"coding":[{"system":"http://terminology.hl7.org/CodeSystem/measure-population","code":"denominator-exclusion","display":"Denominator Exclusion"}]},"count":0},{"id":"Numerator_1","code":{"coding":[{"system":"http://terminology.hl7.org/CodeSystem/measure-population","code":"numerator","display":"Numerator"}]},"count":1}],"measureScore":{"value":0.0}}],"evaluatedResource":[{"reference":"Patient/ef0bebdc-61bf-4233-abd3-1f3c99a2cd8d"},{"reference":"Encounter/fdb8c19a-2134-4486-8069-5b1b4daa39a2"},{"reference":"Coverage/c2b61093-714e-4676-b16e-586748c563d3"},{"reference":"MedicationAdministration/5b3f2fef-4980-4be8-a5d0-a75de9b148fa"},{"reference":"Procedure/2f6daaa5-a610-43e4-840c-31b8d124c8f6"},{"reference":"Organization/581f6c88-1930-4eaa-bb51-69733078c552"},{"reference":"Practitioner/e4ea8146-dbea-4513-9cc3-4e1f957ef323"}]},"request":{"method":"PUT","url":"MeasureReport/ae033595-ba95-4c9c-8f46-b3b3fc378d2a"}}]}