{"resourceType":"Bundle","id":"tests-91c8a4a4-2789-4459-bf83-7720f660e89b-bundle","type":"transaction","entry":[{"fullUrl":"https://madie.cms.gov/Patient/91c8a4a4-2789-4459-bf83-7720f660e89b","resource":{"resourceType":"Patient","id":"91c8a4a4-2789-4459-bf83-7720f660e89b","meta":{"profile":["http://hl7.org/fhir/us/qicore/StructureDefinition/qicore-patient"]},"text":{"status":"generated","div":"<div xmlns=\"http://www.w3.org/1999/xhtml\"><div class=\"hapiHeaderText\">MA_LDUHep_DayOfAdm <b>NUMERPASS </b></div><table class=\"hapiPropertyTable\"><tbody><tr><td>Identifier</td><td>8a33d2769a6bdab7ccc20de0552fc909</td></tr><tr><td>Date of birth</td><td><span>02 January 1974</span></td></tr></tbody></table></div>"},"extension":[{"url":"http://hl7.org/fhir/us/core/StructureDefinition/us-core-race","extension":[{"url":"ombCategory","valueCoding":{"system":"urn:oid:2.16.840.1.113883.6.238","code":"1002-5","display":"American Indian or Alaska Native","userSelected":true}},{"url":"text","valueString":"American Indian or Alaska Native"}]},{"url":"http://hl7.org/fhir/us/core/StructureDefinition/us-core-ethnicity","extension":[{"url":"ombCategory","valueCoding":{"system":"urn:oid:2.16.840.1.113883.6.238","code":"2135-2","display":"Hispanic or Latino","userSelected":true}},{"url":"text","valueString":"Hispanic or Latino"}]}],"identifier":[{"type":{"coding":[{"system":"http://terminology.hl7.org/CodeSystem/v2-0203","code":"MR"}]},"system":"https://bonnie-fhir.healthit.gov/","value":"612e6a8b02c62a011f2ea4e5"}],"active":true,"name":[{"use":"usual","family":"NUMERPass","given":["MALDUHepDayOfAdm"]}],"gender":"male","birthDate":"1975-01-02"},"request":{"method":"PUT","url":"Patient/91c8a4a4-2789-4459-bf83-7720f660e89b"}},{"fullUrl":"https://madie.cms.gov/Encounter/9a01606c-9d1c-485d-9fb6-bf0d041d5f52","resource":{"resourceType":"Encounter","id":"9a01606c-9d1c-485d-9fb6-bf0d041d5f52","meta":{"profile":["http://hl7.org/fhir/us/qicore/StructureDefinition/qicore-encounter"]},"status":"finished","class":{"system":"http://terminology.hl7.org/CodeSystem/v3-ActCode","code":"IMP","display":"inpatient encounter"},"type":[{"coding":[{"system":"http://snomed.info/sct","code":"8715000"}]}],"subject":{"reference":"Patient/91c8a4a4-2789-4459-bf83-7720f660e89b"},"period":{"start":"2026-11-01T08:00:00.000+00:00","end":"2026-11-26T08:15:00.000+00:00"},"length":{"value":25,"unit":"days"}},"request":{"method":"PUT","url":"Encounter/9a01606c-9d1c-485d-9fb6-bf0d041d5f52"}},{"fullUrl":"https://madie.cms.gov/Coverage/c45fade4-2959-4fbc-8dbe-951507b0a9ad","resource":{"resourceType":"Coverage","id":"c45fade4-2959-4fbc-8dbe-951507b0a9ad","status":"active","beneficiary":{"reference":"Patient/91c8a4a4-2789-4459-bf83-7720f660e89b"},"period":{"start":"1975-01-02T08:00:00.000+00:00"},"payor":[{"reference":"Organization/9fc44da8-2d5e-4945-a677-99a8616b3680"}]},"request":{"method":"PUT","url":"Coverage/c45fade4-2959-4fbc-8dbe-951507b0a9ad"}},{"fullUrl":"https://madie.cms.gov/MedicationAdministration/0f46eb7d-c806-44cc-9afc-e61468ac58b0","resource":{"resourceType":"MedicationAdministration","id":"0f46eb7d-c806-44cc-9afc-e61468ac58b0","meta":{"profile":["http://hl7.org/fhir/us/qicore/StructureDefinition/qicore-medicationadministration"]},"status":"completed","medicationCodeableConcept":{"coding":[{"system":"http://www.nlm.nih.gov/research/umls/rxnorm","code":"1361574"}]},"subject":{"reference":"Patient/91c8a4a4-2789-4459-bf83-7720f660e89b"},"effectivePeriod":{"start":"2026-11-01T10:00:00.000+00:00","end":"2026-11-01T10:15:00.000+00:00"},"dosage":{"route":{"coding":[{"system":"http://snomed.info/sct","code":"34206005","display":"Subcutaneous route"}]},"dose":{"value":20000,"unit":"UNT/ML","system":"http://unitsofmeasure.org","code":"ML"}}},"request":{"method":"PUT","url":"MedicationAdministration/0f46eb7d-c806-44cc-9afc-e61468ac58b0"}},{"fullUrl":"https://madie.cms.gov/Procedure/f9d092a1-77d2-4296-ba6c-97e4f2c1e4ec","resource":{"resourceType":"Procedure","id":"f9d092a1-77d2-4296-ba6c-97e4f2c1e4ec","meta":{"profile":["http://hl7.org/fhir/us/qicore/StructureDefinition/qicore-procedure"]},"extension":[{"url":"http://hl7.org/fhir/us/qicore/StructureDefinition/qicore-recorded","valueDateTime":"2013-11-02T13:35:00.000+00:00"}],"status":"completed","code":{"coding":[{"system":"http://www.icd10data.com/icd10pcs","code":"3E030FZ"},{"system":"http://snomed.info/sct","code":"18946005"}]},"subject":{"reference":"Patient/91c8a4a4-2789-4459-bf83-7720f660e89b"},"performedPeriod":{"start":"2026-11-02T09:00:00.000+00:00","end":"2026-11-02T09:15:00.000+00:00"}},"request":{"method":"PUT","url":"Procedure/f9d092a1-77d2-4296-ba6c-97e4f2c1e4ec"}},{"fullUrl":"https://madie.cms.gov/Organization/9fc44da8-2d5e-4945-a677-99a8616b3680","resource":{"resourceType":"Organization","id":"9fc44da8-2d5e-4945-a677-99a8616b3680","meta":{"profile":["http://hl7.org/fhir/us/qicore/StructureDefinition/qicore-organization"]},"identifier":[{"use":"temp","system":"urn:oid:2.16.840.1.113883.4.4","value":"21-3259825"}],"active":true,"type":[{"coding":[{"system":"http://terminology.hl7.org/CodeSystem/organization-type","code":"pay","display":"Payer"}]}],"name":"Blue Cross Blue Shield of Texas","telecom":[{"system":"phone","value":"(+1) 972-766-6900"}],"address":[{"use":"billing","type":"postal","line":["P.O. Box 660044"],"city":"Dallas","state":"TX","postalCode":"75266-0044","country":"USA"}]},"request":{"method":"PUT","url":"Organization/9fc44da8-2d5e-4945-a677-99a8616b3680"}},{"fullUrl":"https://madie.cms.gov/Practitioner/e2001512-26d8-4c17-b65a-8dbb35142b5c","resource":{"resourceType":"Practitioner","id":"e2001512-26d8-4c17-b65a-8dbb35142b5c","identifier":[{"system":"http://hl7.org/fhir/sid/us-npi","value":"123456"}],"name":[{"family":"Evil","prefix":["Dr"]}]},"request":{"method":"PUT","url":"Practitioner/e2001512-26d8-4c17-b65a-8dbb35142b5c"}},{"fullUrl":"https://madie.cms.gov/MeasureReport/fa994398-34ad-4f69-96de-e24d825dc431","resource":{"resourceType":"MeasureReport","id":"fa994398-34ad-4f69-96de-e24d825dc431","meta":{"profile":["http://hl7.org/fhir/us/cqfmeasures/StructureDefinition/test-case-cqfm"]},"contained":[{"resourceType":"Parameters","id":"3343d667-8007-4537-aa1b-a959e0c4d4a2-parameters","parameter":[{"name":"subject","valueString":"91c8a4a4-2789-4459-bf83-7720f660e89b"}]}],"extension":[{"url":"http://hl7.org/fhir/StructureDefinition/cqf-inputParameters","valueReference":{"reference":"#3343d667-8007-4537-aa1b-a959e0c4d4a2-parameters"}},{"url":"http://hl7.org/fhir/us/cqfmeasures/StructureDefinition/cqfm-testCaseDescription","valueMarkdown":"low dose unfractionated heparin administered on the day of adm\n"}],"modifierExtension":[{"url":"http://hl7.org/fhir/us/cqfmeasures/StructureDefinition/cqfm-isTestCase","valueBoolean":true}],"status":"complete","type":"individual","measure":"https://madie.cms.gov/Measure/CMS108FHIRVTEProphylaxis","period":{"start":"2026-01-01","end":"2026-12-31"},"group":[{"id":"Group_1","population":[{"id":"InitialPopulation_1","code":{"coding":[{"system":"http://terminology.hl7.org/CodeSystem/measure-population","code":"initial-population","display":"Initial Population"}]},"count":1},{"id":"Denominator_1","code":{"coding":[{"system":"http://terminology.hl7.org/CodeSystem/measure-population","code":"denominator","display":"Denominator"}]},"count":1},{"id":"DenominatorExclusion_1","code":{"coding":[{"system":"http://terminology.hl7.org/CodeSystem/measure-population","code":"denominator-exclusion","display":"Denominator Exclusion"}]},"count":0},{"id":"Numerator_1","code":{"coding":[{"system":"http://terminology.hl7.org/CodeSystem/measure-population","code":"numerator","display":"Numerator"}]},"count":1}],"measureScore":{"value":0.0}}],"evaluatedResource":[{"reference":"Patient/91c8a4a4-2789-4459-bf83-7720f660e89b"},{"reference":"Encounter/9a01606c-9d1c-485d-9fb6-bf0d041d5f52"},{"reference":"Coverage/c45fade4-2959-4fbc-8dbe-951507b0a9ad"},{"reference":"MedicationAdministration/0f46eb7d-c806-44cc-9afc-e61468ac58b0"},{"reference":"Procedure/f9d092a1-77d2-4296-ba6c-97e4f2c1e4ec"},{"reference":"Organization/9fc44da8-2d5e-4945-a677-99a8616b3680"},{"reference":"Practitioner/e2001512-26d8-4c17-b65a-8dbb35142b5c"}]},"request":{"method":"PUT","url":"MeasureReport/fa994398-34ad-4f69-96de-e24d825dc431"}}]}