{"resourceType":"Bundle","id":"tests-0ddb05b5-03af-4d2a-9d9c-0be8034d1ff4-bundle","type":"transaction","entry":[{"fullUrl":"https://madie.cms.gov/Patient/0ddb05b5-03af-4d2a-9d9c-0be8034d1ff4","resource":{"resourceType":"Patient","id":"0ddb05b5-03af-4d2a-9d9c-0be8034d1ff4","meta":{"profile":["http://hl7.org/fhir/us/qicore/StructureDefinition/qicore-patient"]},"text":{"status":"generated","div":"<div xmlns=\"http://www.w3.org/1999/xhtml\"><div class=\"hapiHeaderText\">CMPerf_DuringObs_ObsLT1HrBFAdm <b>DENEXPASS </b></div><table class=\"hapiPropertyTable\"><tbody><tr><td>Identifier</td><td>32a3c1b5766063c719384b1023bfc3dfc1d8c92f7b9304cae9d3eaf406b0a696</td></tr><tr><td>Date of birth</td><td><span>02 January 1974</span></td></tr></tbody></table></div>"},"extension":[{"url":"http://hl7.org/fhir/us/core/StructureDefinition/us-core-race","extension":[{"url":"ombCategory","valueCoding":{"system":"urn:oid:2.16.840.1.113883.6.238","code":"1002-5","display":"American Indian or Alaska Native","userSelected":true}},{"url":"text","valueString":"American Indian or Alaska Native"}]},{"url":"http://hl7.org/fhir/us/core/StructureDefinition/us-core-ethnicity","extension":[{"url":"ombCategory","valueCoding":{"system":"urn:oid:2.16.840.1.113883.6.238","code":"2135-2","display":"Hispanic or Latino","userSelected":true}},{"url":"text","valueString":"Hispanic or Latino"}]}],"identifier":[{"type":{"coding":[{"system":"http://terminology.hl7.org/CodeSystem/v2-0203","code":"MR"}]},"system":"https://bonnie-fhir.healthit.gov/","value":"612e6ae502c62a011f2eba79"}],"active":true,"name":[{"use":"usual","family":"DENEXPass","given":["CMPerfDuringObsObsLT1HrBFAdm"]}],"gender":"male","birthDate":"1975-01-02"},"request":{"method":"PUT","url":"Patient/0ddb05b5-03af-4d2a-9d9c-0be8034d1ff4"}},{"fullUrl":"https://madie.cms.gov/Encounter/9416e725-cacd-475e-bb77-a383e66b52de","resource":{"resourceType":"Encounter","id":"9416e725-cacd-475e-bb77-a383e66b52de","meta":{"profile":["http://hl7.org/fhir/us/qicore/StructureDefinition/qicore-encounter"]},"status":"finished","class":{"system":"http://terminology.hl7.org/CodeSystem/v3-ActCode","code":"EMER","display":"emergency"},"type":[{"coding":[{"system":"http://snomed.info/sct","code":"4525004"}]}],"subject":{"reference":"Patient/0ddb05b5-03af-4d2a-9d9c-0be8034d1ff4"},"period":{"start":"2026-10-31T04:00:00.000+00:00","end":"2026-11-01T05:15:00.000+00:00"},"length":{"value":1,"unit":"days"}},"request":{"method":"PUT","url":"Encounter/9416e725-cacd-475e-bb77-a383e66b52de"}},{"fullUrl":"https://madie.cms.gov/Encounter/15ba7358-c98c-4c01-966d-773994ba5220","resource":{"resourceType":"Encounter","id":"15ba7358-c98c-4c01-966d-773994ba5220","meta":{"profile":["http://hl7.org/fhir/us/qicore/StructureDefinition/qicore-encounter"]},"status":"finished","class":{"system":"http://terminology.hl7.org/CodeSystem/v3-ActCode","code":"IMP","display":"inpatient encounter"},"type":[{"coding":[{"system":"http://snomed.info/sct","code":"8715000"}]}],"subject":{"reference":"Patient/0ddb05b5-03af-4d2a-9d9c-0be8034d1ff4"},"period":{"start":"2026-11-01T08:00:00.000+00:00","end":"2026-11-26T08:15:00.000+00:00"},"length":{"value":25,"unit":"days"}},"request":{"method":"PUT","url":"Encounter/15ba7358-c98c-4c01-966d-773994ba5220"}},{"fullUrl":"https://madie.cms.gov/Encounter/8fea574a-a119-4634-92de-6b6d02bf568c","resource":{"resourceType":"Encounter","id":"8fea574a-a119-4634-92de-6b6d02bf568c","meta":{"profile":["http://hl7.org/fhir/us/qicore/StructureDefinition/qicore-encounter"]},"status":"finished","class":{"system":"http://terminology.hl7.org/CodeSystem/v3-ActCode","code":"OBSENC","display":"observation encounter"},"type":[{"coding":[{"system":"http://snomed.info/sct","code":"448951000124107"}]}],"subject":{"reference":"Patient/0ddb05b5-03af-4d2a-9d9c-0be8034d1ff4"},"period":{"start":"2026-11-01T05:20:00.000+00:00","end":"2026-11-01T07:30:00.000+00:00"}},"request":{"method":"PUT","url":"Encounter/8fea574a-a119-4634-92de-6b6d02bf568c"}},{"fullUrl":"https://madie.cms.gov/Procedure/e18aada8-0c9c-48b1-80a0-31dd38390ab9","resource":{"resourceType":"Procedure","id":"e18aada8-0c9c-48b1-80a0-31dd38390ab9","meta":{"profile":["http://hl7.org/fhir/us/qicore/StructureDefinition/qicore-procedure"]},"extension":[{"url":"http://hl7.org/fhir/us/qicore/StructureDefinition/qicore-recorded","valueDateTime":"2013-11-01T13:35:00.000+00:00"}],"status":"completed","code":{"coding":[{"system":"http://snomed.info/sct","code":"133918004"}]},"subject":{"reference":"Patient/0ddb05b5-03af-4d2a-9d9c-0be8034d1ff4"},"performedPeriod":{"start":"2026-10-31T07:00:00.000+00:00"}},"request":{"method":"PUT","url":"Procedure/e18aada8-0c9c-48b1-80a0-31dd38390ab9"}},{"fullUrl":"https://madie.cms.gov/Coverage/c548a230-be08-42f6-93ce-2234310053af","resource":{"resourceType":"Coverage","id":"c548a230-be08-42f6-93ce-2234310053af","status":"active","beneficiary":{"reference":"Patient/0ddb05b5-03af-4d2a-9d9c-0be8034d1ff4"},"period":{"start":"1975-01-02T08:00:00.000+00:00"},"payor":[{"reference":"Organization/2dca2f30-5879-410d-9b01-a0ce10d59759"}]},"request":{"method":"PUT","url":"Coverage/c548a230-be08-42f6-93ce-2234310053af"}},{"fullUrl":"https://madie.cms.gov/Organization/2dca2f30-5879-410d-9b01-a0ce10d59759","resource":{"resourceType":"Organization","id":"2dca2f30-5879-410d-9b01-a0ce10d59759","meta":{"profile":["http://hl7.org/fhir/us/qicore/StructureDefinition/qicore-organization"]},"identifier":[{"use":"temp","system":"urn:oid:2.16.840.1.113883.4.4","value":"21-3259825"}],"active":true,"type":[{"coding":[{"system":"http://terminology.hl7.org/CodeSystem/organization-type","code":"pay","display":"Payer"}]}],"name":"Blue Cross Blue Shield of Texas","telecom":[{"system":"phone","value":"(+1) 972-766-6900"}],"address":[{"use":"billing","type":"postal","line":["P.O. Box 660044"],"city":"Dallas","state":"TX","postalCode":"75266-0044","country":"USA"}]},"request":{"method":"PUT","url":"Organization/2dca2f30-5879-410d-9b01-a0ce10d59759"}},{"fullUrl":"https://madie.cms.gov/Practitioner/8f80b9d1-1efd-43e8-8efb-ecb15306d47c","resource":{"resourceType":"Practitioner","id":"8f80b9d1-1efd-43e8-8efb-ecb15306d47c","identifier":[{"system":"http://hl7.org/fhir/sid/us-npi","value":"123456"}],"name":[{"family":"Evil","prefix":["Dr"]}]},"request":{"method":"PUT","url":"Practitioner/8f80b9d1-1efd-43e8-8efb-ecb15306d47c"}},{"fullUrl":"https://madie.cms.gov/MeasureReport/34f4c949-49ba-453b-bda0-7686005f2f04","resource":{"resourceType":"MeasureReport","id":"34f4c949-49ba-453b-bda0-7686005f2f04","meta":{"profile":["http://hl7.org/fhir/us/cqfmeasures/StructureDefinition/test-case-cqfm"]},"contained":[{"resourceType":"Parameters","id":"783cae42-821e-40c0-87db-0413798babfc-parameters","parameter":[{"name":"subject","valueString":"0ddb05b5-03af-4d2a-9d9c-0be8034d1ff4"}]}],"extension":[{"url":"http://hl7.org/fhir/StructureDefinition/cqf-inputParameters","valueReference":{"reference":"#783cae42-821e-40c0-87db-0413798babfc-parameters"}},{"url":"http://hl7.org/fhir/us/cqfmeasures/StructureDefinition/cqfm-testCaseDescription","valueMarkdown":"comfort measures performed in Observation, and Obs < 1hr prior to Adm \n"}],"modifierExtension":[{"url":"http://hl7.org/fhir/us/cqfmeasures/StructureDefinition/cqfm-isTestCase","valueBoolean":true}],"status":"complete","type":"individual","measure":"https://madie.cms.gov/Measure/CMS108FHIRVTEProphylaxis","period":{"start":"2026-01-01","end":"2026-12-31"},"group":[{"id":"Group_1","population":[{"id":"InitialPopulation_1","code":{"coding":[{"system":"http://terminology.hl7.org/CodeSystem/measure-population","code":"initial-population","display":"Initial Population"}]},"count":1},{"id":"Denominator_1","code":{"coding":[{"system":"http://terminology.hl7.org/CodeSystem/measure-population","code":"denominator","display":"Denominator"}]},"count":1},{"id":"DenominatorExclusion_1","code":{"coding":[{"system":"http://terminology.hl7.org/CodeSystem/measure-population","code":"denominator-exclusion","display":"Denominator Exclusion"}]},"count":1},{"id":"Numerator_1","code":{"coding":[{"system":"http://terminology.hl7.org/CodeSystem/measure-population","code":"numerator","display":"Numerator"}]},"count":0}],"measureScore":{"value":0.0}}],"evaluatedResource":[{"reference":"Patient/0ddb05b5-03af-4d2a-9d9c-0be8034d1ff4"},{"reference":"Encounter/9416e725-cacd-475e-bb77-a383e66b52de"},{"reference":"Encounter/15ba7358-c98c-4c01-966d-773994ba5220"},{"reference":"Encounter/8fea574a-a119-4634-92de-6b6d02bf568c"},{"reference":"Procedure/e18aada8-0c9c-48b1-80a0-31dd38390ab9"},{"reference":"Coverage/c548a230-be08-42f6-93ce-2234310053af"},{"reference":"Organization/2dca2f30-5879-410d-9b01-a0ce10d59759"},{"reference":"Practitioner/8f80b9d1-1efd-43e8-8efb-ecb15306d47c"}]},"request":{"method":"PUT","url":"MeasureReport/34f4c949-49ba-453b-bda0-7686005f2f04"}}]}