{"resourceType":"Bundle","id":"tests-9b6d2fc2-6e25-4c0a-b4cb-3ca7f85be9b4-bundle","type":"transaction","entry":[{"fullUrl":"https://madie.cms.gov/Patient/9b6d2fc2-6e25-4c0a-b4cb-3ca7f85be9b4","resource":{"resourceType":"Patient","id":"9b6d2fc2-6e25-4c0a-b4cb-3ca7f85be9b4","meta":{"profile":["http://hl7.org/fhir/us/qicore/StructureDefinition/qicore-patient"]},"text":{"status":"generated","div":"<div xmlns=\"http://www.w3.org/1999/xhtml\"><div class=\"hapiHeaderText\">CMPerfDrgObsGT1HrBFAdmCMODayBFAdm <b>DENEXFAIL </b></div><table class=\"hapiPropertyTable\"><tbody><tr><td>Identifier</td><td>d874f5a6c52d811bf5e5d1093e0795b3dc8691e8a7d30647cbc3be67b679e144</td></tr><tr><td>Date of birth</td><td><span>02 January 1974</span></td></tr></tbody></table></div>"},"extension":[{"url":"http://hl7.org/fhir/us/core/StructureDefinition/us-core-race","extension":[{"url":"ombCategory","valueCoding":{"system":"urn:oid:2.16.840.1.113883.6.238","code":"1002-5","display":"American Indian or Alaska Native","userSelected":true}},{"url":"text","valueString":"American Indian or Alaska Native"}]},{"url":"http://hl7.org/fhir/us/core/StructureDefinition/us-core-ethnicity","extension":[{"url":"ombCategory","valueCoding":{"system":"urn:oid:2.16.840.1.113883.6.238","code":"2135-2","display":"Hispanic or Latino","userSelected":true}},{"url":"text","valueString":"Hispanic or Latino"}]}],"identifier":[{"type":{"coding":[{"system":"http://terminology.hl7.org/CodeSystem/v2-0203","code":"MR"}]},"system":"https://bonnie-fhir.healthit.gov/","value":"612e6ae802c62a011f2ebb43"}],"active":true,"name":[{"use":"usual","family":"DENEXFail","given":["CMPerfDrgObsGT1HrBFAdmCMODayBFAdm"]}],"gender":"male","birthDate":"1975-01-02"},"request":{"method":"PUT","url":"Patient/9b6d2fc2-6e25-4c0a-b4cb-3ca7f85be9b4"}},{"fullUrl":"https://madie.cms.gov/Encounter/d40b21c9-2df2-4eed-9688-89dee8d7abe0","resource":{"resourceType":"Encounter","id":"d40b21c9-2df2-4eed-9688-89dee8d7abe0","meta":{"profile":["http://hl7.org/fhir/us/qicore/StructureDefinition/qicore-encounter"]},"status":"finished","class":{"system":"http://terminology.hl7.org/CodeSystem/v3-ActCode","code":"EMER","display":"emergency"},"type":[{"coding":[{"system":"http://snomed.info/sct","code":"4525004"}]}],"subject":{"reference":"Patient/9b6d2fc2-6e25-4c0a-b4cb-3ca7f85be9b4"},"period":{"start":"2026-10-31T04:00:00.000+00:00","end":"2026-11-01T05:15:00.000+00:00"},"length":{"value":1.0,"unit":"days"}},"request":{"method":"PUT","url":"Encounter/d40b21c9-2df2-4eed-9688-89dee8d7abe0"}},{"fullUrl":"https://madie.cms.gov/Encounter/381b4536-b4ec-4006-a0af-d176aedb6b17","resource":{"resourceType":"Encounter","id":"381b4536-b4ec-4006-a0af-d176aedb6b17","meta":{"profile":["http://hl7.org/fhir/us/qicore/StructureDefinition/qicore-encounter"]},"status":"finished","class":{"system":"http://terminology.hl7.org/CodeSystem/v3-ActCode","code":"IMP","display":"inpatient encounter"},"type":[{"coding":[{"system":"http://snomed.info/sct","code":"8715000"}]}],"subject":{"reference":"Patient/9b6d2fc2-6e25-4c0a-b4cb-3ca7f85be9b4"},"period":{"start":"2026-11-01T08:00:00.000+00:00","end":"2026-11-26T08:15:00.000+00:00"},"length":{"value":25.0,"unit":"days"}},"request":{"method":"PUT","url":"Encounter/381b4536-b4ec-4006-a0af-d176aedb6b17"}},{"fullUrl":"https://madie.cms.gov/Encounter/25a23106-1eaa-481b-971c-f51a633bb891","resource":{"resourceType":"Encounter","id":"25a23106-1eaa-481b-971c-f51a633bb891","meta":{"profile":["http://hl7.org/fhir/us/qicore/StructureDefinition/qicore-encounter"]},"status":"finished","class":{"system":"http://terminology.hl7.org/CodeSystem/v3-ActCode","code":"OBSENC","display":"observation encounter"},"type":[{"coding":[{"system":"http://snomed.info/sct","code":"448951000124107"}]}],"subject":{"reference":"Patient/9b6d2fc2-6e25-4c0a-b4cb-3ca7f85be9b4"},"period":{"start":"2026-11-01T05:20:00.000+00:00","end":"2026-11-01T06:30:00.000+00:00"}},"request":{"method":"PUT","url":"Encounter/25a23106-1eaa-481b-971c-f51a633bb891"}},{"fullUrl":"https://madie.cms.gov/Procedure/35f8cfcf-1d64-4e8f-8db7-c3df83c331b1","resource":{"resourceType":"Procedure","id":"35f8cfcf-1d64-4e8f-8db7-c3df83c331b1","meta":{"profile":["http://hl7.org/fhir/us/qicore/StructureDefinition/qicore-procedure"]},"extension":[{"url":"http://hl7.org/fhir/us/qicore/StructureDefinition/qicore-recorded","valueDateTime":"2013-12-04T13:35:00.000+00:00"}],"status":"in-progress","code":{"coding":[{"system":"http://snomed.info/sct","code":"133918004"}]},"subject":{"reference":"Patient/9b6d2fc2-6e25-4c0a-b4cb-3ca7f85be9b4"},"performedPeriod":{"start":"2026-10-31T06:00:00.000+00:00"}},"request":{"method":"PUT","url":"Procedure/35f8cfcf-1d64-4e8f-8db7-c3df83c331b1"}},{"fullUrl":"https://madie.cms.gov/Coverage/bb88bd91-62bd-4e77-9f49-36063ff5a72e","resource":{"resourceType":"Coverage","id":"bb88bd91-62bd-4e77-9f49-36063ff5a72e","status":"active","beneficiary":{"reference":"Patient/9b6d2fc2-6e25-4c0a-b4cb-3ca7f85be9b4"},"period":{"start":"1975-01-02T08:00:00.000+00:00"},"payor":[{"reference":"Organization/a038c06f-a7e3-47ae-8b9e-7f39d0d75a1a"}]},"request":{"method":"PUT","url":"Coverage/bb88bd91-62bd-4e77-9f49-36063ff5a72e"}},{"fullUrl":"https://madie.cms.gov/Organization/a038c06f-a7e3-47ae-8b9e-7f39d0d75a1a","resource":{"resourceType":"Organization","id":"a038c06f-a7e3-47ae-8b9e-7f39d0d75a1a","meta":{"profile":["http://hl7.org/fhir/us/qicore/StructureDefinition/qicore-organization"]},"identifier":[{"use":"temp","system":"urn:oid:2.16.840.1.113883.4.4","value":"21-3259825"}],"active":true,"type":[{"coding":[{"system":"http://terminology.hl7.org/CodeSystem/organization-type","code":"pay","display":"Payer"}]}],"name":"Blue Cross Blue Shield of Texas","telecom":[{"system":"phone","value":"(+1) 972-766-6900"}],"address":[{"use":"billing","type":"postal","line":["P.O. Box 660044"],"city":"Dallas","state":"TX","postalCode":"75266-0044","country":"USA"}]},"request":{"method":"PUT","url":"Organization/a038c06f-a7e3-47ae-8b9e-7f39d0d75a1a"}},{"fullUrl":"https://madie.cms.gov/Practitioner/7e3b726b-d0b7-49cd-b6f0-37e3cedd4784","resource":{"resourceType":"Practitioner","id":"7e3b726b-d0b7-49cd-b6f0-37e3cedd4784","identifier":[{"system":"http://hl7.org/fhir/sid/us-npi","value":"123456"}],"name":[{"family":"Evil","prefix":["Dr"]}]},"request":{"method":"PUT","url":"Practitioner/7e3b726b-d0b7-49cd-b6f0-37e3cedd4784"}},{"fullUrl":"https://madie.cms.gov/MeasureReport/54150a6c-4152-4210-8be9-6278362eb698","resource":{"resourceType":"MeasureReport","id":"54150a6c-4152-4210-8be9-6278362eb698","meta":{"profile":["http://hl7.org/fhir/us/cqfmeasures/StructureDefinition/test-case-cqfm"]},"contained":[{"resourceType":"Parameters","id":"53459ad5-fe2e-4094-8ed5-8fb13e341c5d-parameters","parameter":[{"name":"subject","valueString":"9b6d2fc2-6e25-4c0a-b4cb-3ca7f85be9b4"}]}],"extension":[{"url":"http://hl7.org/fhir/StructureDefinition/cqf-inputParameters","valueReference":{"reference":"#53459ad5-fe2e-4094-8ed5-8fb13e341c5d-parameters"}},{"url":"http://hl7.org/fhir/us/cqfmeasures/StructureDefinition/cqfm-testCaseDescription","valueMarkdown":"comfort measures performed in Observation, and Obs > 1hr prior to Adm. This case fails because CMO is 1 day before Adm.\n"}],"modifierExtension":[{"url":"http://hl7.org/fhir/us/cqfmeasures/StructureDefinition/cqfm-isTestCase","valueBoolean":true}],"status":"complete","type":"individual","measure":"https://madie.cms.gov/Measure/CMS108FHIRVTEProphylaxis","period":{"start":"2026-01-01","end":"2026-12-31"},"group":[{"id":"Group_1","population":[{"id":"InitialPopulation_1","code":{"coding":[{"system":"http://terminology.hl7.org/CodeSystem/measure-population","code":"initial-population","display":"Initial Population"}]},"count":1},{"id":"Denominator_1","code":{"coding":[{"system":"http://terminology.hl7.org/CodeSystem/measure-population","code":"denominator","display":"Denominator"}]},"count":1},{"id":"DenominatorExclusion_1","code":{"coding":[{"system":"http://terminology.hl7.org/CodeSystem/measure-population","code":"denominator-exclusion","display":"Denominator Exclusion"}]},"count":0},{"id":"Numerator_1","code":{"coding":[{"system":"http://terminology.hl7.org/CodeSystem/measure-population","code":"numerator","display":"Numerator"}]},"count":0}],"measureScore":{"value":0.0}}],"evaluatedResource":[{"reference":"Patient/9b6d2fc2-6e25-4c0a-b4cb-3ca7f85be9b4"},{"reference":"Encounter/d40b21c9-2df2-4eed-9688-89dee8d7abe0"},{"reference":"Encounter/381b4536-b4ec-4006-a0af-d176aedb6b17"},{"reference":"Encounter/25a23106-1eaa-481b-971c-f51a633bb891"},{"reference":"Procedure/35f8cfcf-1d64-4e8f-8db7-c3df83c331b1"},{"reference":"Coverage/bb88bd91-62bd-4e77-9f49-36063ff5a72e"},{"reference":"Organization/a038c06f-a7e3-47ae-8b9e-7f39d0d75a1a"},{"reference":"Practitioner/7e3b726b-d0b7-49cd-b6f0-37e3cedd4784"}]},"request":{"method":"PUT","url":"MeasureReport/54150a6c-4152-4210-8be9-6278362eb698"}}]}