{"resourceType":"Bundle","id":"tests-3c8c427a-d756-456a-8f4e-e909b364e4fb-bundle","type":"transaction","entry":[{"fullUrl":"https://madie.cms.gov/Patient/3c8c427a-d756-456a-8f4e-e909b364e4fb","resource":{"resourceType":"Patient","id":"3c8c427a-d756-456a-8f4e-e909b364e4fb","meta":{"profile":["http://hl7.org/fhir/us/qicore/StructureDefinition/qicore-patient"]},"text":{"status":"generated","div":"<div xmlns=\"http://www.w3.org/1999/xhtml\"><div class=\"hapiHeaderText\">MA_OralXaOnDayAFAnes_MedAdmDT <b>NUMERPASS </b></div><table class=\"hapiPropertyTable\"><tbody><tr><td>Identifier</td><td>a47c3099d7a3ac0ff12b569e6d2221d4</td></tr><tr><td>Date of birth</td><td><span>02 January 1974</span></td></tr></tbody></table></div>"},"extension":[{"url":"http://hl7.org/fhir/us/core/StructureDefinition/us-core-race","extension":[{"url":"ombCategory","valueCoding":{"system":"urn:oid:2.16.840.1.113883.6.238","code":"1002-5","display":"American Indian or Alaska Native","userSelected":true}},{"url":"text","valueString":"American Indian or Alaska Native"}]},{"url":"http://hl7.org/fhir/us/core/StructureDefinition/us-core-ethnicity","extension":[{"url":"ombCategory","valueCoding":{"system":"urn:oid:2.16.840.1.113883.6.238","code":"2135-2","display":"Hispanic or Latino","userSelected":true}},{"url":"text","valueString":"Hispanic or Latino"}]}],"identifier":[{"type":{"coding":[{"system":"http://terminology.hl7.org/CodeSystem/v2-0203","code":"MR"}]},"system":"https://bonnie-fhir.healthit.gov/","value":"612e6a6302c62a011f2e9eca"}],"active":true,"name":[{"use":"usual","family":"NUMERPass","given":["MAOralXaOnDayAFAnesMedAdmDT"]}],"gender":"male","birthDate":"1975-01-02"},"request":{"method":"PUT","url":"Patient/3c8c427a-d756-456a-8f4e-e909b364e4fb"}},{"fullUrl":"https://madie.cms.gov/Encounter/4616da42-8f76-4626-b8c6-f8655697aba2","resource":{"resourceType":"Encounter","id":"4616da42-8f76-4626-b8c6-f8655697aba2","meta":{"profile":["http://hl7.org/fhir/us/qicore/StructureDefinition/qicore-encounter"]},"status":"finished","class":{"system":"http://terminology.hl7.org/CodeSystem/v3-ActCode","code":"IMP","display":"inpatient encounter"},"type":[{"coding":[{"system":"http://snomed.info/sct","code":"8715000"}]}],"subject":{"reference":"Patient/3c8c427a-d756-456a-8f4e-e909b364e4fb"},"period":{"start":"2026-11-01T08:00:00.000+00:00","end":"2026-11-26T08:15:00.000+00:00"},"length":{"value":25,"unit":"days"}},"request":{"method":"PUT","url":"Encounter/4616da42-8f76-4626-b8c6-f8655697aba2"}},{"fullUrl":"https://madie.cms.gov/Coverage/39664a5d-b73d-46b4-96a4-07e2e63e72eb","resource":{"resourceType":"Coverage","id":"39664a5d-b73d-46b4-96a4-07e2e63e72eb","status":"active","beneficiary":{"reference":"Patient/3c8c427a-d756-456a-8f4e-e909b364e4fb"},"period":{"start":"1975-01-02T08:00:00.000+00:00"},"payor":[{"reference":"Organization/e1711fc9-f05e-4db1-a5e6-dd023f917c6d"}]},"request":{"method":"PUT","url":"Coverage/39664a5d-b73d-46b4-96a4-07e2e63e72eb"}},{"fullUrl":"https://madie.cms.gov/Condition/7d4ea483-df18-46f4-8c69-3aa6fd82cf4e","resource":{"resourceType":"Condition","id":"7d4ea483-df18-46f4-8c69-3aa6fd82cf4e","meta":{"profile":["http://hl7.org/fhir/us/qicore/StructureDefinition/qicore-condition-problems-health-concerns"]},"clinicalStatus":{"coding":[{"system":"http://terminology.hl7.org/CodeSystem/condition-clinical","code":"active","display":"active","userSelected":true}]},"verificationStatus":{"coding":[{"system":"http://terminology.hl7.org/CodeSystem/condition-ver-status","code":"confirmed","display":"confirmed","userSelected":true}]},"category":[{"coding":[{"system":"http://terminology.hl7.org/CodeSystem/condition-category","code":"problem-list-item","display":"Problem List Item"}]}],"code":{"coding":[{"system":"http://hl7.org/fhir/sid/icd-9-cm","code":"427.31"},{"system":"http://hl7.org/fhir/sid/icd-10-cm","code":"I48.0"},{"system":"http://snomed.info/sct","code":"5370000"}]},"subject":{"reference":"Patient/3c8c427a-d756-456a-8f4e-e909b364e4fb"},"onsetPeriod":{"start":"2026-10-09T08:00:00.000+00:00","end":"2026-10-09T08:15:00.000+00:00"}},"request":{"method":"PUT","url":"Condition/7d4ea483-df18-46f4-8c69-3aa6fd82cf4e"}},{"fullUrl":"https://madie.cms.gov/MedicationAdministration/56e948ea-d7da-416c-af29-b3f54096cae5","resource":{"resourceType":"MedicationAdministration","id":"56e948ea-d7da-416c-af29-b3f54096cae5","meta":{"profile":["http://hl7.org/fhir/us/qicore/StructureDefinition/qicore-medicationadministration"]},"status":"completed","medicationCodeableConcept":{"coding":[{"system":"http://www.nlm.nih.gov/research/umls/rxnorm","code":"1992427","display":"{74 (apixaban 5 MG Oral Tablet) } Pack"}]},"subject":{"reference":"Patient/3c8c427a-d756-456a-8f4e-e909b364e4fb"},"effectiveDateTime":"2026-11-03T11:00:00.000+00:00"},"request":{"method":"PUT","url":"MedicationAdministration/56e948ea-d7da-416c-af29-b3f54096cae5"}},{"fullUrl":"https://madie.cms.gov/Procedure/ce1d1331-82ca-4f08-a5b2-53fa6dcd73a2","resource":{"resourceType":"Procedure","id":"ce1d1331-82ca-4f08-a5b2-53fa6dcd73a2","meta":{"profile":["http://hl7.org/fhir/us/qicore/StructureDefinition/qicore-procedure"]},"extension":[{"url":"http://hl7.org/fhir/us/qicore/StructureDefinition/qicore-recorded","valueDateTime":"2013-11-19T13:35:00.000+00:00"}],"status":"completed","code":{"coding":[{"system":"http://www.cms.gov/Medicare/Coding/ICD10","code":"3E030FZ"}]},"subject":{"reference":"Patient/3c8c427a-d756-456a-8f4e-e909b364e4fb"},"performedPeriod":{"start":"2026-11-02T09:00:00.000+00:00","end":"2026-11-02T09:15:00.000+00:00"}},"request":{"method":"PUT","url":"Procedure/ce1d1331-82ca-4f08-a5b2-53fa6dcd73a2"}},{"fullUrl":"https://madie.cms.gov/Organization/e1711fc9-f05e-4db1-a5e6-dd023f917c6d","resource":{"resourceType":"Organization","id":"e1711fc9-f05e-4db1-a5e6-dd023f917c6d","meta":{"profile":["http://hl7.org/fhir/us/qicore/StructureDefinition/qicore-organization"]},"identifier":[{"use":"temp","system":"urn:oid:2.16.840.1.113883.4.4","value":"21-3259825"}],"active":true,"type":[{"coding":[{"system":"http://terminology.hl7.org/CodeSystem/organization-type","code":"pay","display":"Payer"}]}],"name":"Blue Cross Blue Shield of Texas","telecom":[{"system":"phone","value":"(+1) 972-766-6900"}],"address":[{"use":"billing","type":"postal","line":["P.O. Box 660044"],"city":"Dallas","state":"TX","postalCode":"75266-0044","country":"USA"}]},"request":{"method":"PUT","url":"Organization/e1711fc9-f05e-4db1-a5e6-dd023f917c6d"}},{"fullUrl":"https://madie.cms.gov/Practitioner/e7a3be48-8a23-434e-8910-106f82720c50","resource":{"resourceType":"Practitioner","id":"e7a3be48-8a23-434e-8910-106f82720c50","identifier":[{"system":"http://hl7.org/fhir/sid/us-npi","value":"123456"}],"name":[{"family":"Evil","prefix":["Dr"]}]},"request":{"method":"PUT","url":"Practitioner/e7a3be48-8a23-434e-8910-106f82720c50"}},{"fullUrl":"https://madie.cms.gov/MeasureReport/a6735623-86e5-4fe8-9b64-44983458e3ec","resource":{"resourceType":"MeasureReport","id":"a6735623-86e5-4fe8-9b64-44983458e3ec","meta":{"profile":["http://hl7.org/fhir/us/cqfmeasures/StructureDefinition/test-case-cqfm"]},"contained":[{"resourceType":"Parameters","id":"69da5cb6-faab-43f9-a317-3167a5fbf5ab-parameters","parameter":[{"name":"subject","valueString":"3c8c427a-d756-456a-8f4e-e909b364e4fb"}]}],"extension":[{"url":"http://hl7.org/fhir/StructureDefinition/cqf-inputParameters","valueReference":{"reference":"#69da5cb6-faab-43f9-a317-3167a5fbf5ab-parameters"}},{"url":"http://hl7.org/fhir/us/cqfmeasures/StructureDefinition/cqfm-testCaseDescription","valueMarkdown":"oral factor Xa administered =0 day after end of anesthesia with MedicationAdm. effectiveDateTime\n"}],"modifierExtension":[{"url":"http://hl7.org/fhir/us/cqfmeasures/StructureDefinition/cqfm-isTestCase","valueBoolean":true}],"status":"complete","type":"individual","measure":"https://madie.cms.gov/Measure/CMS108FHIRVTEProphylaxis","period":{"start":"2026-01-01","end":"2026-12-31"},"group":[{"id":"Group_1","population":[{"id":"InitialPopulation_1","code":{"coding":[{"system":"http://terminology.hl7.org/CodeSystem/measure-population","code":"initial-population","display":"Initial Population"}]},"count":1},{"id":"Denominator_1","code":{"coding":[{"system":"http://terminology.hl7.org/CodeSystem/measure-population","code":"denominator","display":"Denominator"}]},"count":1},{"id":"DenominatorExclusion_1","code":{"coding":[{"system":"http://terminology.hl7.org/CodeSystem/measure-population","code":"denominator-exclusion","display":"Denominator Exclusion"}]},"count":0},{"id":"Numerator_1","code":{"coding":[{"system":"http://terminology.hl7.org/CodeSystem/measure-population","code":"numerator","display":"Numerator"}]},"count":1}],"measureScore":{"value":0.0}}],"evaluatedResource":[{"reference":"Patient/3c8c427a-d756-456a-8f4e-e909b364e4fb"},{"reference":"Encounter/4616da42-8f76-4626-b8c6-f8655697aba2"},{"reference":"Coverage/39664a5d-b73d-46b4-96a4-07e2e63e72eb"},{"reference":"Condition/7d4ea483-df18-46f4-8c69-3aa6fd82cf4e"},{"reference":"MedicationAdministration/56e948ea-d7da-416c-af29-b3f54096cae5"},{"reference":"Procedure/ce1d1331-82ca-4f08-a5b2-53fa6dcd73a2"},{"reference":"Organization/e1711fc9-f05e-4db1-a5e6-dd023f917c6d"},{"reference":"Practitioner/e7a3be48-8a23-434e-8910-106f82720c50"}]},"request":{"method":"PUT","url":"MeasureReport/a6735623-86e5-4fe8-9b64-44983458e3ec"}}]}