{"resourceType":"Bundle","id":"tests-b621464f-6e8d-4a28-b5a9-ec0178cf33ae-bundle","type":"transaction","entry":[{"fullUrl":"https://madie.cms.gov/Patient/b621464f-6e8d-4a28-b5a9-ec0178cf33ae","resource":{"resourceType":"Patient","id":"b621464f-6e8d-4a28-b5a9-ec0178cf33ae","meta":{"profile":["http://hl7.org/fhir/us/qicore/StructureDefinition/qicore-patient"]},"text":{"status":"generated","div":"<div xmlns=\"http://www.w3.org/1999/xhtml\"><div class=\"hapiHeaderText\">DA_GCS_OnAnesEndTime_EncStartTime <b>NUMERPASS </b></div><table class=\"hapiPropertyTable\"><tbody><tr><td>Identifier</td><td>1f0dc9e293f324a804fb829ef6a3a35d</td></tr><tr><td>Date of birth</td><td><span>02 January 1974</span></td></tr></tbody></table></div>"},"extension":[{"url":"http://hl7.org/fhir/us/core/StructureDefinition/us-core-race","extension":[{"url":"ombCategory","valueCoding":{"system":"urn:oid:2.16.840.1.113883.6.238","code":"1002-5","display":"American Indian or Alaska Native","userSelected":true}},{"url":"text","valueString":"American Indian or Alaska Native"}]},{"url":"http://hl7.org/fhir/us/core/StructureDefinition/us-core-ethnicity","extension":[{"url":"ombCategory","valueCoding":{"system":"urn:oid:2.16.840.1.113883.6.238","code":"2135-2","display":"Hispanic or Latino","userSelected":true}},{"url":"text","valueString":"Hispanic or Latino"}]}],"identifier":[{"type":{"coding":[{"system":"http://terminology.hl7.org/CodeSystem/v2-0203","code":"MR"}]},"system":"https://bonnie-fhir.healthit.gov/","value":"612e6ad302c62a011f2eb5b5"}],"active":true,"name":[{"use":"usual","family":"NUMERPass","given":["DAGCSOnAnesEndTimeEncStartTime"]}],"gender":"male","birthDate":"1975-01-02"},"request":{"method":"PUT","url":"Patient/b621464f-6e8d-4a28-b5a9-ec0178cf33ae"}},{"fullUrl":"https://madie.cms.gov/Encounter/73e0be7f-9e03-4afe-b716-a6f7eed71738","resource":{"resourceType":"Encounter","id":"73e0be7f-9e03-4afe-b716-a6f7eed71738","meta":{"profile":["http://hl7.org/fhir/us/qicore/StructureDefinition/qicore-encounter"]},"status":"finished","class":{"system":"http://terminology.hl7.org/CodeSystem/v3-ActCode","code":"IMP","display":"inpatient encounter"},"type":[{"coding":[{"system":"http://snomed.info/sct","code":"8715000"}]}],"subject":{"reference":"Patient/b621464f-6e8d-4a28-b5a9-ec0178cf33ae"},"period":{"start":"2026-11-01T09:15:00.000+00:00","end":"2026-11-26T08:15:00.000+00:00"},"length":{"value":25,"unit":"days"}},"request":{"method":"PUT","url":"Encounter/73e0be7f-9e03-4afe-b716-a6f7eed71738"}},{"fullUrl":"https://madie.cms.gov/Coverage/6a1ef6d9-4d31-4071-83f0-e02c7af941e3","resource":{"resourceType":"Coverage","id":"6a1ef6d9-4d31-4071-83f0-e02c7af941e3","status":"active","beneficiary":{"reference":"Patient/b621464f-6e8d-4a28-b5a9-ec0178cf33ae"},"period":{"start":"1975-01-02T08:00:00.000+00:00"},"payor":[{"reference":"Organization/7078fc41-60de-4146-bbf2-295540866ffa"}]},"request":{"method":"PUT","url":"Coverage/6a1ef6d9-4d31-4071-83f0-e02c7af941e3"}},{"fullUrl":"https://madie.cms.gov/Procedure/f0561aa0-1c99-47b0-92a3-2b33adda47ef","resource":{"resourceType":"Procedure","id":"f0561aa0-1c99-47b0-92a3-2b33adda47ef","meta":{"profile":["http://hl7.org/fhir/us/qicore/StructureDefinition/qicore-procedure"]},"extension":[{"url":"http://hl7.org/fhir/us/qicore/StructureDefinition/qicore-recorded","valueDateTime":"2013-11-01T13:35:00.000+00:00"}],"status":"completed","code":{"coding":[{"system":"http://snomed.info/sct","code":"18946005"}]},"subject":{"reference":"Patient/b621464f-6e8d-4a28-b5a9-ec0178cf33ae"},"performedPeriod":{"start":"2026-11-01T09:00:00.000+00:00","end":"2026-11-01T09:15:00.000+00:00"}},"request":{"method":"PUT","url":"Procedure/f0561aa0-1c99-47b0-92a3-2b33adda47ef"}},{"fullUrl":"https://madie.cms.gov/Procedure/1da363eb-d4ef-4182-9367-48b0e0010ce8","resource":{"resourceType":"Procedure","id":"1da363eb-d4ef-4182-9367-48b0e0010ce8","meta":{"profile":["http://hl7.org/fhir/us/qicore/StructureDefinition/qicore-procedure"]},"extension":[{"url":"http://hl7.org/fhir/us/qicore/StructureDefinition/qicore-recorded","valueDateTime":"2013-11-01T13:35:00.000+00:00"}],"status":"completed","code":{"coding":[{"system":"http://snomed.info/sct","code":"229511001","display":"Application of graduated compression garment (procedure)","userSelected":true}]},"subject":{"reference":"Patient/b621464f-6e8d-4a28-b5a9-ec0178cf33ae"},"performedDateTime":"2026-11-01T09:15:00.000+00:00"},"request":{"method":"PUT","url":"Procedure/1da363eb-d4ef-4182-9367-48b0e0010ce8"}},{"fullUrl":"https://madie.cms.gov/Organization/7078fc41-60de-4146-bbf2-295540866ffa","resource":{"resourceType":"Organization","id":"7078fc41-60de-4146-bbf2-295540866ffa","meta":{"profile":["http://hl7.org/fhir/us/qicore/StructureDefinition/qicore-organization"]},"identifier":[{"use":"temp","system":"urn:oid:2.16.840.1.113883.4.4","value":"21-3259825"}],"active":true,"type":[{"coding":[{"system":"http://terminology.hl7.org/CodeSystem/organization-type","code":"pay","display":"Payer"}]}],"name":"Blue Cross Blue Shield of Texas","telecom":[{"system":"phone","value":"(+1) 972-766-6900"}],"address":[{"use":"billing","type":"postal","line":["P.O. Box 660044"],"city":"Dallas","state":"TX","postalCode":"75266-0044","country":"USA"}]},"request":{"method":"PUT","url":"Organization/7078fc41-60de-4146-bbf2-295540866ffa"}},{"fullUrl":"https://madie.cms.gov/Practitioner/44c1a440-f8e8-4508-b014-ffb94bc3a53a","resource":{"resourceType":"Practitioner","id":"44c1a440-f8e8-4508-b014-ffb94bc3a53a","identifier":[{"system":"http://hl7.org/fhir/sid/us-npi","value":"123456"}],"name":[{"family":"Evil","prefix":["Dr"]}]},"request":{"method":"PUT","url":"Practitioner/44c1a440-f8e8-4508-b014-ffb94bc3a53a"}},{"fullUrl":"https://madie.cms.gov/MeasureReport/ad682b3a-09cf-427f-986c-b7d16817cfd4","resource":{"resourceType":"MeasureReport","id":"ad682b3a-09cf-427f-986c-b7d16817cfd4","meta":{"profile":["http://hl7.org/fhir/us/cqfmeasures/StructureDefinition/test-case-cqfm"]},"contained":[{"resourceType":"Parameters","id":"adb789eb-804a-4bca-aefc-dc536269ccbe-parameters","parameter":[{"name":"subject","valueString":"b621464f-6e8d-4a28-b5a9-ec0178cf33ae"}]}],"extension":[{"url":"http://hl7.org/fhir/StructureDefinition/cqf-inputParameters","valueReference":{"reference":"#adb789eb-804a-4bca-aefc-dc536269ccbe-parameters"}},{"url":"http://hl7.org/fhir/us/cqfmeasures/StructureDefinition/cqfm-testCaseDescription","valueMarkdown":"GCS applied concurrent with end of anesthesia, with end of anesthesia concurrent with start of IP Encounter\n"}],"modifierExtension":[{"url":"http://hl7.org/fhir/us/cqfmeasures/StructureDefinition/cqfm-isTestCase","valueBoolean":true}],"status":"complete","type":"individual","measure":"https://madie.cms.gov/Measure/CMS108FHIRVTEProphylaxis","period":{"start":"2026-01-01","end":"2026-12-31"},"group":[{"id":"Group_1","population":[{"id":"InitialPopulation_1","code":{"coding":[{"system":"http://terminology.hl7.org/CodeSystem/measure-population","code":"initial-population","display":"Initial Population"}]},"count":1},{"id":"Denominator_1","code":{"coding":[{"system":"http://terminology.hl7.org/CodeSystem/measure-population","code":"denominator","display":"Denominator"}]},"count":1},{"id":"DenominatorExclusion_1","code":{"coding":[{"system":"http://terminology.hl7.org/CodeSystem/measure-population","code":"denominator-exclusion","display":"Denominator Exclusion"}]},"count":0},{"id":"Numerator_1","code":{"coding":[{"system":"http://terminology.hl7.org/CodeSystem/measure-population","code":"numerator","display":"Numerator"}]},"count":1}],"measureScore":{"value":0.0}}],"evaluatedResource":[{"reference":"Patient/b621464f-6e8d-4a28-b5a9-ec0178cf33ae"},{"reference":"Encounter/73e0be7f-9e03-4afe-b716-a6f7eed71738"},{"reference":"Coverage/6a1ef6d9-4d31-4071-83f0-e02c7af941e3"},{"reference":"Procedure/f0561aa0-1c99-47b0-92a3-2b33adda47ef"},{"reference":"Procedure/1da363eb-d4ef-4182-9367-48b0e0010ce8"},{"reference":"Organization/7078fc41-60de-4146-bbf2-295540866ffa"},{"reference":"Practitioner/44c1a440-f8e8-4508-b014-ffb94bc3a53a"}]},"request":{"method":"PUT","url":"MeasureReport/ad682b3a-09cf-427f-986c-b7d16817cfd4"}}]}