{"resourceType":"Bundle","id":"tests-4fe13533-3514-48d8-aba0-a7c790e796cc-bundle","type":"transaction","entry":[{"fullUrl":"https://madie.cms.gov/Patient/4fe13533-3514-48d8-aba0-a7c790e796cc","resource":{"resourceType":"Patient","id":"4fe13533-3514-48d8-aba0-a7c790e796cc","meta":{"profile":["http://hl7.org/fhir/us/qicore/StructureDefinition/qicore-patient"]},"text":{"status":"generated","div":"<div xmlns=\"http://www.w3.org/1999/xhtml\"><div class=\"hapiHeaderText\">MA_Glyco1DayAfterAnes <b>NUMERPASS </b></div><table class=\"hapiPropertyTable\"><tbody><tr><td>Identifier</td><td>66d2578ee9fbf1a6dd6e4e6d73908c98</td></tr><tr><td>Date of birth</td><td><span>02 January 1974</span></td></tr></tbody></table></div>"},"extension":[{"url":"http://hl7.org/fhir/us/core/StructureDefinition/us-core-race","extension":[{"url":"ombCategory","valueCoding":{"system":"urn:oid:2.16.840.1.113883.6.238","code":"1002-5","display":"American Indian or Alaska Native","userSelected":true}},{"url":"text","valueString":"American Indian or Alaska Native"}]},{"url":"http://hl7.org/fhir/us/core/StructureDefinition/us-core-ethnicity","extension":[{"url":"ombCategory","valueCoding":{"system":"urn:oid:2.16.840.1.113883.6.238","code":"2135-2","display":"Hispanic or Latino","userSelected":true}},{"url":"text","valueString":"Hispanic or Latino"}]}],"identifier":[{"type":{"coding":[{"system":"http://terminology.hl7.org/CodeSystem/v2-0203","code":"MR"}]},"system":"https://bonnie-fhir.healthit.gov/","value":"612e6a9c02c62a011f2ea93c"}],"active":true,"name":[{"use":"usual","family":"NUMERPass","given":["MAGlyco1DayAfterAnes"]}],"gender":"male","birthDate":"1975-01-02"},"request":{"method":"PUT","url":"Patient/4fe13533-3514-48d8-aba0-a7c790e796cc"}},{"fullUrl":"https://madie.cms.gov/Encounter/c042c330-e39a-4309-93ed-1879e5a53616","resource":{"resourceType":"Encounter","id":"c042c330-e39a-4309-93ed-1879e5a53616","meta":{"profile":["http://hl7.org/fhir/us/qicore/StructureDefinition/qicore-encounter"]},"status":"finished","class":{"system":"http://terminology.hl7.org/CodeSystem/v3-ActCode","code":"IMP","display":"inpatient encounter"},"type":[{"coding":[{"system":"http://snomed.info/sct","code":"8715000"}]}],"subject":{"reference":"Patient/4fe13533-3514-48d8-aba0-a7c790e796cc"},"period":{"start":"2026-11-01T08:00:00.000+00:00","end":"2026-11-26T08:15:00.000+00:00"},"length":{"value":25,"unit":"days"}},"request":{"method":"PUT","url":"Encounter/c042c330-e39a-4309-93ed-1879e5a53616"}},{"fullUrl":"https://madie.cms.gov/Coverage/00a25aa7-bf59-44e9-845a-639d509cd0b7","resource":{"resourceType":"Coverage","id":"00a25aa7-bf59-44e9-845a-639d509cd0b7","status":"active","beneficiary":{"reference":"Patient/4fe13533-3514-48d8-aba0-a7c790e796cc"},"period":{"start":"1975-01-02T08:00:00.000+00:00"},"payor":[{"reference":"Organization/77b304d0-88bb-4823-8a6c-da182dc0d675"}]},"request":{"method":"PUT","url":"Coverage/00a25aa7-bf59-44e9-845a-639d509cd0b7"}},{"fullUrl":"https://madie.cms.gov/MedicationAdministration/a3e22df0-28a0-4bbb-9a83-4b4544b356b6","resource":{"resourceType":"MedicationAdministration","id":"a3e22df0-28a0-4bbb-9a83-4b4544b356b6","meta":{"profile":["http://hl7.org/fhir/us/qicore/StructureDefinition/qicore-medicationadministration"]},"status":"completed","medicationCodeableConcept":{"coding":[{"system":"http://www.nlm.nih.gov/research/umls/rxnorm","code":"200349"}]},"subject":{"reference":"Patient/4fe13533-3514-48d8-aba0-a7c790e796cc"},"effectivePeriod":{"start":"2026-11-03T11:00:00.000+00:00","end":"2026-11-03T11:15:00.000+00:00"}},"request":{"method":"PUT","url":"MedicationAdministration/a3e22df0-28a0-4bbb-9a83-4b4544b356b6"}},{"fullUrl":"https://madie.cms.gov/Procedure/d0049094-42cf-4098-bb1f-58160e3f4c83","resource":{"resourceType":"Procedure","id":"d0049094-42cf-4098-bb1f-58160e3f4c83","meta":{"profile":["http://hl7.org/fhir/us/qicore/StructureDefinition/qicore-procedure"]},"extension":[{"url":"http://hl7.org/fhir/us/qicore/StructureDefinition/qicore-recorded","valueDateTime":"2013-11-03T13:35:00.000+00:00"}],"status":"completed","code":{"coding":[{"system":"http://www.cms.gov/Medicare/Coding/ICD10","code":"3E030FZ"},{"system":"http://snomed.info/sct","code":"18946005"}]},"subject":{"reference":"Patient/4fe13533-3514-48d8-aba0-a7c790e796cc"},"performedPeriod":{"start":"2026-11-02T09:00:00.000+00:00","end":"2026-11-02T10:15:00.000+00:00"}},"request":{"method":"PUT","url":"Procedure/d0049094-42cf-4098-bb1f-58160e3f4c83"}},{"fullUrl":"https://madie.cms.gov/Organization/77b304d0-88bb-4823-8a6c-da182dc0d675","resource":{"resourceType":"Organization","id":"77b304d0-88bb-4823-8a6c-da182dc0d675","meta":{"profile":["http://hl7.org/fhir/us/qicore/StructureDefinition/qicore-organization"]},"identifier":[{"use":"temp","system":"urn:oid:2.16.840.1.113883.4.4","value":"21-3259825"}],"active":true,"type":[{"coding":[{"system":"http://terminology.hl7.org/CodeSystem/organization-type","code":"pay","display":"Payer"}]}],"name":"Blue Cross Blue Shield of Texas","telecom":[{"system":"phone","value":"(+1) 972-766-6900"}],"address":[{"use":"billing","type":"postal","line":["P.O. Box 660044"],"city":"Dallas","state":"TX","postalCode":"75266-0044","country":"USA"}]},"request":{"method":"PUT","url":"Organization/77b304d0-88bb-4823-8a6c-da182dc0d675"}},{"fullUrl":"https://madie.cms.gov/Practitioner/6dd2c603-8449-42a0-88f8-319b1b10a437","resource":{"resourceType":"Practitioner","id":"6dd2c603-8449-42a0-88f8-319b1b10a437","identifier":[{"system":"http://hl7.org/fhir/sid/us-npi","value":"123456"}],"name":[{"family":"Evil","prefix":["Dr"]}]},"request":{"method":"PUT","url":"Practitioner/6dd2c603-8449-42a0-88f8-319b1b10a437"}},{"fullUrl":"https://madie.cms.gov/MeasureReport/8f9e76f9-7d9a-4c12-948e-ee7fff66f3b5","resource":{"resourceType":"MeasureReport","id":"8f9e76f9-7d9a-4c12-948e-ee7fff66f3b5","meta":{"profile":["http://hl7.org/fhir/us/cqfmeasures/StructureDefinition/test-case-cqfm"]},"contained":[{"resourceType":"Parameters","id":"2b688d27-9775-4d0a-b24a-0930b1352e8d-parameters","parameter":[{"name":"subject","valueString":"4fe13533-3514-48d8-aba0-a7c790e796cc"}]}],"extension":[{"url":"http://hl7.org/fhir/StructureDefinition/cqf-inputParameters","valueReference":{"reference":"#2b688d27-9775-4d0a-b24a-0930b1352e8d-parameters"}},{"url":"http://hl7.org/fhir/us/cqfmeasures/StructureDefinition/cqfm-testCaseDescription","valueMarkdown":"Glycoprotein IIb/IIIa Inhibitors administered = 1 day after end of anesthesia\n"}],"modifierExtension":[{"url":"http://hl7.org/fhir/us/cqfmeasures/StructureDefinition/cqfm-isTestCase","valueBoolean":true}],"status":"complete","type":"individual","measure":"https://madie.cms.gov/Measure/CMS108FHIRVTEProphylaxis","period":{"start":"2026-01-01","end":"2026-12-31"},"group":[{"id":"Group_1","population":[{"id":"InitialPopulation_1","code":{"coding":[{"system":"http://terminology.hl7.org/CodeSystem/measure-population","code":"initial-population","display":"Initial Population"}]},"count":1},{"id":"Denominator_1","code":{"coding":[{"system":"http://terminology.hl7.org/CodeSystem/measure-population","code":"denominator","display":"Denominator"}]},"count":1},{"id":"DenominatorExclusion_1","code":{"coding":[{"system":"http://terminology.hl7.org/CodeSystem/measure-population","code":"denominator-exclusion","display":"Denominator Exclusion"}]},"count":0},{"id":"Numerator_1","code":{"coding":[{"system":"http://terminology.hl7.org/CodeSystem/measure-population","code":"numerator","display":"Numerator"}]},"count":1}],"measureScore":{"value":0.0}}],"evaluatedResource":[{"reference":"Patient/4fe13533-3514-48d8-aba0-a7c790e796cc"},{"reference":"Encounter/c042c330-e39a-4309-93ed-1879e5a53616"},{"reference":"Coverage/00a25aa7-bf59-44e9-845a-639d509cd0b7"},{"reference":"MedicationAdministration/a3e22df0-28a0-4bbb-9a83-4b4544b356b6"},{"reference":"Procedure/d0049094-42cf-4098-bb1f-58160e3f4c83"},{"reference":"Organization/77b304d0-88bb-4823-8a6c-da182dc0d675"},{"reference":"Practitioner/6dd2c603-8449-42a0-88f8-319b1b10a437"}]},"request":{"method":"PUT","url":"MeasureReport/8f9e76f9-7d9a-4c12-948e-ee7fff66f3b5"}}]}