{"resourceType":"Bundle","id":"tests-d9317b8a-ccf3-4fdb-bcee-da027b403708-bundle","type":"transaction","entry":[{"fullUrl":"https://madie.cms.gov/Patient/d9317b8a-ccf3-4fdb-bcee-da027b403708","resource":{"resourceType":"Patient","id":"d9317b8a-ccf3-4fdb-bcee-da027b403708","meta":{"profile":["http://hl7.org/fhir/us/qicore/StructureDefinition/qicore-patient"]},"text":{"status":"generated","div":"<div xmlns=\"http://www.w3.org/1999/xhtml\"><div class=\"hapiHeaderText\">CMO2DayAfterAnesthesia <b>DENEXFAIL </b></div><table class=\"hapiPropertyTable\"><tbody><tr><td>Identifier</td><td>eae8d1af3e172cab969568063cd70f67</td></tr><tr><td>Date of birth</td><td><span>02 January 1974</span></td></tr></tbody></table></div>"},"extension":[{"url":"http://hl7.org/fhir/us/core/StructureDefinition/us-core-race","extension":[{"url":"ombCategory","valueCoding":{"system":"urn:oid:2.16.840.1.113883.6.238","code":"1002-5","display":"American Indian or Alaska Native","userSelected":true}},{"url":"text","valueString":"American Indian or Alaska Native"}]},{"url":"http://hl7.org/fhir/us/core/StructureDefinition/us-core-ethnicity","extension":[{"url":"ombCategory","valueCoding":{"system":"urn:oid:2.16.840.1.113883.6.238","code":"2135-2","display":"Hispanic or Latino","userSelected":true}},{"url":"text","valueString":"Hispanic or Latino"}]}],"identifier":[{"type":{"coding":[{"system":"http://terminology.hl7.org/CodeSystem/v2-0203","code":"MR"}]},"system":"https://bonnie-fhir.healthit.gov/","value":"612e6ab402c62a011f2eb007"}],"active":true,"name":[{"use":"usual","family":"DENEXFail","given":["CMO2DayAfterAnesthesia"]}],"gender":"male","birthDate":"1975-01-02"},"request":{"method":"PUT","url":"Patient/d9317b8a-ccf3-4fdb-bcee-da027b403708"}},{"fullUrl":"https://madie.cms.gov/Encounter/1569d33a-9f15-4e8a-9304-32a233fb354f","resource":{"resourceType":"Encounter","id":"1569d33a-9f15-4e8a-9304-32a233fb354f","meta":{"profile":["http://hl7.org/fhir/us/qicore/StructureDefinition/qicore-encounter"]},"status":"finished","class":{"system":"http://terminology.hl7.org/CodeSystem/v3-ActCode","code":"IMP","display":"inpatient encounter"},"type":[{"coding":[{"system":"http://snomed.info/sct","code":"8715000"}]}],"subject":{"reference":"Patient/d9317b8a-ccf3-4fdb-bcee-da027b403708"},"period":{"start":"2026-11-01T08:00:00.000+00:00","end":"2026-11-26T08:15:00.000+00:00"},"length":{"value":25.0,"unit":"days"}},"request":{"method":"PUT","url":"Encounter/1569d33a-9f15-4e8a-9304-32a233fb354f"}},{"fullUrl":"https://madie.cms.gov/ServiceRequest/f8376a78-d4dd-433c-be53-f744c022903f","resource":{"resourceType":"ServiceRequest","id":"f8376a78-d4dd-433c-be53-f744c022903f","meta":{"profile":["http://hl7.org/fhir/us/qicore/StructureDefinition/qicore-servicerequest"]},"status":"active","intent":"order","code":{"coding":[{"system":"http://snomed.info/sct","code":"133918004"}]},"subject":{"reference":"Patient/d9317b8a-ccf3-4fdb-bcee-da027b403708"},"authoredOn":"2026-11-04T11:00:00.000+00:00"},"request":{"method":"PUT","url":"ServiceRequest/f8376a78-d4dd-433c-be53-f744c022903f"}},{"fullUrl":"https://madie.cms.gov/Coverage/a8438cd0-0d9c-48a3-b3bb-9c4650e535ac","resource":{"resourceType":"Coverage","id":"a8438cd0-0d9c-48a3-b3bb-9c4650e535ac","status":"active","beneficiary":{"reference":"Patient/d9317b8a-ccf3-4fdb-bcee-da027b403708"},"period":{"start":"1975-01-02T08:00:00.000+00:00"},"payor":[{"reference":"Organization/9698d963-b1d3-4361-90f5-9e16fc8df7ec"}]},"request":{"method":"PUT","url":"Coverage/a8438cd0-0d9c-48a3-b3bb-9c4650e535ac"}},{"fullUrl":"https://madie.cms.gov/Procedure/e81d4204-a4ac-44af-8854-e9ceee48b5ab","resource":{"resourceType":"Procedure","id":"e81d4204-a4ac-44af-8854-e9ceee48b5ab","meta":{"profile":["http://hl7.org/fhir/us/qicore/StructureDefinition/qicore-procedure"]},"extension":[{"url":"http://hl7.org/fhir/us/qicore/StructureDefinition/qicore-recorded","valueDateTime":"2013-12-04T13:35:00.000+00:00"}],"status":"completed","code":{"coding":[{"system":"http://www.icd10data.com/icd10pcs","code":"3E030FZ"},{"system":"http://snomed.info/sct","code":"18946005"}]},"subject":{"reference":"Patient/d9317b8a-ccf3-4fdb-bcee-da027b403708"},"performedPeriod":{"start":"2026-11-02T09:00:00.000+00:00","end":"2026-11-02T09:15:00.000+00:00"}},"request":{"method":"PUT","url":"Procedure/e81d4204-a4ac-44af-8854-e9ceee48b5ab"}},{"fullUrl":"https://madie.cms.gov/Organization/9698d963-b1d3-4361-90f5-9e16fc8df7ec","resource":{"resourceType":"Organization","id":"9698d963-b1d3-4361-90f5-9e16fc8df7ec","meta":{"profile":["http://hl7.org/fhir/us/qicore/StructureDefinition/qicore-organization"]},"identifier":[{"use":"temp","system":"urn:oid:2.16.840.1.113883.4.4","value":"21-3259825"}],"active":true,"type":[{"coding":[{"system":"http://terminology.hl7.org/CodeSystem/organization-type","code":"pay","display":"Payer"}]}],"name":"Blue Cross Blue Shield of Texas","telecom":[{"system":"phone","value":"(+1) 972-766-6900"}],"address":[{"use":"billing","type":"postal","line":["P.O. Box 660044"],"city":"Dallas","state":"TX","postalCode":"75266-0044","country":"USA"}]},"request":{"method":"PUT","url":"Organization/9698d963-b1d3-4361-90f5-9e16fc8df7ec"}},{"fullUrl":"https://madie.cms.gov/Practitioner/1cf90398-18cb-4f5c-b42a-4637203d2bf5","resource":{"resourceType":"Practitioner","id":"1cf90398-18cb-4f5c-b42a-4637203d2bf5","identifier":[{"system":"http://hl7.org/fhir/sid/us-npi","value":"123456"}],"name":[{"family":"Evil","prefix":["Dr"]}]},"request":{"method":"PUT","url":"Practitioner/1cf90398-18cb-4f5c-b42a-4637203d2bf5"}},{"fullUrl":"https://madie.cms.gov/MeasureReport/6f996632-9f37-4848-93bf-9f856fbec7d9","resource":{"resourceType":"MeasureReport","id":"6f996632-9f37-4848-93bf-9f856fbec7d9","meta":{"profile":["http://hl7.org/fhir/us/cqfmeasures/StructureDefinition/test-case-cqfm"]},"contained":[{"resourceType":"Parameters","id":"c358a93f-21f9-4177-86eb-91dacc986acc-parameters","parameter":[{"name":"subject","valueString":"d9317b8a-ccf3-4fdb-bcee-da027b403708"}]}],"extension":[{"url":"http://hl7.org/fhir/StructureDefinition/cqf-inputParameters","valueReference":{"reference":"#c358a93f-21f9-4177-86eb-91dacc986acc-parameters"}},{"url":"http://hl7.org/fhir/us/cqfmeasures/StructureDefinition/cqfm-testCaseDescription","valueMarkdown":"comfort measures order 2 day after end of  anesthesia\n"}],"modifierExtension":[{"url":"http://hl7.org/fhir/us/cqfmeasures/StructureDefinition/cqfm-isTestCase","valueBoolean":true}],"status":"complete","type":"individual","measure":"https://madie.cms.gov/Measure/CMS108FHIRVTEProphylaxis","period":{"start":"2026-01-01","end":"2026-12-31"},"group":[{"id":"Group_1","population":[{"id":"InitialPopulation_1","code":{"coding":[{"system":"http://terminology.hl7.org/CodeSystem/measure-population","code":"initial-population","display":"Initial Population"}]},"count":1},{"id":"Denominator_1","code":{"coding":[{"system":"http://terminology.hl7.org/CodeSystem/measure-population","code":"denominator","display":"Denominator"}]},"count":1},{"id":"DenominatorExclusion_1","code":{"coding":[{"system":"http://terminology.hl7.org/CodeSystem/measure-population","code":"denominator-exclusion","display":"Denominator Exclusion"}]},"count":0},{"id":"Numerator_1","code":{"coding":[{"system":"http://terminology.hl7.org/CodeSystem/measure-population","code":"numerator","display":"Numerator"}]},"count":0}],"measureScore":{"value":0.0}}],"evaluatedResource":[{"reference":"Patient/d9317b8a-ccf3-4fdb-bcee-da027b403708"},{"reference":"Encounter/1569d33a-9f15-4e8a-9304-32a233fb354f"},{"reference":"ServiceRequest/f8376a78-d4dd-433c-be53-f744c022903f"},{"reference":"Coverage/a8438cd0-0d9c-48a3-b3bb-9c4650e535ac"},{"reference":"Procedure/e81d4204-a4ac-44af-8854-e9ceee48b5ab"},{"reference":"Organization/9698d963-b1d3-4361-90f5-9e16fc8df7ec"},{"reference":"Practitioner/1cf90398-18cb-4f5c-b42a-4637203d2bf5"}]},"request":{"method":"PUT","url":"MeasureReport/6f996632-9f37-4848-93bf-9f856fbec7d9"}}]}