{"resourceType":"Bundle","id":"tests-96c7b8e3-2c28-4b46-a579-f56d644cf762-bundle","type":"transaction","entry":[{"fullUrl":"https://madie.cms.gov/Patient/96c7b8e3-2c28-4b46-a579-f56d644cf762","resource":{"resourceType":"Patient","id":"96c7b8e3-2c28-4b46-a579-f56d644cf762","meta":{"profile":["http://hl7.org/fhir/us/qicore/StructureDefinition/qicore-patient"]},"text":{"status":"generated","div":"<div xmlns=\"http://www.w3.org/1999/xhtml\"><div class=\"hapiHeaderText\">CMPerf_DayAfterAnesEnd2DayAFAdm <b>DENEXPASS </b></div><table class=\"hapiPropertyTable\"><tbody><tr><td>Identifier</td><td>33d5de982b1e73b15a4c778bb4a72964</td></tr><tr><td>Date of birth</td><td><span>02 January 1974</span></td></tr></tbody></table></div>"},"extension":[{"url":"http://hl7.org/fhir/us/core/StructureDefinition/us-core-race","extension":[{"url":"ombCategory","valueCoding":{"system":"urn:oid:2.16.840.1.113883.6.238","code":"1002-5","display":"American Indian or Alaska Native","userSelected":true}},{"url":"text","valueString":"American Indian or Alaska Native"}]},{"url":"http://hl7.org/fhir/us/core/StructureDefinition/us-core-ethnicity","extension":[{"url":"ombCategory","valueCoding":{"system":"urn:oid:2.16.840.1.113883.6.238","code":"2135-2","display":"Hispanic or Latino","userSelected":true}},{"url":"text","valueString":"Hispanic or Latino"}]}],"identifier":[{"type":{"coding":[{"system":"http://terminology.hl7.org/CodeSystem/v2-0203","code":"MR"}]},"system":"https://bonnie-fhir.healthit.gov/","value":"612e6b7502c62a011f2edce2"}],"active":true,"name":[{"use":"usual","family":"DENEXPass","given":["CMPerfDayAfterAnesEnd2DayAFAdm"]}],"gender":"male","birthDate":"1975-01-02"},"request":{"method":"PUT","url":"Patient/96c7b8e3-2c28-4b46-a579-f56d644cf762"}},{"fullUrl":"https://madie.cms.gov/Encounter/b27c9e1d-c3a4-4167-b6d1-24e45c9c9c88","resource":{"resourceType":"Encounter","id":"b27c9e1d-c3a4-4167-b6d1-24e45c9c9c88","meta":{"profile":["http://hl7.org/fhir/us/qicore/StructureDefinition/qicore-encounter"]},"status":"finished","class":{"system":"http://terminology.hl7.org/CodeSystem/v3-ActCode","code":"IMP","display":"inpatient encounter"},"type":[{"coding":[{"system":"http://snomed.info/sct","code":"8715000"}]}],"subject":{"reference":"Patient/96c7b8e3-2c28-4b46-a579-f56d644cf762"},"period":{"start":"2026-11-01T08:00:00.000+00:00","end":"2026-11-26T08:15:00.000+00:00"},"length":{"value":25,"unit":"days"}},"request":{"method":"PUT","url":"Encounter/b27c9e1d-c3a4-4167-b6d1-24e45c9c9c88"}},{"fullUrl":"https://madie.cms.gov/Procedure/c6f1bcdf-c121-4636-abf8-b6277a276f3f","resource":{"resourceType":"Procedure","id":"c6f1bcdf-c121-4636-abf8-b6277a276f3f","meta":{"profile":["http://hl7.org/fhir/us/qicore/StructureDefinition/qicore-procedure"]},"extension":[{"url":"http://hl7.org/fhir/us/qicore/StructureDefinition/qicore-recorded","valueDateTime":"2013-11-03T13:35:00.000+00:00"}],"status":"completed","code":{"coding":[{"system":"http://snomed.info/sct","code":"133918004"}]},"subject":{"reference":"Patient/96c7b8e3-2c28-4b46-a579-f56d644cf762"},"performedPeriod":{"start":"2026-11-03T09:15:00.000+00:00"}},"request":{"method":"PUT","url":"Procedure/c6f1bcdf-c121-4636-abf8-b6277a276f3f"}},{"fullUrl":"https://madie.cms.gov/Coverage/cb3f352d-2c22-4524-a546-c8e453e61210","resource":{"resourceType":"Coverage","id":"cb3f352d-2c22-4524-a546-c8e453e61210","status":"active","beneficiary":{"reference":"Patient/96c7b8e3-2c28-4b46-a579-f56d644cf762"},"period":{"start":"1975-01-02T08:00:00.000+00:00"},"payor":[{"reference":"Organization/5ed608ed-69a2-454a-816d-66cdb16a6d19"}]},"request":{"method":"PUT","url":"Coverage/cb3f352d-2c22-4524-a546-c8e453e61210"}},{"fullUrl":"https://madie.cms.gov/Procedure/1db0aeaf-320f-450a-887d-377b26ca1f4d","resource":{"resourceType":"Procedure","id":"1db0aeaf-320f-450a-887d-377b26ca1f4d","meta":{"profile":["http://hl7.org/fhir/us/qicore/StructureDefinition/qicore-procedure"]},"extension":[{"url":"http://hl7.org/fhir/us/qicore/StructureDefinition/qicore-recorded","valueDateTime":"2013-11-03T13:35:00.000+00:00"}],"status":"completed","code":{"coding":[{"system":"http://snomed.info/sct","code":"18946005"}]},"subject":{"reference":"Patient/96c7b8e3-2c28-4b46-a579-f56d644cf762"},"performedPeriod":{"start":"2026-11-02T09:00:00.000+00:00","end":"2026-11-02T09:15:00.000+00:00"}},"request":{"method":"PUT","url":"Procedure/1db0aeaf-320f-450a-887d-377b26ca1f4d"}},{"fullUrl":"https://madie.cms.gov/Organization/5ed608ed-69a2-454a-816d-66cdb16a6d19","resource":{"resourceType":"Organization","id":"5ed608ed-69a2-454a-816d-66cdb16a6d19","meta":{"profile":["http://hl7.org/fhir/us/qicore/StructureDefinition/qicore-organization"]},"identifier":[{"use":"temp","system":"urn:oid:2.16.840.1.113883.4.4","value":"21-3259825"}],"active":true,"type":[{"coding":[{"system":"http://terminology.hl7.org/CodeSystem/organization-type","code":"pay","display":"Payer"}]}],"name":"Blue Cross Blue Shield of Texas","telecom":[{"system":"phone","value":"(+1) 972-766-6900"}],"address":[{"use":"billing","type":"postal","line":["P.O. Box 660044"],"city":"Dallas","state":"TX","postalCode":"75266-0044","country":"USA"}]},"request":{"method":"PUT","url":"Organization/5ed608ed-69a2-454a-816d-66cdb16a6d19"}},{"fullUrl":"https://madie.cms.gov/Practitioner/6331af80-72c7-47a5-bc81-8418c9809efa","resource":{"resourceType":"Practitioner","id":"6331af80-72c7-47a5-bc81-8418c9809efa","identifier":[{"system":"http://hl7.org/fhir/sid/us-npi","value":"123456"}],"name":[{"family":"Evil","prefix":["Dr"]}]},"request":{"method":"PUT","url":"Practitioner/6331af80-72c7-47a5-bc81-8418c9809efa"}},{"fullUrl":"https://madie.cms.gov/MeasureReport/5521a22f-15c7-40a6-a6ad-ec49199dbd90","resource":{"resourceType":"MeasureReport","id":"5521a22f-15c7-40a6-a6ad-ec49199dbd90","meta":{"profile":["http://hl7.org/fhir/us/cqfmeasures/StructureDefinition/test-case-cqfm"]},"contained":[{"resourceType":"Parameters","id":"c62af78c-8687-4a1b-b1ad-4c62920058b8-parameters","parameter":[{"name":"subject","valueString":"96c7b8e3-2c28-4b46-a579-f56d644cf762"}]}],"extension":[{"url":"http://hl7.org/fhir/StructureDefinition/cqf-inputParameters","valueReference":{"reference":"#c62af78c-8687-4a1b-b1ad-4c62920058b8-parameters"}},{"url":"http://hl7.org/fhir/us/cqfmeasures/StructureDefinition/cqfm-testCaseDescription","valueMarkdown":"comfort measures performed 1 day after end of  anesthesia 2 days after Adm\n"}],"modifierExtension":[{"url":"http://hl7.org/fhir/us/cqfmeasures/StructureDefinition/cqfm-isTestCase","valueBoolean":true}],"status":"complete","type":"individual","measure":"https://madie.cms.gov/Measure/CMS108FHIRVTEProphylaxis","period":{"start":"2026-01-01","end":"2026-12-31"},"group":[{"id":"Group_1","population":[{"id":"InitialPopulation_1","code":{"coding":[{"system":"http://terminology.hl7.org/CodeSystem/measure-population","code":"initial-population","display":"Initial Population"}]},"count":1},{"id":"Denominator_1","code":{"coding":[{"system":"http://terminology.hl7.org/CodeSystem/measure-population","code":"denominator","display":"Denominator"}]},"count":1},{"id":"DenominatorExclusion_1","code":{"coding":[{"system":"http://terminology.hl7.org/CodeSystem/measure-population","code":"denominator-exclusion","display":"Denominator Exclusion"}]},"count":1},{"id":"Numerator_1","code":{"coding":[{"system":"http://terminology.hl7.org/CodeSystem/measure-population","code":"numerator","display":"Numerator"}]},"count":0}],"measureScore":{"value":0.0}}],"evaluatedResource":[{"reference":"Patient/96c7b8e3-2c28-4b46-a579-f56d644cf762"},{"reference":"Encounter/b27c9e1d-c3a4-4167-b6d1-24e45c9c9c88"},{"reference":"Procedure/c6f1bcdf-c121-4636-abf8-b6277a276f3f"},{"reference":"Coverage/cb3f352d-2c22-4524-a546-c8e453e61210"},{"reference":"Procedure/1db0aeaf-320f-450a-887d-377b26ca1f4d"},{"reference":"Organization/5ed608ed-69a2-454a-816d-66cdb16a6d19"},{"reference":"Practitioner/6331af80-72c7-47a5-bc81-8418c9809efa"}]},"request":{"method":"PUT","url":"MeasureReport/5521a22f-15c7-40a6-a6ad-ec49199dbd90"}}]}