{"resourceType":"Bundle","id":"tests-4fda37ce-d4ce-487f-84dd-6274e7c0114a-bundle","type":"transaction","entry":[{"fullUrl":"https://madie.cms.gov/Patient/4fda37ce-d4ce-487f-84dd-6274e7c0114a","resource":{"resourceType":"Patient","id":"4fda37ce-d4ce-487f-84dd-6274e7c0114a","meta":{"profile":["http://hl7.org/fhir/us/qicore/StructureDefinition/qicore-patient"]},"text":{"status":"generated","div":"<div xmlns=\"http://www.w3.org/1999/xhtml\"><div class=\"hapiHeaderText\">INR3_0_DayOfAnesthesia <b>NUMERFAIL </b></div><table class=\"hapiPropertyTable\"><tbody><tr><td>Identifier</td><td>65ef0b32f324a9b2366603f2ef83d149</td></tr><tr><td>Date of birth</td><td><span>02 January 1974</span></td></tr></tbody></table></div>"},"extension":[{"url":"http://hl7.org/fhir/us/core/StructureDefinition/us-core-race","extension":[{"url":"ombCategory","valueCoding":{"system":"urn:oid:2.16.840.1.113883.6.238","code":"1002-5","display":"American Indian or Alaska Native","userSelected":true}},{"url":"text","valueString":"American Indian or Alaska Native"}]},{"url":"http://hl7.org/fhir/us/core/StructureDefinition/us-core-ethnicity","extension":[{"url":"ombCategory","valueCoding":{"system":"urn:oid:2.16.840.1.113883.6.238","code":"2135-2","display":"Hispanic or Latino","userSelected":true}},{"url":"text","valueString":"Hispanic or Latino"}]}],"identifier":[{"type":{"coding":[{"system":"http://terminology.hl7.org/CodeSystem/v2-0203","code":"MR"}]},"system":"https://bonnie-fhir.healthit.gov/","value":"612e6b4e02c62a011f2ed3d2"}],"active":true,"name":[{"use":"usual","family":"NUMERFail","given":["INR3_0_DayOfAnesthesia"]}],"gender":"male","birthDate":"1975-01-02"},"request":{"method":"PUT","url":"Patient/4fda37ce-d4ce-487f-84dd-6274e7c0114a"}},{"fullUrl":"https://madie.cms.gov/Encounter/18b1b6cf-ef0e-48db-b788-9d5be3a28724","resource":{"resourceType":"Encounter","id":"18b1b6cf-ef0e-48db-b788-9d5be3a28724","meta":{"profile":["http://hl7.org/fhir/us/qicore/StructureDefinition/qicore-encounter"]},"status":"finished","class":{"system":"http://terminology.hl7.org/CodeSystem/v3-ActCode","code":"IMP","display":"inpatient encounter"},"type":[{"coding":[{"system":"http://snomed.info/sct","code":"8715000"}]}],"subject":{"reference":"Patient/4fda37ce-d4ce-487f-84dd-6274e7c0114a"},"period":{"start":"2026-11-01T08:00:00.000+00:00","end":"2026-11-26T08:15:00.000+00:00"},"length":{"value":25,"unit":"days"}},"request":{"method":"PUT","url":"Encounter/18b1b6cf-ef0e-48db-b788-9d5be3a28724"}},{"fullUrl":"https://madie.cms.gov/Coverage/5bbba3dd-fb5c-473a-bf29-a527bafad3da","resource":{"resourceType":"Coverage","id":"5bbba3dd-fb5c-473a-bf29-a527bafad3da","status":"active","beneficiary":{"reference":"Patient/4fda37ce-d4ce-487f-84dd-6274e7c0114a"},"period":{"start":"1975-01-02T08:00:00.000+00:00"},"payor":[{"reference":"Organization/5c64df7d-0698-4dca-a1f8-1f1eba0a2e9d"}]},"request":{"method":"PUT","url":"Coverage/5bbba3dd-fb5c-473a-bf29-a527bafad3da"}},{"fullUrl":"https://madie.cms.gov/Observation/18956d79-36dd-4208-ad92-2887a4a5257e","resource":{"resourceType":"Observation","id":"18956d79-36dd-4208-ad92-2887a4a5257e","meta":{"profile":["http://hl7.org/fhir/us/qicore/StructureDefinition/qicore-observation-lab"]},"status":"final","category":[{"coding":[{"system":"http://terminology.hl7.org/CodeSystem/observation-category","code":"laboratory","display":"Laboratory"}]}],"code":{"coding":[{"system":"http://loinc.org","code":"34714-6"}]},"subject":{"reference":"Patient/4fda37ce-d4ce-487f-84dd-6274e7c0114a"},"issued":"2026-11-01T11:00:00.000+00:00","valueQuantity":{"value":3,"unit":"{INR}"}},"request":{"method":"PUT","url":"Observation/18956d79-36dd-4208-ad92-2887a4a5257e"}},{"fullUrl":"https://madie.cms.gov/Procedure/e9c0cf70-cb99-495c-8f9a-926951d396fa","resource":{"resourceType":"Procedure","id":"e9c0cf70-cb99-495c-8f9a-926951d396fa","meta":{"profile":["http://hl7.org/fhir/us/qicore/StructureDefinition/qicore-procedure"]},"extension":[{"url":"http://hl7.org/fhir/us/qicore/StructureDefinition/qicore-recorded","valueDateTime":"2013-12-04T13:35:00.000+00:00"}],"status":"completed","code":{"coding":[{"system":"http://www.icd10data.com/icd10pcs","code":"3E030FZ"},{"system":"http://snomed.info/sct","code":"18946005"}]},"subject":{"reference":"Patient/4fda37ce-d4ce-487f-84dd-6274e7c0114a"},"performedPeriod":{"start":"2026-11-01T09:00:00.000+00:00","end":"2026-11-01T09:15:00.000+00:00"}},"request":{"method":"PUT","url":"Procedure/e9c0cf70-cb99-495c-8f9a-926951d396fa"}},{"fullUrl":"https://madie.cms.gov/Organization/5c64df7d-0698-4dca-a1f8-1f1eba0a2e9d","resource":{"resourceType":"Organization","id":"5c64df7d-0698-4dca-a1f8-1f1eba0a2e9d","meta":{"profile":["http://hl7.org/fhir/us/qicore/StructureDefinition/qicore-organization"]},"identifier":[{"use":"temp","system":"urn:oid:2.16.840.1.113883.4.4","value":"21-3259825"}],"active":true,"type":[{"coding":[{"system":"http://terminology.hl7.org/CodeSystem/organization-type","code":"pay","display":"Payer"}]}],"name":"Blue Cross Blue Shield of Texas","telecom":[{"system":"phone","value":"(+1) 972-766-6900"}],"address":[{"use":"billing","type":"postal","line":["P.O. Box 660044"],"city":"Dallas","state":"TX","postalCode":"75266-0044","country":"USA"}]},"request":{"method":"PUT","url":"Organization/5c64df7d-0698-4dca-a1f8-1f1eba0a2e9d"}},{"fullUrl":"https://madie.cms.gov/Practitioner/a2f6de88-ccb8-44b4-bed2-ea8d4dbd9612","resource":{"resourceType":"Practitioner","id":"a2f6de88-ccb8-44b4-bed2-ea8d4dbd9612","identifier":[{"system":"http://hl7.org/fhir/sid/us-npi","value":"123456"}],"name":[{"family":"Evil","prefix":["Dr"]}]},"request":{"method":"PUT","url":"Practitioner/a2f6de88-ccb8-44b4-bed2-ea8d4dbd9612"}},{"fullUrl":"https://madie.cms.gov/MeasureReport/69722e8c-8e8c-4f59-87af-8b42fb2c2526","resource":{"resourceType":"MeasureReport","id":"69722e8c-8e8c-4f59-87af-8b42fb2c2526","meta":{"profile":["http://hl7.org/fhir/us/cqfmeasures/StructureDefinition/test-case-cqfm"]},"contained":[{"resourceType":"Parameters","id":"fae4ae62-1e41-48fe-81ae-4d079f198a1b-parameters","parameter":[{"name":"subject","valueString":"4fda37ce-d4ce-487f-84dd-6274e7c0114a"}]}],"extension":[{"url":"http://hl7.org/fhir/StructureDefinition/cqf-inputParameters","valueReference":{"reference":"#fae4ae62-1e41-48fe-81ae-4d079f198a1b-parameters"}},{"url":"http://hl7.org/fhir/us/cqfmeasures/StructureDefinition/cqfm-testCaseDescription","valueMarkdown":">18, dx VTE, LOS<120 day,   LabResult INR=3.0,  day of anesthesia\n"}],"modifierExtension":[{"url":"http://hl7.org/fhir/us/cqfmeasures/StructureDefinition/cqfm-isTestCase","valueBoolean":true}],"status":"complete","type":"individual","measure":"https://madie.cms.gov/Measure/CMS108FHIRVTEProphylaxis","period":{"start":"2026-01-01","end":"2026-12-31"},"group":[{"id":"Group_1","population":[{"id":"InitialPopulation_1","code":{"coding":[{"system":"http://terminology.hl7.org/CodeSystem/measure-population","code":"initial-population","display":"Initial Population"}]},"count":1},{"id":"Denominator_1","code":{"coding":[{"system":"http://terminology.hl7.org/CodeSystem/measure-population","code":"denominator","display":"Denominator"}]},"count":1},{"id":"DenominatorExclusion_1","code":{"coding":[{"system":"http://terminology.hl7.org/CodeSystem/measure-population","code":"denominator-exclusion","display":"Denominator Exclusion"}]},"count":0},{"id":"Numerator_1","code":{"coding":[{"system":"http://terminology.hl7.org/CodeSystem/measure-population","code":"numerator","display":"Numerator"}]},"count":0}],"measureScore":{"value":0.0}}],"evaluatedResource":[{"reference":"Patient/4fda37ce-d4ce-487f-84dd-6274e7c0114a"},{"reference":"Encounter/18b1b6cf-ef0e-48db-b788-9d5be3a28724"},{"reference":"Coverage/5bbba3dd-fb5c-473a-bf29-a527bafad3da"},{"reference":"Observation/18956d79-36dd-4208-ad92-2887a4a5257e"},{"reference":"Procedure/e9c0cf70-cb99-495c-8f9a-926951d396fa"},{"reference":"Organization/5c64df7d-0698-4dca-a1f8-1f1eba0a2e9d"},{"reference":"Practitioner/a2f6de88-ccb8-44b4-bed2-ea8d4dbd9612"}]},"request":{"method":"PUT","url":"MeasureReport/69722e8c-8e8c-4f59-87af-8b42fb2c2526"}}]}