{"resourceType":"Bundle","id":"tests-70a5b41a-14ac-4e08-b661-d5523ad80fbf-bundle","type":"transaction","entry":[{"fullUrl":"https://madie.cms.gov/Patient/70a5b41a-14ac-4e08-b661-d5523ad80fbf","resource":{"resourceType":"Patient","id":"70a5b41a-14ac-4e08-b661-d5523ad80fbf","meta":{"profile":["http://hl7.org/fhir/us/qicore/StructureDefinition/qicore-patient"]},"text":{"status":"generated","div":"<div xmlns=\"http://www.w3.org/1999/xhtml\"><div class=\"hapiHeaderText\">SCIPNeuroRank1RvltDTDrgEncSMD <b>DENEXPASS </b></div><table class=\"hapiPropertyTable\"><tbody><tr><td>Identifier</td><td>66c70c125db369967b4b164e75338304</td></tr><tr><td>Date of birth</td><td><span>01 September 2000</span></td></tr></tbody></table></div>"},"extension":[{"url":"http://hl7.org/fhir/us/core/StructureDefinition/us-core-race","extension":[{"url":"ombCategory","valueCoding":{"system":"urn:oid:2.16.840.1.113883.6.238","code":"1002-5","display":"American Indian or Alaska Native","userSelected":true}},{"url":"text","valueString":"American Indian or Alaska Native"}]},{"url":"http://hl7.org/fhir/us/core/StructureDefinition/us-core-ethnicity","extension":[{"url":"ombCategory","valueCoding":{"system":"urn:oid:2.16.840.1.113883.6.238","code":"2135-2","display":"Hispanic or Latino","userSelected":true}},{"url":"text","valueString":"Hispanic or Latino"}]}],"identifier":[{"type":{"coding":[{"system":"http://terminology.hl7.org/CodeSystem/v2-0203","code":"MR"}]},"system":"https://bonnie-fhir.healthit.gov/","value":"612e6b2202c62a011f2ec9a3"}],"active":true,"name":[{"use":"usual","family":"DENEXPass","given":["SCIPNeuroRank1RvltDTDrgEncSMD"]}],"gender":"male","birthDate":"2001-09-01"},"request":{"method":"PUT","url":"Patient/70a5b41a-14ac-4e08-b661-d5523ad80fbf"}},{"fullUrl":"https://madie.cms.gov/Encounter/dfaa8a50-3d19-4325-a095-c16b1315e7ec","resource":{"resourceType":"Encounter","id":"dfaa8a50-3d19-4325-a095-c16b1315e7ec","meta":{"profile":["http://hl7.org/fhir/us/qicore/StructureDefinition/qicore-encounter"]},"status":"finished","class":{"system":"http://terminology.hl7.org/CodeSystem/v3-ActCode","code":"IMP","display":"inpatient encounter"},"type":[{"coding":[{"system":"http://snomed.info/sct","code":"183452005"}]}],"subject":{"reference":"Patient/70a5b41a-14ac-4e08-b661-d5523ad80fbf"},"period":{"start":"2026-09-02T06:00:00.000+00:00","end":"2026-12-31T12:59:00.000+00:00"},"length":{"value":120,"unit":"days"}},"request":{"method":"PUT","url":"Encounter/dfaa8a50-3d19-4325-a095-c16b1315e7ec"}},{"fullUrl":"https://madie.cms.gov/claim/5ca62962b8484628b8de1ec5","resource":{"resourceType":"Claim","id":"5ca62962b8484628b8de1ec5","meta":{"profile":["http://hl7.org/fhir/us/qicore/StructureDefinition/qicore-claim"]},"status":"active","type":{"coding":[{"system":"http://terminology.hl7.org/CodeSystem/claim-type","code":"institutional"}]},"use":"claim","patient":{"reference":"Patient/d170a0a8-b5ad-4303-b6df-e304dd5f92ad"},"created":"2026-12-01","provider":{"reference":"Practitioner/decf7233-6989-4a6b-b72a-fc0621aa1f46"},"priority":{"coding":[{"system":"http://terminology.hl7.org/CodeSystem/processpriority","code":"normal"}]},"procedure":[{"sequence":1,"type":[{"coding":[{"system":"http://terminology.hl7.org/CodeSystem/ex-procedure-type","code":"primary"}]}],"procedureCodeableConcept":{"coding":[{"system":"http://www.cms.gov/Medicare/Coding/ICD10","code":"0WW100Z","display":"Revision of Drainage Device in Cranial Cavity, Open Approach"}]}}],"insurance":[{"sequence":1,"focal":true,"coverage":{"reference":"Coverage/e0fca587-ce9d-4e73-9110-14750725f368"}}],"item":[{"sequence":1,"procedureSequence":[1],"productOrService":{"coding":[{"system":"http://terminology.hl7.org/CodeSystem/ex-USCLS","code":"99555"}]},"encounter":[{"reference":"Encounter/dfaa8a50-3d19-4325-a095-c16b1315e7ec"}]}]},"request":{"method":"PUT","url":"Claim/5ca62962b8484628b8de1ec5"}},{"fullUrl":"https://madie.cms.gov/Coverage/e0fca587-ce9d-4e73-9110-14750725f368","resource":{"resourceType":"Coverage","id":"e0fca587-ce9d-4e73-9110-14750725f368","status":"active","beneficiary":{"reference":"Patient/70a5b41a-14ac-4e08-b661-d5523ad80fbf"},"period":{"start":"2001-09-01T08:00:00.000+00:00"},"payor":[{"reference":"Organization/7b34e497-38ba-49ee-8896-b0b2f02d8a14"}]},"request":{"method":"PUT","url":"Coverage/e0fca587-ce9d-4e73-9110-14750725f368"}},{"fullUrl":"https://madie.cms.gov/Procedure/74ac784c-fbbb-4c97-982b-6e9919550ad1","resource":{"resourceType":"Procedure","id":"74ac784c-fbbb-4c97-982b-6e9919550ad1","meta":{"profile":["http://hl7.org/fhir/us/qicore/StructureDefinition/qicore-procedure"]},"extension":[{"url":"http://hl7.org/fhir/us/qicore/StructureDefinition/qicore-recorded","valueDateTime":"2013-09-02T13:35:00.000+00:00"}],"status":"completed","code":{"coding":[{"system":"http://snomed.info/sct","code":"14247003","display":"Cerebral hemispherectomy (procedure)"}]},"subject":{"reference":"Patient/70a5b41a-14ac-4e08-b661-d5523ad80fbf"},"performedDateTime":"2026-09-02T09:00:00.000+00:00"},"request":{"method":"PUT","url":"Procedure/74ac784c-fbbb-4c97-982b-6e9919550ad1"}},{"fullUrl":"https://madie.cms.gov/Organization/7b34e497-38ba-49ee-8896-b0b2f02d8a14","resource":{"resourceType":"Organization","id":"7b34e497-38ba-49ee-8896-b0b2f02d8a14","meta":{"profile":["http://hl7.org/fhir/us/qicore/StructureDefinition/qicore-organization"]},"identifier":[{"use":"temp","system":"urn:oid:2.16.840.1.113883.4.4","value":"21-3259825"}],"active":true,"type":[{"coding":[{"system":"http://terminology.hl7.org/CodeSystem/organization-type","code":"pay","display":"Payer"}]}],"name":"Blue Cross Blue Shield of Texas","telecom":[{"system":"phone","value":"(+1) 972-766-6900"}],"address":[{"use":"billing","type":"postal","line":["P.O. Box 660044"],"city":"Dallas","state":"TX","postalCode":"75266-0044","country":"USA"}]},"request":{"method":"PUT","url":"Organization/7b34e497-38ba-49ee-8896-b0b2f02d8a14"}},{"fullUrl":"https://madie.cms.gov/Practitioner/decf7233-6989-4a6b-b72a-fc0621aa1f46","resource":{"resourceType":"Practitioner","id":"decf7233-6989-4a6b-b72a-fc0621aa1f46","identifier":[{"system":"http://hl7.org/fhir/sid/us-npi","value":"123456"}],"name":[{"family":"Evil","prefix":["Dr"]}]},"request":{"method":"PUT","url":"Practitioner/decf7233-6989-4a6b-b72a-fc0621aa1f46"}},{"fullUrl":"https://madie.cms.gov/MeasureReport/83299142-0268-4389-8b9f-b772f12d50c2","resource":{"resourceType":"MeasureReport","id":"83299142-0268-4389-8b9f-b772f12d50c2","meta":{"profile":["http://hl7.org/fhir/us/cqfmeasures/StructureDefinition/test-case-cqfm"]},"contained":[{"resourceType":"Parameters","id":"fff712ee-73ef-413b-a178-11141e8f6eeb-parameters","parameter":[{"name":"subject","valueString":"70a5b41a-14ac-4e08-b661-d5523ad80fbf"}]}],"extension":[{"url":"http://hl7.org/fhir/StructureDefinition/cqf-inputParameters","valueReference":{"reference":"#fff712ee-73ef-413b-a178-11141e8f6eeb-parameters"}},{"url":"http://hl7.org/fhir/us/cqfmeasures/StructureDefinition/cqfm-testCaseDescription","valueMarkdown":"duplicate case by using SNOMED CT code for Neuro Px."}],"modifierExtension":[{"url":"http://hl7.org/fhir/us/cqfmeasures/StructureDefinition/cqfm-isTestCase","valueBoolean":true}],"status":"complete","type":"individual","measure":"https://madie.cms.gov/Measure/CMS108FHIRVTEProphylaxis","period":{"start":"2026-01-01","end":"2026-12-31"},"group":[{"id":"Group_1","population":[{"id":"InitialPopulation_1","code":{"coding":[{"system":"http://terminology.hl7.org/CodeSystem/measure-population","code":"initial-population","display":"Initial Population"}]},"count":1},{"id":"Denominator_1","code":{"coding":[{"system":"http://terminology.hl7.org/CodeSystem/measure-population","code":"denominator","display":"Denominator"}]},"count":1},{"id":"DenominatorExclusion_1","code":{"coding":[{"system":"http://terminology.hl7.org/CodeSystem/measure-population","code":"denominator-exclusion","display":"Denominator Exclusion"}]},"count":1},{"id":"Numerator_1","code":{"coding":[{"system":"http://terminology.hl7.org/CodeSystem/measure-population","code":"numerator","display":"Numerator"}]},"count":0}],"measureScore":{"value":0.0}}],"evaluatedResource":[{"reference":"Patient/70a5b41a-14ac-4e08-b661-d5523ad80fbf"},{"reference":"Encounter/dfaa8a50-3d19-4325-a095-c16b1315e7ec"},{"reference":"Claim/5ca62962b8484628b8de1ec5"},{"reference":"Coverage/e0fca587-ce9d-4e73-9110-14750725f368"},{"reference":"Procedure/74ac784c-fbbb-4c97-982b-6e9919550ad1"},{"reference":"Organization/7b34e497-38ba-49ee-8896-b0b2f02d8a14"},{"reference":"Practitioner/decf7233-6989-4a6b-b72a-fc0621aa1f46"}]},"request":{"method":"PUT","url":"MeasureReport/83299142-0268-4389-8b9f-b772f12d50c2"}}]}