{"resourceType":"Bundle","id":"tests-0306790e-8c5b-40cb-b164-e5d7f79eef8f-bundle","type":"transaction","entry":[{"fullUrl":"https://madie.cms.gov/Patient/0306790e-8c5b-40cb-b164-e5d7f79eef8f","resource":{"resourceType":"Patient","id":"0306790e-8c5b-40cb-b164-e5d7f79eef8f","meta":{"profile":["http://hl7.org/fhir/us/qicore/StructureDefinition/qicore-patient"]},"text":{"status":"generated","div":"<div xmlns=\"http://www.w3.org/1999/xhtml\"><div class=\"hapiHeaderText\">MA_Warfarin_DayOfAdmit <b>NUMERPASS </b></div><table class=\"hapiPropertyTable\"><tbody><tr><td>Identifier</td><td>f6b3ce4fb2b87a4aa5f00ca8118e0e9a</td></tr><tr><td>Date of birth</td><td><span>02 January 1974</span></td></tr></tbody></table></div>"},"extension":[{"url":"http://hl7.org/fhir/us/core/StructureDefinition/us-core-race","extension":[{"url":"ombCategory","valueCoding":{"system":"urn:oid:2.16.840.1.113883.6.238","code":"1002-5","display":"American Indian or Alaska Native","userSelected":true}},{"url":"text","valueString":"American Indian or Alaska Native"}]},{"url":"http://hl7.org/fhir/us/core/StructureDefinition/us-core-ethnicity","extension":[{"url":"ombCategory","valueCoding":{"system":"urn:oid:2.16.840.1.113883.6.238","code":"2135-2","display":"Hispanic or Latino","userSelected":true}},{"url":"text","valueString":"Hispanic or Latino"}]}],"identifier":[{"type":{"coding":[{"system":"http://terminology.hl7.org/CodeSystem/v2-0203","code":"MR"}]},"system":"https://bonnie-fhir.healthit.gov/","value":"612e6a7d02c62a011f2ea2ee"}],"active":true,"name":[{"use":"usual","family":"NUMERPass","given":["MAWarfarinDayOfAdmit"]}],"gender":"male","birthDate":"1975-01-02"},"request":{"method":"PUT","url":"Patient/0306790e-8c5b-40cb-b164-e5d7f79eef8f"}},{"fullUrl":"https://madie.cms.gov/Encounter/fa456f6f-52e8-4dee-9244-1774bd239fbd","resource":{"resourceType":"Encounter","id":"fa456f6f-52e8-4dee-9244-1774bd239fbd","meta":{"profile":["http://hl7.org/fhir/us/qicore/StructureDefinition/qicore-encounter"]},"status":"finished","class":{"system":"http://terminology.hl7.org/CodeSystem/v3-ActCode","code":"IMP","display":"inpatient encounter"},"type":[{"coding":[{"system":"http://snomed.info/sct","code":"8715000"}]}],"subject":{"reference":"Patient/0306790e-8c5b-40cb-b164-e5d7f79eef8f"},"period":{"start":"2026-11-01T08:00:00.000+00:00","end":"2026-11-26T08:15:00.000+00:00"},"length":{"value":25,"unit":"days"}},"request":{"method":"PUT","url":"Encounter/fa456f6f-52e8-4dee-9244-1774bd239fbd"}},{"fullUrl":"https://madie.cms.gov/Coverage/6d10694d-ce4e-410b-8566-063e168e824d","resource":{"resourceType":"Coverage","id":"6d10694d-ce4e-410b-8566-063e168e824d","status":"active","beneficiary":{"reference":"Patient/0306790e-8c5b-40cb-b164-e5d7f79eef8f"},"period":{"start":"1975-01-02T08:00:00.000+00:00"},"payor":[{"reference":"Organization/46cc2614-de20-4147-88d5-cce77de6a54a"}]},"request":{"method":"PUT","url":"Coverage/6d10694d-ce4e-410b-8566-063e168e824d"}},{"fullUrl":"https://madie.cms.gov/MedicationAdministration/f7928ff0-f7e9-4507-8ae3-eabae41670c9","resource":{"resourceType":"MedicationAdministration","id":"f7928ff0-f7e9-4507-8ae3-eabae41670c9","meta":{"profile":["http://hl7.org/fhir/us/qicore/StructureDefinition/qicore-medicationadministration"]},"status":"completed","medicationCodeableConcept":{"coding":[{"system":"http://www.nlm.nih.gov/research/umls/rxnorm","code":"855288"}]},"subject":{"reference":"Patient/0306790e-8c5b-40cb-b164-e5d7f79eef8f"},"effectivePeriod":{"start":"2026-11-01T09:00:00.000+00:00","end":"2026-11-01T09:15:00.000+00:00"}},"request":{"method":"PUT","url":"MedicationAdministration/f7928ff0-f7e9-4507-8ae3-eabae41670c9"}},{"fullUrl":"https://madie.cms.gov/Organization/46cc2614-de20-4147-88d5-cce77de6a54a","resource":{"resourceType":"Organization","id":"46cc2614-de20-4147-88d5-cce77de6a54a","meta":{"profile":["http://hl7.org/fhir/us/qicore/StructureDefinition/qicore-organization"]},"identifier":[{"use":"temp","system":"urn:oid:2.16.840.1.113883.4.4","value":"21-3259825"}],"active":true,"type":[{"coding":[{"system":"http://terminology.hl7.org/CodeSystem/organization-type","code":"pay","display":"Payer"}]}],"name":"Blue Cross Blue Shield of Texas","telecom":[{"system":"phone","value":"(+1) 972-766-6900"}],"address":[{"use":"billing","type":"postal","line":["P.O. Box 660044"],"city":"Dallas","state":"TX","postalCode":"75266-0044","country":"USA"}]},"request":{"method":"PUT","url":"Organization/46cc2614-de20-4147-88d5-cce77de6a54a"}},{"fullUrl":"https://madie.cms.gov/Practitioner/ef0eeab0-ea1e-44a6-8b63-ac09b227e5e1","resource":{"resourceType":"Practitioner","id":"ef0eeab0-ea1e-44a6-8b63-ac09b227e5e1","identifier":[{"system":"http://hl7.org/fhir/sid/us-npi","value":"123456"}],"name":[{"family":"Evil","prefix":["Dr"]}]},"request":{"method":"PUT","url":"Practitioner/ef0eeab0-ea1e-44a6-8b63-ac09b227e5e1"}},{"fullUrl":"https://madie.cms.gov/MeasureReport/663842dc-c03c-4c0a-b121-32996d1b940a","resource":{"resourceType":"MeasureReport","id":"663842dc-c03c-4c0a-b121-32996d1b940a","meta":{"profile":["http://hl7.org/fhir/us/cqfmeasures/StructureDefinition/test-case-cqfm"]},"contained":[{"resourceType":"Parameters","id":"06c84d73-b023-4845-95ce-210660fee0f3-parameters","parameter":[{"name":"subject","valueString":"0306790e-8c5b-40cb-b164-e5d7f79eef8f"}]}],"extension":[{"url":"http://hl7.org/fhir/StructureDefinition/cqf-inputParameters","valueReference":{"reference":"#06c84d73-b023-4845-95ce-210660fee0f3-parameters"}},{"url":"http://hl7.org/fhir/us/cqfmeasures/StructureDefinition/cqfm-testCaseDescription","valueMarkdown":"warfarin administered during IP encounter\n"}],"modifierExtension":[{"url":"http://hl7.org/fhir/us/cqfmeasures/StructureDefinition/cqfm-isTestCase","valueBoolean":true}],"status":"complete","type":"individual","measure":"https://madie.cms.gov/Measure/CMS108FHIRVTEProphylaxis","period":{"start":"2026-01-01","end":"2026-12-31"},"group":[{"id":"Group_1","population":[{"id":"InitialPopulation_1","code":{"coding":[{"system":"http://terminology.hl7.org/CodeSystem/measure-population","code":"initial-population","display":"Initial Population"}]},"count":1},{"id":"Denominator_1","code":{"coding":[{"system":"http://terminology.hl7.org/CodeSystem/measure-population","code":"denominator","display":"Denominator"}]},"count":1},{"id":"DenominatorExclusion_1","code":{"coding":[{"system":"http://terminology.hl7.org/CodeSystem/measure-population","code":"denominator-exclusion","display":"Denominator Exclusion"}]},"count":0},{"id":"Numerator_1","code":{"coding":[{"system":"http://terminology.hl7.org/CodeSystem/measure-population","code":"numerator","display":"Numerator"}]},"count":1}],"measureScore":{"value":0.0}}],"evaluatedResource":[{"reference":"Patient/0306790e-8c5b-40cb-b164-e5d7f79eef8f"},{"reference":"Encounter/fa456f6f-52e8-4dee-9244-1774bd239fbd"},{"reference":"Coverage/6d10694d-ce4e-410b-8566-063e168e824d"},{"reference":"MedicationAdministration/f7928ff0-f7e9-4507-8ae3-eabae41670c9"},{"reference":"Organization/46cc2614-de20-4147-88d5-cce77de6a54a"},{"reference":"Practitioner/ef0eeab0-ea1e-44a6-8b63-ac09b227e5e1"}]},"request":{"method":"PUT","url":"MeasureReport/663842dc-c03c-4c0a-b121-32996d1b940a"}}]}