{"resourceType":"Bundle","id":"tests-a8083d97-85af-4e1e-8770-30c49a287194-bundle","type":"transaction","entry":[{"fullUrl":"https://madie.cms.gov/Patient/a8083d97-85af-4e1e-8770-30c49a287194","resource":{"resourceType":"Patient","id":"a8083d97-85af-4e1e-8770-30c49a287194","meta":{"profile":["http://hl7.org/fhir/us/qicore/StructureDefinition/qicore-patient"]},"text":{"status":"generated","div":"<div xmlns=\"http://www.w3.org/1999/xhtml\"><div class=\"hapiHeaderText\">VTERiskAssEndEDendOnIPEncStart <b>NUMERPASS </b></div><table class=\"hapiPropertyTable\"><tbody><tr><td>Identifier</td><td>9eeaae30f2c13f342ba722a8c92cd6bf</td></tr><tr><td>Date of birth</td><td><span>02 January 1974</span></td></tr></tbody></table></div>"},"extension":[{"url":"http://hl7.org/fhir/us/core/StructureDefinition/us-core-race","extension":[{"url":"ombCategory","valueCoding":{"system":"urn:oid:2.16.840.1.113883.6.238","code":"1002-5","display":"American Indian or Alaska Native","userSelected":true}},{"url":"text","valueString":"American Indian or Alaska Native"}]},{"url":"http://hl7.org/fhir/us/core/StructureDefinition/us-core-ethnicity","extension":[{"url":"ombCategory","valueCoding":{"system":"urn:oid:2.16.840.1.113883.6.238","code":"2135-2","display":"Hispanic or Latino","userSelected":true}},{"url":"text","valueString":"Hispanic or Latino"}]}],"identifier":[{"type":{"coding":[{"system":"http://terminology.hl7.org/CodeSystem/v2-0203","code":"MR"}]},"system":"https://bonnie-fhir.healthit.gov/","value":"612e6b2902c62a011f2ecaf3"}],"active":true,"name":[{"use":"usual","family":"NUMERPass","given":["VTERiskAssEndEDendOnIPEncStart"]}],"gender":"male","birthDate":"1975-01-02"},"request":{"method":"PUT","url":"Patient/a8083d97-85af-4e1e-8770-30c49a287194"}},{"fullUrl":"https://madie.cms.gov/Encounter/652bba52-6a2b-40e4-ae6c-4e7495544aef","resource":{"resourceType":"Encounter","id":"652bba52-6a2b-40e4-ae6c-4e7495544aef","meta":{"profile":["http://hl7.org/fhir/us/qicore/StructureDefinition/qicore-encounter"]},"status":"finished","class":{"system":"http://terminology.hl7.org/CodeSystem/v3-ActCode","code":"EMER","display":"emergency"},"type":[{"coding":[{"system":"http://snomed.info/sct","code":"4525004"}]}],"subject":{"reference":"Patient/a8083d97-85af-4e1e-8770-30c49a287194"},"period":{"start":"2026-11-01T06:00:00.000+00:00","end":"2026-11-01T08:00:00.000+00:00"},"length":{"value":0,"unit":"days"}},"request":{"method":"PUT","url":"Encounter/652bba52-6a2b-40e4-ae6c-4e7495544aef"}},{"fullUrl":"https://madie.cms.gov/Encounter/c8c37bfe-65e4-4341-9717-f91453c934e6","resource":{"resourceType":"Encounter","id":"c8c37bfe-65e4-4341-9717-f91453c934e6","meta":{"profile":["http://hl7.org/fhir/us/qicore/StructureDefinition/qicore-encounter"]},"status":"finished","class":{"system":"http://terminology.hl7.org/CodeSystem/v3-ActCode","code":"IMP","display":"inpatient encounter"},"type":[{"coding":[{"system":"http://snomed.info/sct","code":"8715000"}]}],"subject":{"reference":"Patient/a8083d97-85af-4e1e-8770-30c49a287194"},"period":{"start":"2026-11-01T08:00:00.000+00:00","end":"2026-11-26T08:15:00.000+00:00"},"length":{"value":25,"unit":"days"}},"request":{"method":"PUT","url":"Encounter/c8c37bfe-65e4-4341-9717-f91453c934e6"}},{"fullUrl":"https://madie.cms.gov/Observation/2d0f3256-6872-410d-9af2-631aa8c7a0f1","resource":{"resourceType":"Observation","id":"2d0f3256-6872-410d-9af2-631aa8c7a0f1","meta":{"profile":["http://hl7.org/fhir/us/qicore/StructureDefinition/qicore-simple-observation"]},"status":"final","category":[{"coding":[{"system":"http://terminology.hl7.org/CodeSystem/observation-category","code":"exam","display":"Exam","userSelected":true}]}],"code":{"coding":[{"system":"http://loinc.org","code":"72136-5"}]},"subject":{"reference":"Patient/a8083d97-85af-4e1e-8770-30c49a287194"},"effectivePeriod":{"end":"2026-11-01T07:15:00.000+00:00"},"valueCodeableConcept":{"coding":[{"system":"http://snomed.info/sct","code":"260362008","display":"Low Risk"}]}},"request":{"method":"PUT","url":"Observation/2d0f3256-6872-410d-9af2-631aa8c7a0f1"}},{"fullUrl":"https://madie.cms.gov/Coverage/e35803e7-4376-4283-8e2b-5b497f9b9da6","resource":{"resourceType":"Coverage","id":"e35803e7-4376-4283-8e2b-5b497f9b9da6","status":"active","beneficiary":{"reference":"Patient/a8083d97-85af-4e1e-8770-30c49a287194"},"period":{"start":"1975-01-02T08:00:00.000+00:00"},"payor":[{"reference":"Organization/26ba3bc1-b043-4eec-9aa8-fa58c33729db"}]},"request":{"method":"PUT","url":"Coverage/e35803e7-4376-4283-8e2b-5b497f9b9da6"}},{"fullUrl":"https://madie.cms.gov/Organization/26ba3bc1-b043-4eec-9aa8-fa58c33729db","resource":{"resourceType":"Organization","id":"26ba3bc1-b043-4eec-9aa8-fa58c33729db","meta":{"profile":["http://hl7.org/fhir/us/qicore/StructureDefinition/qicore-organization"]},"identifier":[{"use":"temp","system":"urn:oid:2.16.840.1.113883.4.4","value":"21-3259825"}],"active":true,"type":[{"coding":[{"system":"http://terminology.hl7.org/CodeSystem/organization-type","code":"pay","display":"Payer"}]}],"name":"Blue Cross Blue Shield of Texas","telecom":[{"system":"phone","value":"(+1) 972-766-6900"}],"address":[{"use":"billing","type":"postal","line":["P.O. Box 660044"],"city":"Dallas","state":"TX","postalCode":"75266-0044","country":"USA"}]},"request":{"method":"PUT","url":"Organization/26ba3bc1-b043-4eec-9aa8-fa58c33729db"}},{"fullUrl":"https://madie.cms.gov/Practitioner/17675c11-678c-479a-a498-2f402d2c3c1d","resource":{"resourceType":"Practitioner","id":"17675c11-678c-479a-a498-2f402d2c3c1d","identifier":[{"system":"http://hl7.org/fhir/sid/us-npi","value":"123456"}],"name":[{"family":"Evil","prefix":["Dr"]}]},"request":{"method":"PUT","url":"Practitioner/17675c11-678c-479a-a498-2f402d2c3c1d"}},{"fullUrl":"https://madie.cms.gov/MeasureReport/810995eb-8459-4021-8163-9846c0c081ee","resource":{"resourceType":"MeasureReport","id":"810995eb-8459-4021-8163-9846c0c081ee","meta":{"profile":["http://hl7.org/fhir/us/cqfmeasures/StructureDefinition/test-case-cqfm"]},"contained":[{"resourceType":"Parameters","id":"116735d8-19fd-4948-a384-4aa73f576be5-parameters","parameter":[{"name":"subject","valueString":"a8083d97-85af-4e1e-8770-30c49a287194"}]}],"extension":[{"url":"http://hl7.org/fhir/StructureDefinition/cqf-inputParameters","valueReference":{"reference":"#116735d8-19fd-4948-a384-4aa73f576be5-parameters"}},{"url":"http://hl7.org/fhir/us/cqfmeasures/StructureDefinition/cqfm-testCaseDescription","valueMarkdown":"\">18, LOS<120 day,Risk, RCA period end (with start datetime is null)in ED, and ED.end = IP.start\n\"\n"}],"modifierExtension":[{"url":"http://hl7.org/fhir/us/cqfmeasures/StructureDefinition/cqfm-isTestCase","valueBoolean":true}],"status":"complete","type":"individual","measure":"https://madie.cms.gov/Measure/CMS108FHIRVTEProphylaxis","period":{"start":"2026-01-01","end":"2026-12-31"},"group":[{"id":"Group_1","population":[{"id":"InitialPopulation_1","code":{"coding":[{"system":"http://terminology.hl7.org/CodeSystem/measure-population","code":"initial-population","display":"Initial Population"}]},"count":1},{"id":"Denominator_1","code":{"coding":[{"system":"http://terminology.hl7.org/CodeSystem/measure-population","code":"denominator","display":"Denominator"}]},"count":1},{"id":"DenominatorExclusion_1","code":{"coding":[{"system":"http://terminology.hl7.org/CodeSystem/measure-population","code":"denominator-exclusion","display":"Denominator Exclusion"}]},"count":0},{"id":"Numerator_1","code":{"coding":[{"system":"http://terminology.hl7.org/CodeSystem/measure-population","code":"numerator","display":"Numerator"}]},"count":1}],"measureScore":{"value":0.0}}],"evaluatedResource":[{"reference":"Patient/a8083d97-85af-4e1e-8770-30c49a287194"},{"reference":"Encounter/652bba52-6a2b-40e4-ae6c-4e7495544aef"},{"reference":"Encounter/c8c37bfe-65e4-4341-9717-f91453c934e6"},{"reference":"Observation/2d0f3256-6872-410d-9af2-631aa8c7a0f1"},{"reference":"Coverage/e35803e7-4376-4283-8e2b-5b497f9b9da6"},{"reference":"Organization/26ba3bc1-b043-4eec-9aa8-fa58c33729db"},{"reference":"Practitioner/17675c11-678c-479a-a498-2f402d2c3c1d"}]},"request":{"method":"PUT","url":"MeasureReport/810995eb-8459-4021-8163-9846c0c081ee"}}]}