{"resourceType":"Bundle","id":"tests-04048fd6-1b9a-4061-a8a9-9a4879c42b04-bundle","type":"transaction","entry":[{"fullUrl":"https://madie.cms.gov/Patient/04048fd6-1b9a-4061-a8a9-9a4879c42b04","resource":{"resourceType":"Patient","id":"04048fd6-1b9a-4061-a8a9-9a4879c42b04","meta":{"profile":["http://hl7.org/fhir/us/qicore/StructureDefinition/qicore-patient"]},"text":{"status":"generated","div":"<div xmlns=\"http://www.w3.org/1999/xhtml\"><div class=\"hapiHeaderText\">INR=3_0 <b>NUMERFAIL </b></div><table class=\"hapiPropertyTable\"><tbody><tr><td>Identifier</td><td>d09a5f6238a0a6a7a798f82976fcd198</td></tr><tr><td>Date of birth</td><td><span>02 January 1974</span></td></tr></tbody></table></div>"},"extension":[{"url":"http://hl7.org/fhir/us/core/StructureDefinition/us-core-race","extension":[{"url":"ombCategory","valueCoding":{"system":"urn:oid:2.16.840.1.113883.6.238","code":"1002-5","display":"American Indian or Alaska Native","userSelected":true}},{"url":"text","valueString":"American Indian or Alaska Native"}]},{"url":"http://hl7.org/fhir/us/core/StructureDefinition/us-core-ethnicity","extension":[{"url":"ombCategory","valueCoding":{"system":"urn:oid:2.16.840.1.113883.6.238","code":"2135-2","display":"Hispanic or Latino","userSelected":true}},{"url":"text","valueString":"Hispanic or Latino"}]}],"identifier":[{"type":{"coding":[{"system":"http://terminology.hl7.org/CodeSystem/v2-0203","code":"MR"}]},"system":"https://bonnie-fhir.healthit.gov/","value":"612e6b4602c62a011f2ed217"}],"active":true,"name":[{"use":"usual","family":"NUMERFail","given":["INR3_0"]}],"gender":"male","birthDate":"1975-01-02"},"request":{"method":"PUT","url":"Patient/04048fd6-1b9a-4061-a8a9-9a4879c42b04"}},{"fullUrl":"https://madie.cms.gov/Encounter/bbe37d76-edc2-4533-8bae-51cd498f5b02","resource":{"resourceType":"Encounter","id":"bbe37d76-edc2-4533-8bae-51cd498f5b02","meta":{"profile":["http://hl7.org/fhir/us/qicore/StructureDefinition/qicore-encounter"]},"status":"finished","class":{"system":"http://terminology.hl7.org/CodeSystem/v3-ActCode","code":"IMP","display":"inpatient encounter"},"type":[{"coding":[{"system":"http://snomed.info/sct","code":"8715000"}]}],"subject":{"reference":"Patient/04048fd6-1b9a-4061-a8a9-9a4879c42b04"},"period":{"start":"2026-11-01T08:00:00.000+00:00","end":"2026-11-26T08:15:00.000+00:00"},"length":{"value":25,"unit":"days"}},"request":{"method":"PUT","url":"Encounter/bbe37d76-edc2-4533-8bae-51cd498f5b02"}},{"fullUrl":"https://madie.cms.gov/Coverage/30805f7f-0ea2-4151-bfae-7dc25ca090d5","resource":{"resourceType":"Coverage","id":"30805f7f-0ea2-4151-bfae-7dc25ca090d5","status":"active","beneficiary":{"reference":"Patient/04048fd6-1b9a-4061-a8a9-9a4879c42b04"},"period":{"start":"1975-01-02T08:00:00.000+00:00"},"payor":[{"reference":"Organization/21bf0c95-6e41-4d5e-bab5-fb65c7cd6f09"}]},"request":{"method":"PUT","url":"Coverage/30805f7f-0ea2-4151-bfae-7dc25ca090d5"}},{"fullUrl":"https://madie.cms.gov/Observation/e58c58a6-b5d3-42dd-911d-7baa06a8d301","resource":{"resourceType":"Observation","id":"e58c58a6-b5d3-42dd-911d-7baa06a8d301","meta":{"profile":["http://hl7.org/fhir/us/qicore/StructureDefinition/qicore-observation-lab"]},"status":"final","category":[{"coding":[{"system":"http://terminology.hl7.org/CodeSystem/observation-category","code":"laboratory","display":"Laboratory"}]}],"code":{"coding":[{"system":"http://loinc.org","code":"34714-6"}]},"subject":{"reference":"Patient/04048fd6-1b9a-4061-a8a9-9a4879c42b04"},"issued":"2026-11-01T09:00:00.000+00:00","valueQuantity":{"value":3,"unit":"{INR}"}},"request":{"method":"PUT","url":"Observation/e58c58a6-b5d3-42dd-911d-7baa06a8d301"}},{"fullUrl":"https://madie.cms.gov/Organization/21bf0c95-6e41-4d5e-bab5-fb65c7cd6f09","resource":{"resourceType":"Organization","id":"21bf0c95-6e41-4d5e-bab5-fb65c7cd6f09","meta":{"profile":["http://hl7.org/fhir/us/qicore/StructureDefinition/qicore-organization"]},"identifier":[{"use":"temp","system":"urn:oid:2.16.840.1.113883.4.4","value":"21-3259825"}],"active":true,"type":[{"coding":[{"system":"http://terminology.hl7.org/CodeSystem/organization-type","code":"pay","display":"Payer"}]}],"name":"Blue Cross Blue Shield of Texas","telecom":[{"system":"phone","value":"(+1) 972-766-6900"}],"address":[{"use":"billing","type":"postal","line":["P.O. Box 660044"],"city":"Dallas","state":"TX","postalCode":"75266-0044","country":"USA"}]},"request":{"method":"PUT","url":"Organization/21bf0c95-6e41-4d5e-bab5-fb65c7cd6f09"}},{"fullUrl":"https://madie.cms.gov/Practitioner/62d008e6-7d34-42ca-a288-76ffa9fcfdc7","resource":{"resourceType":"Practitioner","id":"62d008e6-7d34-42ca-a288-76ffa9fcfdc7","identifier":[{"system":"http://hl7.org/fhir/sid/us-npi","value":"123456"}],"name":[{"family":"Evil","prefix":["Dr"]}]},"request":{"method":"PUT","url":"Practitioner/62d008e6-7d34-42ca-a288-76ffa9fcfdc7"}},{"fullUrl":"https://madie.cms.gov/MeasureReport/663a0ab5-5b22-4f2d-9954-fbbee0c19114","resource":{"resourceType":"MeasureReport","id":"663a0ab5-5b22-4f2d-9954-fbbee0c19114","meta":{"profile":["http://hl7.org/fhir/us/cqfmeasures/StructureDefinition/test-case-cqfm"]},"contained":[{"resourceType":"Parameters","id":"6c2eacf5-2922-42c5-ae19-e5d5afb88269-parameters","parameter":[{"name":"subject","valueString":"04048fd6-1b9a-4061-a8a9-9a4879c42b04"}]}],"extension":[{"url":"http://hl7.org/fhir/StructureDefinition/cqf-inputParameters","valueReference":{"reference":"#6c2eacf5-2922-42c5-ae19-e5d5afb88269-parameters"}},{"url":"http://hl7.org/fhir/us/cqfmeasures/StructureDefinition/cqfm-testCaseDescription","valueMarkdown":">18, LOS<120 day.Lab INR=3.0\n"}],"modifierExtension":[{"url":"http://hl7.org/fhir/us/cqfmeasures/StructureDefinition/cqfm-isTestCase","valueBoolean":true}],"status":"complete","type":"individual","measure":"https://madie.cms.gov/Measure/CMS108FHIRVTEProphylaxis","period":{"start":"2026-01-01","end":"2026-12-31"},"group":[{"id":"Group_1","population":[{"id":"InitialPopulation_1","code":{"coding":[{"system":"http://terminology.hl7.org/CodeSystem/measure-population","code":"initial-population","display":"Initial Population"}]},"count":1},{"id":"Denominator_1","code":{"coding":[{"system":"http://terminology.hl7.org/CodeSystem/measure-population","code":"denominator","display":"Denominator"}]},"count":1},{"id":"DenominatorExclusion_1","code":{"coding":[{"system":"http://terminology.hl7.org/CodeSystem/measure-population","code":"denominator-exclusion","display":"Denominator Exclusion"}]},"count":0},{"id":"Numerator_1","code":{"coding":[{"system":"http://terminology.hl7.org/CodeSystem/measure-population","code":"numerator","display":"Numerator"}]},"count":0}],"measureScore":{"value":0.0}}],"evaluatedResource":[{"reference":"Patient/04048fd6-1b9a-4061-a8a9-9a4879c42b04"},{"reference":"Encounter/bbe37d76-edc2-4533-8bae-51cd498f5b02"},{"reference":"Coverage/30805f7f-0ea2-4151-bfae-7dc25ca090d5"},{"reference":"Observation/e58c58a6-b5d3-42dd-911d-7baa06a8d301"},{"reference":"Organization/21bf0c95-6e41-4d5e-bab5-fb65c7cd6f09"},{"reference":"Practitioner/62d008e6-7d34-42ca-a288-76ffa9fcfdc7"}]},"request":{"method":"PUT","url":"MeasureReport/663a0ab5-5b22-4f2d-9954-fbbee0c19114"}}]}