{"resourceType":"Bundle","id":"tests-0dae06f1-1e15-4905-ae46-86ea310c2f1f-bundle","type":"transaction","entry":[{"fullUrl":"https://madie.cms.gov/Patient/0dae06f1-1e15-4905-ae46-86ea310c2f1f","resource":{"resourceType":"Patient","id":"0dae06f1-1e15-4905-ae46-86ea310c2f1f","meta":{"profile":["http://hl7.org/fhir/us/qicore/StructureDefinition/qicore-patient"]},"text":{"status":"generated","div":"<div xmlns=\"http://www.w3.org/1999/xhtml\"><div class=\"hapiHeaderText\">EncEndsOnLastMinOfMP <b>IPPPASS </b></div><table class=\"hapiPropertyTable\"><tbody><tr><td>Identifier</td><td>2d02a76d3c6414633bcaff3b3573dd91</td></tr><tr><td>Date of birth</td><td><span>01 January 2003</span></td></tr></tbody></table></div>"},"extension":[{"url":" http://hl7.org/fhir/us/core/StructureDefinition/us-core-sex","valueCode":"248153007"}],"identifier":[{"type":{"coding":[{"system":"http://terminology.hl7.org/CodeSystem/v2-0203","code":"MR"}]},"system":"https://bonnie-fhir.healthit.gov/","value":"612e6b6a02c62a011f2eda61"}],"active":true,"name":[{"use":"usual","family":"IPPPass","given":["EncEndsOnLastMinOfMP"]}],"gender":"male","birthDate":"2004-01-01"},"request":{"method":"PUT","url":"Patient/0dae06f1-1e15-4905-ae46-86ea310c2f1f"}},{"fullUrl":"https://madie.cms.gov/Encounter/ea54d302-4d0e-48df-80d9-67afe2a85508","resource":{"resourceType":"Encounter","id":"ea54d302-4d0e-48df-80d9-67afe2a85508","meta":{"profile":["http://hl7.org/fhir/us/qicore/StructureDefinition/qicore-encounter"]},"status":"finished","class":{"system":"http://terminology.hl7.org/CodeSystem/v3-ActCode","code":"IMP","display":"inpatient encounter"},"type":[{"coding":[{"system":"http://snomed.info/sct","code":"8715000"}]}],"subject":{"reference":"Patient/0dae06f1-1e15-4905-ae46-86ea310c2f1f"},"period":{"start":"2026-12-01T00:00:00.000+00:00","end":"2026-12-31T23:59:00.000+00:00"},"length":{"value":30,"unit":"days"}},"request":{"method":"PUT","url":"Encounter/ea54d302-4d0e-48df-80d9-67afe2a85508"}},{"fullUrl":"https://madie.cms.gov/Coverage/814a0d2b-1957-4f7c-bfb1-6b8cffafaeae","resource":{"resourceType":"Coverage","id":"814a0d2b-1957-4f7c-bfb1-6b8cffafaeae","meta":{"profile":["http://hl7.org/fhir/us/qicore/StructureDefinition/qicore-coverage"]},"status":"active","beneficiary":{"reference":"Patient/0dae06f1-1e15-4905-ae46-86ea310c2f1f"},"relationship":{"coding":[{"system":"http://terminology.hl7.org/CodeSystem/subscriber-relationship","code":"self"}]},"period":{"start":"2004-01-01T08:00:00.000+00:00"},"payor":[{"reference":"Organization/34572384-d0ee-4511-882e-6c5c92d908c4"}]},"request":{"method":"PUT","url":"Coverage/814a0d2b-1957-4f7c-bfb1-6b8cffafaeae"}},{"fullUrl":"https://madie.cms.gov/Organization/34572384-d0ee-4511-882e-6c5c92d908c4","resource":{"resourceType":"Organization","id":"34572384-d0ee-4511-882e-6c5c92d908c4","meta":{"profile":["http://hl7.org/fhir/us/qicore/StructureDefinition/qicore-organization"]},"identifier":[{"use":"temp","system":"urn:oid:2.16.840.1.113883.4.4","value":"21-3259825"}],"active":true,"type":[{"coding":[{"system":"http://terminology.hl7.org/CodeSystem/organization-type","code":"pay","display":"Payer"}]}],"name":"Blue Cross Blue Shield of Texas","telecom":[{"system":"phone","value":"(+1) 972-766-6900"}],"address":[{"use":"billing","type":"postal","line":["P.O. Box 660044"],"city":"Dallas","state":"TX","postalCode":"75266-0044","country":"USA"}]},"request":{"method":"PUT","url":"Organization/34572384-d0ee-4511-882e-6c5c92d908c4"}},{"fullUrl":"https://madie.cms.gov/Practitioner/94428b69-a7d9-42df-a162-ea388394b104","resource":{"resourceType":"Practitioner","id":"94428b69-a7d9-42df-a162-ea388394b104","identifier":[{"system":"http://hl7.org/fhir/sid/us-npi","value":"123456"}],"name":[{"family":"Evil","prefix":["Dr"]}]},"request":{"method":"PUT","url":"Practitioner/94428b69-a7d9-42df-a162-ea388394b104"}},{"fullUrl":"https://madie.cms.gov/MeasureReport/1eb00481-8d31-4c6d-94fb-08fbf4f4e059","resource":{"resourceType":"MeasureReport","id":"1eb00481-8d31-4c6d-94fb-08fbf4f4e059","meta":{"profile":["http://hl7.org/fhir/us/cqfmeasures/StructureDefinition/test-case-cqfm"]},"contained":[{"resourceType":"Parameters","id":"f009ab76-4fd3-488e-95c8-857466ea69ca-parameters","parameter":[{"name":"subject","valueString":"0dae06f1-1e15-4905-ae46-86ea310c2f1f"}]}],"extension":[{"url":"http://hl7.org/fhir/StructureDefinition/cqf-inputParameters","valueReference":{"reference":"#f009ab76-4fd3-488e-95c8-857466ea69ca-parameters"}},{"url":"http://hl7.org/fhir/us/cqfmeasures/StructureDefinition/cqfm-testCaseDescription","valueMarkdown":"Patient is 18 years old with LOS < 120 days ending during MP\n"}],"modifierExtension":[{"url":"http://hl7.org/fhir/us/cqfmeasures/StructureDefinition/cqfm-isTestCase","valueBoolean":true}],"status":"complete","type":"individual","measure":"https://madie.cms.gov/Measure/CMS108FHIRVTEProphylaxis","period":{"start":"2026-01-01","end":"2026-12-31"},"group":[{"id":"Group_1","population":[{"id":"InitialPopulation_1","code":{"coding":[{"system":"http://terminology.hl7.org/CodeSystem/measure-population","code":"initial-population","display":"Initial Population"}]},"count":1},{"id":"Denominator_1","code":{"coding":[{"system":"http://terminology.hl7.org/CodeSystem/measure-population","code":"denominator","display":"Denominator"}]},"count":1},{"id":"DenominatorExclusion_1","code":{"coding":[{"system":"http://terminology.hl7.org/CodeSystem/measure-population","code":"denominator-exclusion","display":"Denominator Exclusion"}]},"count":0},{"id":"Numerator_1","code":{"coding":[{"system":"http://terminology.hl7.org/CodeSystem/measure-population","code":"numerator","display":"Numerator"}]},"count":0}],"measureScore":{"value":0.0}}],"evaluatedResource":[{"reference":"Patient/0dae06f1-1e15-4905-ae46-86ea310c2f1f"},{"reference":"Encounter/ea54d302-4d0e-48df-80d9-67afe2a85508"},{"reference":"Coverage/814a0d2b-1957-4f7c-bfb1-6b8cffafaeae"},{"reference":"Organization/34572384-d0ee-4511-882e-6c5c92d908c4"},{"reference":"Practitioner/94428b69-a7d9-42df-a162-ea388394b104"}]},"request":{"method":"PUT","url":"MeasureReport/1eb00481-8d31-4c6d-94fb-08fbf4f4e059"}}]}