{"resourceType":"Bundle","id":"tests-ee7d6d89-bc00-4a58-ada5-8ee8c867ec74-bundle","type":"transaction","entry":[{"fullUrl":"https://madie.cms.gov/Patient/ee7d6d89-bc00-4a58-ada5-8ee8c867ec74","resource":{"resourceType":"Patient","id":"ee7d6d89-bc00-4a58-ada5-8ee8c867ec74","meta":{"profile":["http://hl7.org/fhir/us/qicore/StructureDefinition/qicore-patient"]},"text":{"status":"generated","div":"<div xmlns=\"http://www.w3.org/1999/xhtml\"><div class=\"hapiHeaderText\">PtRef_DO_GCS_1DayAFAnes <b>NUMERPASS </b></div><table class=\"hapiPropertyTable\"><tbody><tr><td>Identifier</td><td>24fc1ce85ce14557dd4d9eba17df9f17</td></tr><tr><td>Date of birth</td><td><span>02 January 1974</span></td></tr></tbody></table></div>"},"extension":[{"url":"http://hl7.org/fhir/us/core/StructureDefinition/us-core-race","extension":[{"url":"ombCategory","valueCoding":{"system":"urn:oid:2.16.840.1.113883.6.238","code":"1002-5","display":"American Indian or Alaska Native","userSelected":true}},{"url":"text","valueString":"American Indian or Alaska Native"}]},{"url":"http://hl7.org/fhir/us/core/StructureDefinition/us-core-ethnicity","extension":[{"url":"ombCategory","valueCoding":{"system":"urn:oid:2.16.840.1.113883.6.238","code":"2135-2","display":"Hispanic or Latino","userSelected":true}},{"url":"text","valueString":"Hispanic or Latino"}]}],"identifier":[{"type":{"coding":[{"system":"http://terminology.hl7.org/CodeSystem/v2-0203","code":"MR"}]},"system":"https://bonnie-fhir.healthit.gov/","value":"612e6a7002c62a011f2ea15f"}],"active":true,"name":[{"use":"usual","family":"NUMERPass","given":["PtRefDOGCS1DayAFAnes"]}],"gender":"male","birthDate":"1975-01-02"},"request":{"method":"PUT","url":"Patient/ee7d6d89-bc00-4a58-ada5-8ee8c867ec74"}},{"fullUrl":"https://madie.cms.gov/Encounter/a85043b7-ee84-49c3-9cba-6154e844470f","resource":{"resourceType":"Encounter","id":"a85043b7-ee84-49c3-9cba-6154e844470f","meta":{"profile":["http://hl7.org/fhir/us/qicore/StructureDefinition/qicore-encounter"]},"status":"finished","class":{"system":"http://terminology.hl7.org/CodeSystem/v3-ActCode","code":"IMP","display":"inpatient encounter"},"type":[{"coding":[{"system":"http://snomed.info/sct","code":"8715000"}]}],"subject":{"reference":"Patient/ee7d6d89-bc00-4a58-ada5-8ee8c867ec74"},"period":{"start":"2026-11-01T08:00:00.000+00:00","end":"2026-11-26T08:15:00.000+00:00"},"length":{"value":25,"unit":"days"}},"request":{"method":"PUT","url":"Encounter/a85043b7-ee84-49c3-9cba-6154e844470f"}},{"fullUrl":"https://madie.cms.gov/Coverage/7f8fe267-3046-4db2-aa08-ec57ec86cdc0","resource":{"resourceType":"Coverage","id":"7f8fe267-3046-4db2-aa08-ec57ec86cdc0","status":"active","beneficiary":{"reference":"Patient/ee7d6d89-bc00-4a58-ada5-8ee8c867ec74"},"period":{"start":"1975-01-02T08:00:00.000+00:00"},"payor":[{"reference":"Organization/6eca53b8-439e-4ae8-82c7-80e3ecde575c"}]},"request":{"method":"PUT","url":"Coverage/7f8fe267-3046-4db2-aa08-ec57ec86cdc0"}},{"fullUrl":"https://madie.cms.gov/Procedure/b75eb53b-6cff-42ca-98dc-5236d1148e3b","resource":{"resourceType":"Procedure","id":"b75eb53b-6cff-42ca-98dc-5236d1148e3b","meta":{"profile":["http://hl7.org/fhir/us/qicore/StructureDefinition/qicore-procedure"]},"extension":[{"url":"http://hl7.org/fhir/us/qicore/StructureDefinition/qicore-recorded","valueDateTime":"2013-11-03T13:35:00.000+00:00"}],"status":"completed","code":{"coding":[{"system":"http://snomed.info/sct","code":"18946005"}]},"subject":{"reference":"Patient/ee7d6d89-bc00-4a58-ada5-8ee8c867ec74"},"performedPeriod":{"start":"2026-11-02T09:00:00.000+00:00","end":"2026-11-02T09:15:00.000+00:00"}},"request":{"method":"PUT","url":"Procedure/b75eb53b-6cff-42ca-98dc-5236d1148e3b"}},{"fullUrl":"https://madie.cms.gov/ServiceRequest/24a06cea-995e-4131-add9-6b0ea838a306","resource":{"resourceType":"ServiceRequest","id":"24a06cea-995e-4131-add9-6b0ea838a306","meta":{"profile":["http://hl7.org/fhir/us/qicore/StructureDefinition/qicore-servicenotrequested"]},"extension":[{"url":"http://hl7.org/fhir/us/qicore/StructureDefinition/qicore-doNotPerformReason","valueCodeableConcept":{"coding":[{"system":"http://snomed.info/sct","code":"443390004","display":"Refusal of treatment by patient (situation)"}]}}],"status":"completed","intent":"order","doNotPerform":true,"code":{"coding":[{"system":"http://snomed.info/sct","version":"2025-03","code":"348681001","display":"Graduated compression elastic hosiery (physical object)","userSelected":true}]},"subject":{"reference":"Patient/ee7d6d89-bc00-4a58-ada5-8ee8c867ec74"},"authoredOn":"2026-11-03T11:00:00.000+00:00"},"request":{"method":"PUT","url":"ServiceRequest/24a06cea-995e-4131-add9-6b0ea838a306"}},{"fullUrl":"https://madie.cms.gov/Organization/6eca53b8-439e-4ae8-82c7-80e3ecde575c","resource":{"resourceType":"Organization","id":"6eca53b8-439e-4ae8-82c7-80e3ecde575c","meta":{"profile":["http://hl7.org/fhir/us/qicore/StructureDefinition/qicore-organization"]},"identifier":[{"use":"temp","system":"urn:oid:2.16.840.1.113883.4.4","value":"21-3259825"}],"active":true,"type":[{"coding":[{"system":"http://terminology.hl7.org/CodeSystem/organization-type","code":"pay","display":"Payer"}]}],"name":"Blue Cross Blue Shield of Texas","telecom":[{"system":"phone","value":"(+1) 972-766-6900"}],"address":[{"use":"billing","type":"postal","line":["P.O. Box 660044"],"city":"Dallas","state":"TX","postalCode":"75266-0044","country":"USA"}]},"request":{"method":"PUT","url":"Organization/6eca53b8-439e-4ae8-82c7-80e3ecde575c"}},{"fullUrl":"https://madie.cms.gov/Practitioner/f8b64cd5-6d55-4d54-b9dc-8a747141bd55","resource":{"resourceType":"Practitioner","id":"f8b64cd5-6d55-4d54-b9dc-8a747141bd55","identifier":[{"system":"http://hl7.org/fhir/sid/us-npi","value":"123456"}],"name":[{"family":"Evil","prefix":["Dr"]}]},"request":{"method":"PUT","url":"Practitioner/f8b64cd5-6d55-4d54-b9dc-8a747141bd55"}},{"fullUrl":"https://madie.cms.gov/MeasureReport/eacd8745-915c-42ad-86cc-77d66928fe83","resource":{"resourceType":"MeasureReport","id":"eacd8745-915c-42ad-86cc-77d66928fe83","meta":{"profile":["http://hl7.org/fhir/us/cqfmeasures/StructureDefinition/test-case-cqfm"]},"contained":[{"resourceType":"Parameters","id":"3fe70bc1-4c71-4e5f-b517-999c5c0823ae-parameters","parameter":[{"name":"subject","valueString":"ee7d6d89-bc00-4a58-ada5-8ee8c867ec74"}]}],"extension":[{"url":"http://hl7.org/fhir/StructureDefinition/cqf-inputParameters","valueReference":{"reference":"#3fe70bc1-4c71-4e5f-b517-999c5c0823ae-parameters"}},{"url":"http://hl7.org/fhir/us/cqfmeasures/StructureDefinition/cqfm-testCaseDescription","valueMarkdown":"GCS refused = 1 day after end of anesthesia;\n"}],"modifierExtension":[{"url":"http://hl7.org/fhir/us/cqfmeasures/StructureDefinition/cqfm-isTestCase","valueBoolean":true}],"status":"complete","type":"individual","measure":"https://madie.cms.gov/Measure/CMS108FHIRVTEProphylaxis","period":{"start":"2026-01-01","end":"2026-12-31"},"group":[{"id":"Group_1","population":[{"id":"InitialPopulation_1","code":{"coding":[{"system":"http://terminology.hl7.org/CodeSystem/measure-population","code":"initial-population","display":"Initial Population"}]},"count":1},{"id":"Denominator_1","code":{"coding":[{"system":"http://terminology.hl7.org/CodeSystem/measure-population","code":"denominator","display":"Denominator"}]},"count":1},{"id":"DenominatorExclusion_1","code":{"coding":[{"system":"http://terminology.hl7.org/CodeSystem/measure-population","code":"denominator-exclusion","display":"Denominator Exclusion"}]},"count":0},{"id":"Numerator_1","code":{"coding":[{"system":"http://terminology.hl7.org/CodeSystem/measure-population","code":"numerator","display":"Numerator"}]},"count":1}],"measureScore":{"value":0.0}}],"evaluatedResource":[{"reference":"Patient/ee7d6d89-bc00-4a58-ada5-8ee8c867ec74"},{"reference":"Encounter/a85043b7-ee84-49c3-9cba-6154e844470f"},{"reference":"Coverage/7f8fe267-3046-4db2-aa08-ec57ec86cdc0"},{"reference":"Procedure/b75eb53b-6cff-42ca-98dc-5236d1148e3b"},{"reference":"ServiceRequest/24a06cea-995e-4131-add9-6b0ea838a306"},{"reference":"Organization/6eca53b8-439e-4ae8-82c7-80e3ecde575c"},{"reference":"Practitioner/f8b64cd5-6d55-4d54-b9dc-8a747141bd55"}]},"request":{"method":"PUT","url":"MeasureReport/eacd8745-915c-42ad-86cc-77d66928fe83"}}]}