{"resourceType":"Bundle","id":"tests-543248c8-b6af-407d-b435-7e867c4770b4-bundle","type":"transaction","entry":[{"fullUrl":"https://madie.cms.gov/Patient/543248c8-b6af-407d-b435-7e867c4770b4","resource":{"resourceType":"Patient","id":"543248c8-b6af-407d-b435-7e867c4770b4","meta":{"profile":["http://hl7.org/fhir/us/qicore/StructureDefinition/qicore-patient"]},"text":{"status":"generated","div":"<div xmlns=\"http://www.w3.org/1999/xhtml\"><div class=\"hapiHeaderText\">Dx=AFibStartsOnEncEndTime <b>NUMERPASS </b></div><table class=\"hapiPropertyTable\"><tbody><tr><td>Identifier</td><td>fca51eeec53d2cb77f423c38feec332b</td></tr><tr><td>Date of birth</td><td><span>02 January 1974</span></td></tr></tbody></table></div>"},"extension":[{"url":"http://hl7.org/fhir/us/core/StructureDefinition/us-core-race","extension":[{"url":"ombCategory","valueCoding":{"system":"urn:oid:2.16.840.1.113883.6.238","code":"1002-5","display":"American Indian or Alaska Native","userSelected":true}},{"url":"text","valueString":"American Indian or Alaska Native"}]},{"url":"http://hl7.org/fhir/us/core/StructureDefinition/us-core-ethnicity","extension":[{"url":"ombCategory","valueCoding":{"system":"urn:oid:2.16.840.1.113883.6.238","code":"2135-2","display":"Hispanic or Latino","userSelected":true}},{"url":"text","valueString":"Hispanic or Latino"}]}],"identifier":[{"type":{"coding":[{"system":"http://terminology.hl7.org/CodeSystem/v2-0203","code":"MR"}]},"system":"https://bonnie-fhir.healthit.gov/","value":"612e6ac202c62a011f2eb282"}],"active":true,"name":[{"use":"usual","family":"NUMERPass","given":["DxAFibStartsOnEncEndTime"]}],"gender":"male","birthDate":"1975-01-02"},"request":{"method":"PUT","url":"Patient/543248c8-b6af-407d-b435-7e867c4770b4"}},{"fullUrl":"https://madie.cms.gov/Encounter/60339120-42f2-474f-8571-18889e9824e6","resource":{"resourceType":"Encounter","id":"60339120-42f2-474f-8571-18889e9824e6","meta":{"profile":["http://hl7.org/fhir/us/qicore/StructureDefinition/qicore-encounter"]},"status":"finished","class":{"system":"http://terminology.hl7.org/CodeSystem/v3-ActCode","code":"IMP","display":"inpatient encounter"},"type":[{"coding":[{"system":"http://snomed.info/sct","code":"8715000"}]}],"subject":{"reference":"Patient/543248c8-b6af-407d-b435-7e867c4770b4"},"period":{"start":"2026-11-01T08:00:00.000+00:00","end":"2026-11-26T08:15:00.000+00:00"},"length":{"value":25,"unit":"days"}},"request":{"method":"PUT","url":"Encounter/60339120-42f2-474f-8571-18889e9824e6"}},{"fullUrl":"https://madie.cms.gov/Coverage/57851786-f8b8-4844-a8be-ff203aaf1265","resource":{"resourceType":"Coverage","id":"57851786-f8b8-4844-a8be-ff203aaf1265","status":"active","beneficiary":{"reference":"Patient/543248c8-b6af-407d-b435-7e867c4770b4"},"period":{"start":"1975-01-02T08:00:00.000+00:00"},"payor":[{"reference":"Organization/dedad33a-0be7-47ad-b78a-d9e904e788a5"}]},"request":{"method":"PUT","url":"Coverage/57851786-f8b8-4844-a8be-ff203aaf1265"}},{"fullUrl":"https://madie.cms.gov/Condition/51daa402-0f4f-491b-a67b-a79a2ca1d96b","resource":{"resourceType":"Condition","id":"51daa402-0f4f-491b-a67b-a79a2ca1d96b","meta":{"profile":["http://hl7.org/fhir/us/qicore/StructureDefinition/qicore-condition-problems-health-concerns"]},"clinicalStatus":{"coding":[{"system":"http://terminology.hl7.org/CodeSystem/condition-clinical","code":"active","display":"active","userSelected":true}]},"verificationStatus":{"coding":[{"system":"http://terminology.hl7.org/CodeSystem/condition-ver-status","code":"confirmed","display":"confirmed","userSelected":true}]},"category":[{"coding":[{"system":"http://terminology.hl7.org/CodeSystem/condition-category","code":"problem-list-item","display":"Problem List Item"}]}],"code":{"coding":[{"system":"http://snomed.info/sct","code":"195080001"},{"system":"http://hl7.org/fhir/sid/icd-9-cm","code":"427.31"},{"system":"http://hl7.org/fhir/sid/icd-10-cm","code":"I48.0"}]},"subject":{"reference":"Patient/543248c8-b6af-407d-b435-7e867c4770b4"},"onsetPeriod":{"start":"2026-11-26T08:15:00.000+00:00"}},"request":{"method":"PUT","url":"Condition/51daa402-0f4f-491b-a67b-a79a2ca1d96b"}},{"fullUrl":"https://madie.cms.gov/MedicationAdministration/87888baa-6d11-4e08-b612-c6aaafe420a2","resource":{"resourceType":"MedicationAdministration","id":"87888baa-6d11-4e08-b612-c6aaafe420a2","meta":{"profile":["http://hl7.org/fhir/us/qicore/StructureDefinition/qicore-medicationadministration"]},"status":"completed","medicationCodeableConcept":{"coding":[{"system":"http://www.nlm.nih.gov/research/umls/rxnorm","code":"1599555"}]},"subject":{"reference":"Patient/543248c8-b6af-407d-b435-7e867c4770b4"},"effectivePeriod":{"start":"2026-11-01T09:00:00.000+00:00"}},"request":{"method":"PUT","url":"MedicationAdministration/87888baa-6d11-4e08-b612-c6aaafe420a2"}},{"fullUrl":"https://madie.cms.gov/Organization/dedad33a-0be7-47ad-b78a-d9e904e788a5","resource":{"resourceType":"Organization","id":"dedad33a-0be7-47ad-b78a-d9e904e788a5","meta":{"profile":["http://hl7.org/fhir/us/qicore/StructureDefinition/qicore-organization"]},"identifier":[{"use":"temp","system":"urn:oid:2.16.840.1.113883.4.4","value":"21-3259825"}],"active":true,"type":[{"coding":[{"system":"http://terminology.hl7.org/CodeSystem/organization-type","code":"pay","display":"Payer"}]}],"name":"Blue Cross Blue Shield of Texas","telecom":[{"system":"phone","value":"(+1) 972-766-6900"}],"address":[{"use":"billing","type":"postal","line":["P.O. Box 660044"],"city":"Dallas","state":"TX","postalCode":"75266-0044","country":"USA"}]},"request":{"method":"PUT","url":"Organization/dedad33a-0be7-47ad-b78a-d9e904e788a5"}},{"fullUrl":"https://madie.cms.gov/Practitioner/6b90ea73-d165-4543-9322-fd4692588a70","resource":{"resourceType":"Practitioner","id":"6b90ea73-d165-4543-9322-fd4692588a70","identifier":[{"system":"http://hl7.org/fhir/sid/us-npi","value":"123456"}],"name":[{"family":"Evil","prefix":["Dr"]}]},"request":{"method":"PUT","url":"Practitioner/6b90ea73-d165-4543-9322-fd4692588a70"}},{"fullUrl":"https://madie.cms.gov/MeasureReport/ad05d77c-b398-4ed7-9142-a32cd2114e63","resource":{"resourceType":"MeasureReport","id":"ad05d77c-b398-4ed7-9142-a32cd2114e63","meta":{"profile":["http://hl7.org/fhir/us/cqfmeasures/StructureDefinition/test-case-cqfm"]},"contained":[{"resourceType":"Parameters","id":"b52d1ff9-4c4f-491e-a065-2572360a6aa8-parameters","parameter":[{"name":"subject","valueString":"543248c8-b6af-407d-b435-7e867c4770b4"}]}],"extension":[{"url":"http://hl7.org/fhir/StructureDefinition/cqf-inputParameters","valueReference":{"reference":"#b52d1ff9-4c4f-491e-a065-2572360a6aa8-parameters"}},{"url":"http://hl7.org/fhir/us/cqfmeasures/StructureDefinition/cqfm-testCaseDescription","valueMarkdown":"Has oral Xa and AFib - AFib start time concurrent with EncInp end time.\n"}],"modifierExtension":[{"url":"http://hl7.org/fhir/us/cqfmeasures/StructureDefinition/cqfm-isTestCase","valueBoolean":true}],"status":"complete","type":"individual","measure":"https://madie.cms.gov/Measure/CMS108FHIRVTEProphylaxis","period":{"start":"2026-01-01","end":"2026-12-31"},"group":[{"id":"Group_1","population":[{"id":"InitialPopulation_1","code":{"coding":[{"system":"http://terminology.hl7.org/CodeSystem/measure-population","code":"initial-population","display":"Initial Population"}]},"count":1},{"id":"Denominator_1","code":{"coding":[{"system":"http://terminology.hl7.org/CodeSystem/measure-population","code":"denominator","display":"Denominator"}]},"count":1},{"id":"DenominatorExclusion_1","code":{"coding":[{"system":"http://terminology.hl7.org/CodeSystem/measure-population","code":"denominator-exclusion","display":"Denominator Exclusion"}]},"count":0},{"id":"Numerator_1","code":{"coding":[{"system":"http://terminology.hl7.org/CodeSystem/measure-population","code":"numerator","display":"Numerator"}]},"count":1}],"measureScore":{"value":0.0}}],"evaluatedResource":[{"reference":"Patient/543248c8-b6af-407d-b435-7e867c4770b4"},{"reference":"Encounter/60339120-42f2-474f-8571-18889e9824e6"},{"reference":"Coverage/57851786-f8b8-4844-a8be-ff203aaf1265"},{"reference":"Condition/51daa402-0f4f-491b-a67b-a79a2ca1d96b"},{"reference":"MedicationAdministration/87888baa-6d11-4e08-b612-c6aaafe420a2"},{"reference":"Organization/dedad33a-0be7-47ad-b78a-d9e904e788a5"},{"reference":"Practitioner/6b90ea73-d165-4543-9322-fd4692588a70"}]},"request":{"method":"PUT","url":"MeasureReport/ad05d77c-b398-4ed7-9142-a32cd2114e63"}}]}