{"resourceType":"Bundle","id":"tests-b0932ba4-4dfc-43ad-aa67-fbaee9638d3b-bundle","type":"transaction","entry":[{"fullUrl":"https://madie.cms.gov/Patient/b0932ba4-4dfc-43ad-aa67-fbaee9638d3b","resource":{"resourceType":"Patient","id":"b0932ba4-4dfc-43ad-aa67-fbaee9638d3b","meta":{"profile":["http://hl7.org/fhir/us/qicore/StructureDefinition/qicore-patient"]},"text":{"status":"generated","div":"<div xmlns=\"http://www.w3.org/1999/xhtml\"><div class=\"hapiHeaderText\">SCIPGenSurgRank1ProRvltDTDrgEnc <b>DENEXPASS </b></div><table class=\"hapiPropertyTable\"><tbody><tr><td>Identifier</td><td>66c70c125db369967b4b164e75338304</td></tr><tr><td>Date of birth</td><td><span>01 September 2000</span></td></tr></tbody></table></div>"},"extension":[{"url":"http://hl7.org/fhir/us/core/StructureDefinition/us-core-race","extension":[{"url":"ombCategory","valueCoding":{"system":"urn:oid:2.16.840.1.113883.6.238","code":"1002-5","display":"American Indian or Alaska Native","userSelected":true}},{"url":"text","valueString":"American Indian or Alaska Native"}]},{"url":"http://hl7.org/fhir/us/core/StructureDefinition/us-core-ethnicity","extension":[{"url":"ombCategory","valueCoding":{"system":"urn:oid:2.16.840.1.113883.6.238","code":"2135-2","display":"Hispanic or Latino","userSelected":true}},{"url":"text","valueString":"Hispanic or Latino"}]}],"identifier":[{"type":{"coding":[{"system":"http://terminology.hl7.org/CodeSystem/v2-0203","code":"MR"}]},"system":"https://bonnie-fhir.healthit.gov/","value":"612e6b2202c62a011f2ec9a3"}],"active":true,"name":[{"use":"usual","family":"DENEXPass ","given":["SCIPGenSurgRank1ProRvltDTDrgEnc"]}],"gender":"male","birthDate":"2001-09-01"},"request":{"method":"PUT","url":"Patient/b0932ba4-4dfc-43ad-aa67-fbaee9638d3b"}},{"fullUrl":"https://madie.cms.gov/Encounter/ac061555-93cf-411c-a827-d09c4c778dbd","resource":{"resourceType":"Encounter","id":"ac061555-93cf-411c-a827-d09c4c778dbd","meta":{"profile":["http://hl7.org/fhir/us/qicore/StructureDefinition/qicore-encounter"]},"status":"finished","class":{"system":"http://terminology.hl7.org/CodeSystem/v3-ActCode","code":"IMP","display":"inpatient encounter"},"type":[{"coding":[{"system":"http://snomed.info/sct","code":"183452005"}]}],"subject":{"reference":"Patient/b0932ba4-4dfc-43ad-aa67-fbaee9638d3b"},"period":{"start":"2026-09-02T06:00:00.000+00:00","end":"2026-12-31T12:59:00.000+00:00"},"length":{"value":120,"unit":"days"}},"request":{"method":"PUT","url":"Encounter/ac061555-93cf-411c-a827-d09c4c778dbd"}},{"fullUrl":"https://madie.cms.gov/claim/5ca62962b8484628b8de1ec5","resource":{"resourceType":"Claim","id":"5ca62962b8484628b8de1ec5","meta":{"profile":["http://hl7.org/fhir/us/qicore/StructureDefinition/qicore-claim"]},"status":"active","type":{"coding":[{"system":"http://terminology.hl7.org/CodeSystem/claim-type","code":"institutional"}]},"use":"claim","patient":{"reference":"Patient/b0932ba4-4dfc-43ad-aa67-fbaee9638d3b"},"created":"2026-12-01","provider":{"reference":"Practitioner/8ed7e9e0-4ab3-4e5c-9aaf-cc43907a098f"},"priority":{"coding":[{"system":"http://terminology.hl7.org/CodeSystem/processpriority","code":"normal"}]},"procedure":[{"sequence":1,"type":[{"coding":[{"system":"http://terminology.hl7.org/CodeSystem/ex-procedure-type","code":"primary"}]}],"procedureCodeableConcept":{"coding":[{"system":"http://www.cms.gov/Medicare/Coding/ICD10","code":"0F150D3"}]}}],"insurance":[{"sequence":1,"focal":true,"coverage":{"reference":"Coverage/b0932ba4-4dfc-43ad-aa67-fbaee9638d3b"}}],"item":[{"sequence":1,"procedureSequence":[1],"productOrService":{"coding":[{"system":"http://terminology.hl7.org/CodeSystem/ex-USCLS","code":"99555"}]},"encounter":[{"reference":"Encounter/ac061555-93cf-411c-a827-d09c4c778dbd"}]}]},"request":{"method":"PUT","url":"Claim/5ca62962b8484628b8de1ec5"}},{"fullUrl":"https://madie.cms.gov/Coverage/8a89b2d0-9198-440c-9dfa-c4e751fcb910","resource":{"resourceType":"Coverage","id":"8a89b2d0-9198-440c-9dfa-c4e751fcb910","status":"active","beneficiary":{"reference":"Patient/b0932ba4-4dfc-43ad-aa67-fbaee9638d3b"},"period":{"start":"2001-09-01T08:00:00.000+00:00"},"payor":[{"reference":"Organization/0a371908-b425-4153-98f7-514223bfd277"}]},"request":{"method":"PUT","url":"Coverage/8a89b2d0-9198-440c-9dfa-c4e751fcb910"}},{"fullUrl":"https://madie.cms.gov/Procedure/501db45f-e3f8-42b7-89e5-8e2f3062a86c","resource":{"resourceType":"Procedure","id":"501db45f-e3f8-42b7-89e5-8e2f3062a86c","meta":{"profile":["http://hl7.org/fhir/us/qicore/StructureDefinition/qicore-procedure"]},"extension":[{"url":"http://hl7.org/fhir/us/qicore/StructureDefinition/qicore-recorded","valueDateTime":"2026-09-02T13:35:00.000+00:00"}],"status":"completed","code":{"coding":[{"system":"http://www.cms.gov/Medicare/Coding/ICD10","code":"0F150D3","display":"Bypass Right Hepatic Duct to Duodenum with Intraluminal Device, Open Approach"}]},"subject":{"reference":"Patient/b0932ba4-4dfc-43ad-aa67-fbaee9638d3b"},"performedDateTime":"2026-09-02T09:00:00.000+00:00"},"request":{"method":"PUT","url":"Procedure/501db45f-e3f8-42b7-89e5-8e2f3062a86c"}},{"fullUrl":"https://madie.cms.gov/Organization/0a371908-b425-4153-98f7-514223bfd277","resource":{"resourceType":"Organization","id":"0a371908-b425-4153-98f7-514223bfd277","meta":{"profile":["http://hl7.org/fhir/us/qicore/StructureDefinition/qicore-organization"]},"identifier":[{"use":"temp","system":"urn:oid:2.16.840.1.113883.4.4","value":"21-3259825"}],"active":true,"type":[{"coding":[{"system":"http://terminology.hl7.org/CodeSystem/organization-type","code":"pay","display":"Payer"}]}],"name":"Blue Cross Blue Shield of Texas","telecom":[{"system":"phone","value":"(+1) 972-766-6900"}],"address":[{"use":"billing","type":"postal","line":["P.O. Box 660044"],"city":"Dallas","state":"TX","postalCode":"75266-0044","country":"USA"}]},"request":{"method":"PUT","url":"Organization/0a371908-b425-4153-98f7-514223bfd277"}},{"fullUrl":"https://madie.cms.gov/Practitioner/8ed7e9e0-4ab3-4e5c-9aaf-cc43907a098f","resource":{"resourceType":"Practitioner","id":"8ed7e9e0-4ab3-4e5c-9aaf-cc43907a098f","identifier":[{"system":"http://hl7.org/fhir/sid/us-npi","value":"123456"}],"name":[{"family":"Evil","prefix":["Dr"]}]},"request":{"method":"PUT","url":"Practitioner/8ed7e9e0-4ab3-4e5c-9aaf-cc43907a098f"}},{"fullUrl":"https://madie.cms.gov/MeasureReport/97642528-ec57-4837-ad10-df44375f293a","resource":{"resourceType":"MeasureReport","id":"97642528-ec57-4837-ad10-df44375f293a","meta":{"profile":["http://hl7.org/fhir/us/cqfmeasures/StructureDefinition/test-case-cqfm"]},"contained":[{"resourceType":"Parameters","id":"b8ba2697-c2c5-4212-af58-b680f081de8c-parameters","parameter":[{"name":"subject","valueString":"b0932ba4-4dfc-43ad-aa67-fbaee9638d3b"}]}],"extension":[{"url":"http://hl7.org/fhir/StructureDefinition/cqf-inputParameters","valueReference":{"reference":"#b8ba2697-c2c5-4212-af58-b680f081de8c-parameters"}},{"url":"http://hl7.org/fhir/us/cqfmeasures/StructureDefinition/cqfm-testCaseDescription","valueMarkdown":"SCIP_ principal GenSurg with procedure datetime DuringEnc"}],"modifierExtension":[{"url":"http://hl7.org/fhir/us/cqfmeasures/StructureDefinition/cqfm-isTestCase","valueBoolean":true}],"status":"complete","type":"individual","measure":"https://madie.cms.gov/Measure/CMS108FHIRVTEProphylaxis","period":{"start":"2026-01-01","end":"2026-12-31"},"group":[{"id":"Group_1","population":[{"id":"InitialPopulation_1","code":{"coding":[{"system":"http://terminology.hl7.org/CodeSystem/measure-population","code":"initial-population","display":"Initial Population"}]},"count":1},{"id":"Denominator_1","code":{"coding":[{"system":"http://terminology.hl7.org/CodeSystem/measure-population","code":"denominator","display":"Denominator"}]},"count":1},{"id":"DenominatorExclusion_1","code":{"coding":[{"system":"http://terminology.hl7.org/CodeSystem/measure-population","code":"denominator-exclusion","display":"Denominator Exclusion"}]},"count":1},{"id":"Numerator_1","code":{"coding":[{"system":"http://terminology.hl7.org/CodeSystem/measure-population","code":"numerator","display":"Numerator"}]},"count":0}],"measureScore":{"value":0.0}}],"evaluatedResource":[{"reference":"Patient/b0932ba4-4dfc-43ad-aa67-fbaee9638d3b"},{"reference":"Encounter/ac061555-93cf-411c-a827-d09c4c778dbd"},{"reference":"Claim/5ca62962b8484628b8de1ec5"},{"reference":"Coverage/8a89b2d0-9198-440c-9dfa-c4e751fcb910"},{"reference":"Procedure/501db45f-e3f8-42b7-89e5-8e2f3062a86c"},{"reference":"Organization/0a371908-b425-4153-98f7-514223bfd277"},{"reference":"Practitioner/8ed7e9e0-4ab3-4e5c-9aaf-cc43907a098f"}]},"request":{"method":"PUT","url":"MeasureReport/97642528-ec57-4837-ad10-df44375f293a"}}]}