{"resourceType":"Bundle","id":"tests-6b1471ba-f1b5-4c2f-ae25-779c5694dfb8-bundle","type":"transaction","entry":[{"fullUrl":"https://madie.cms.gov/Patient/6b1471ba-f1b5-4c2f-ae25-779c5694dfb8","resource":{"resourceType":"Patient","id":"6b1471ba-f1b5-4c2f-ae25-779c5694dfb8","meta":{"profile":["http://hl7.org/fhir/us/qicore/StructureDefinition/qicore-patient"]},"text":{"status":"generated","div":"<div xmlns=\"http://www.w3.org/1999/xhtml\"><div class=\"hapiHeaderText\">EncDx_IschemicStrokeRank2 <b>DENEXFAIL </b></div><table class=\"hapiPropertyTable\"><tbody><tr><td>Identifier</td><td>29c9716eb5f48b54d7b337bf497e0e5e</td></tr><tr><td>Date of birth</td><td><span>01 December 2003</span></td></tr></tbody></table></div>"},"extension":[{"url":"http://hl7.org/fhir/us/core/StructureDefinition/us-core-race","extension":[{"url":"ombCategory","valueCoding":{"system":"urn:oid:2.16.840.1.113883.6.238","code":"1002-5","display":"American Indian or Alaska Native","userSelected":true}},{"url":"text","valueString":"American Indian or Alaska Native"}]},{"url":"http://hl7.org/fhir/us/core/StructureDefinition/us-core-ethnicity","extension":[{"url":"ombCategory","valueCoding":{"system":"urn:oid:2.16.840.1.113883.6.238","code":"2135-2","display":"Hispanic or Latino","userSelected":true}},{"url":"text","valueString":"Hispanic or Latino"}]}],"identifier":[{"type":{"coding":[{"system":"http://terminology.hl7.org/CodeSystem/v2-0203","code":"MR"}]},"system":"https://bonnie-fhir.healthit.gov/","value":"612e6aff02c62a011f2ec0bb"}],"active":true,"name":[{"use":"usual","family":"DENEXFail","given":["EncDxIschemicStrokeRank2"]}],"gender":"female","birthDate":"2004-11-30"},"request":{"method":"PUT","url":"Patient/6b1471ba-f1b5-4c2f-ae25-779c5694dfb8"}},{"fullUrl":"https://madie.cms.gov/Encounter/a22065cb-536c-4e76-9077-fc15cc8605b1","resource":{"resourceType":"Encounter","id":"a22065cb-536c-4e76-9077-fc15cc8605b1","meta":{"profile":["http://hl7.org/fhir/us/qicore/StructureDefinition/qicore-encounter"]},"status":"finished","class":{"system":"http://terminology.hl7.org/CodeSystem/v3-ActCode","code":"IMP","display":"inpatient encounter"},"type":[{"coding":[{"system":"http://snomed.info/sct","code":"183452005"}]}],"subject":{"reference":"Patient/6b1471ba-f1b5-4c2f-ae25-779c5694dfb8"},"period":{"start":"2026-12-01T01:00:00.000+00:00","end":"2026-12-31T23:59:00.000+00:00"},"length":{"value":30,"unit":"days"},"reasonReference":[{"reference":"Condition/51277c98-6b91-4057-8861-dc8402c7e17e"}]},"request":{"method":"PUT","url":"Encounter/a22065cb-536c-4e76-9077-fc15cc8605b1"}},{"fullUrl":"https://madie.cms.gov/Coverage/6ec38e62-1868-4092-9727-075edf67b62d","resource":{"resourceType":"Coverage","id":"6ec38e62-1868-4092-9727-075edf67b62d","status":"active","beneficiary":{"reference":"Patient/6b1471ba-f1b5-4c2f-ae25-779c5694dfb8"},"period":{"start":"2004-12-01T01:00:00.000+00:00"},"payor":[{"reference":"Organization/f59a786e-1fce-4c4a-9af8-4410c620398f"}]},"request":{"method":"PUT","url":"Coverage/6ec38e62-1868-4092-9727-075edf67b62d"}},{"fullUrl":"https://madie.cms.gov/Condition/51277c98-6b91-4057-8861-dc8402c7e17e","resource":{"resourceType":"Condition","id":"51277c98-6b91-4057-8861-dc8402c7e17e","meta":{"profile":["http://hl7.org/fhir/us/qicore/StructureDefinition/qicore-condition-encounter-diagnosis"]},"category":[{"coding":[{"system":"http://terminology.hl7.org/CodeSystem/condition-category","code":"encounter-diagnosis","display":"Encounter Diagnosis"}]}],"code":{"coding":[{"system":"http://snomed.info/sct","code":"195185009","display":"Cerebral infarct due to thrombosis of precerebral arteries (disorder)","userSelected":true}]},"subject":{"reference":"Patient/6b1471ba-f1b5-4c2f-ae25-779c5694dfb8"},"recordedDate":"2026-12-12T08:00:00.000+00:00"},"request":{"method":"PUT","url":"Condition/51277c98-6b91-4057-8861-dc8402c7e17e"}},{"fullUrl":"https://madie.cms.gov/Organization/f59a786e-1fce-4c4a-9af8-4410c620398f","resource":{"resourceType":"Organization","id":"f59a786e-1fce-4c4a-9af8-4410c620398f","meta":{"profile":["http://hl7.org/fhir/us/qicore/StructureDefinition/qicore-organization"]},"identifier":[{"use":"temp","system":"urn:oid:2.16.840.1.113883.4.4","value":"21-3259825"}],"active":true,"type":[{"coding":[{"system":"http://terminology.hl7.org/CodeSystem/organization-type","code":"pay","display":"Payer"}]}],"name":"Blue Cross Blue Shield of Texas","telecom":[{"system":"phone","value":"(+1) 972-766-6900"}],"address":[{"use":"billing","type":"postal","line":["P.O. Box 660044"],"city":"Dallas","state":"TX","postalCode":"75266-0044","country":"USA"}]},"request":{"method":"PUT","url":"Organization/f59a786e-1fce-4c4a-9af8-4410c620398f"}},{"fullUrl":"https://madie.cms.gov/Practitioner/8a506651-1360-4cad-a572-144b0b1d6343","resource":{"resourceType":"Practitioner","id":"8a506651-1360-4cad-a572-144b0b1d6343","identifier":[{"system":"http://hl7.org/fhir/sid/us-npi","value":"123456"}],"name":[{"family":"Evil","prefix":["Dr"]}]},"request":{"method":"PUT","url":"Practitioner/8a506651-1360-4cad-a572-144b0b1d6343"}},{"fullUrl":"https://madie.cms.gov/MeasureReport/dacef8f1-59f3-487d-b8f2-88e16347ecef","resource":{"resourceType":"MeasureReport","id":"dacef8f1-59f3-487d-b8f2-88e16347ecef","meta":{"profile":["http://hl7.org/fhir/us/cqfmeasures/StructureDefinition/test-case-cqfm"]},"contained":[{"resourceType":"Parameters","id":"8c097b33-04f8-4a31-9bf8-0a845f661773-parameters","parameter":[{"name":"subject","valueString":"6b1471ba-f1b5-4c2f-ae25-779c5694dfb8"}]}],"extension":[{"url":"http://hl7.org/fhir/StructureDefinition/cqf-inputParameters","valueReference":{"reference":"#8c097b33-04f8-4a31-9bf8-0a845f661773-parameters"}},{"url":"http://hl7.org/fhir/us/cqfmeasures/StructureDefinition/cqfm-testCaseDescription","valueMarkdown":"Encounter Dx of Ischemic Stroke without Rank.\n"}],"modifierExtension":[{"url":"http://hl7.org/fhir/us/cqfmeasures/StructureDefinition/cqfm-isTestCase","valueBoolean":true}],"status":"complete","type":"individual","measure":"https://madie.cms.gov/Measure/CMS108FHIRVTEProphylaxis","period":{"start":"2026-01-01","end":"2026-12-31"},"group":[{"id":"Group_1","population":[{"id":"InitialPopulation_1","code":{"coding":[{"system":"http://terminology.hl7.org/CodeSystem/measure-population","code":"initial-population","display":"Initial Population"}]},"count":1},{"id":"Denominator_1","code":{"coding":[{"system":"http://terminology.hl7.org/CodeSystem/measure-population","code":"denominator","display":"Denominator"}]},"count":1},{"id":"DenominatorExclusion_1","code":{"coding":[{"system":"http://terminology.hl7.org/CodeSystem/measure-population","code":"denominator-exclusion","display":"Denominator Exclusion"}]},"count":0},{"id":"Numerator_1","code":{"coding":[{"system":"http://terminology.hl7.org/CodeSystem/measure-population","code":"numerator","display":"Numerator"}]},"count":0}],"measureScore":{"value":0.0}}],"evaluatedResource":[{"reference":"Patient/6b1471ba-f1b5-4c2f-ae25-779c5694dfb8"},{"reference":"Encounter/a22065cb-536c-4e76-9077-fc15cc8605b1"},{"reference":"Coverage/6ec38e62-1868-4092-9727-075edf67b62d"},{"reference":"Condition/51277c98-6b91-4057-8861-dc8402c7e17e"},{"reference":"Organization/f59a786e-1fce-4c4a-9af8-4410c620398f"},{"reference":"Practitioner/8a506651-1360-4cad-a572-144b0b1d6343"}]},"request":{"method":"PUT","url":"MeasureReport/dacef8f1-59f3-487d-b8f2-88e16347ecef"}}]}