{"resourceType":"Bundle","id":"tests-afad0252-21ef-48ee-9a5a-33dab92d8709-bundle","type":"transaction","entry":[{"fullUrl":"https://madie.cms.gov/Patient/afad0252-21ef-48ee-9a5a-33dab92d8709","resource":{"resourceType":"Patient","id":"afad0252-21ef-48ee-9a5a-33dab92d8709","meta":{"profile":["http://hl7.org/fhir/us/qicore/StructureDefinition/qicore-patient"]},"text":{"status":"generated","div":"<div xmlns=\"http://www.w3.org/1999/xhtml\"><div class=\"hapiHeaderText\">CMOPerf_DayofAnes <b>DENEXPASS </b></div><table class=\"hapiPropertyTable\"><tbody><tr><td>Identifier</td><td>ee7153b84916a96927e2b346d9ea62ff</td></tr><tr><td>Date of birth</td><td><span>02 January 1974</span></td></tr></tbody></table></div>"},"extension":[{"url":"http://hl7.org/fhir/us/core/StructureDefinition/us-core-race","extension":[{"url":"ombCategory","valueCoding":{"system":"urn:oid:2.16.840.1.113883.6.238","code":"1002-5","display":"American Indian or Alaska Native","userSelected":true}},{"url":"text","valueString":"American Indian or Alaska Native"}]},{"url":"http://hl7.org/fhir/us/core/StructureDefinition/us-core-ethnicity","extension":[{"url":"ombCategory","valueCoding":{"system":"urn:oid:2.16.840.1.113883.6.238","code":"2135-2","display":"Hispanic or Latino","userSelected":true}},{"url":"text","valueString":"Hispanic or Latino"}]}],"identifier":[{"type":{"coding":[{"system":"http://terminology.hl7.org/CodeSystem/v2-0203","code":"MR"}]},"system":"https://bonnie-fhir.healthit.gov/","value":"612e6b4102c62a011f2ed12f"}],"active":true,"name":[{"use":"usual","family":"DENEXPass","given":["CMOPerfDayofAnes"]}],"gender":"male","birthDate":"1975-01-02"},"request":{"method":"PUT","url":"Patient/afad0252-21ef-48ee-9a5a-33dab92d8709"}},{"fullUrl":"https://madie.cms.gov/Encounter/3adda045-79c8-4b15-945e-2f324b63b1e0","resource":{"resourceType":"Encounter","id":"3adda045-79c8-4b15-945e-2f324b63b1e0","meta":{"profile":["http://hl7.org/fhir/us/qicore/StructureDefinition/qicore-encounter"]},"status":"finished","class":{"system":"http://terminology.hl7.org/CodeSystem/v3-ActCode","code":"IMP","display":"inpatient encounter"},"type":[{"coding":[{"system":"http://snomed.info/sct","code":"8715000"}]}],"subject":{"reference":"Patient/afad0252-21ef-48ee-9a5a-33dab92d8709"},"period":{"start":"2026-11-01T08:00:00.000+00:00","end":"2026-11-26T08:15:00.000+00:00"},"length":{"value":25,"unit":"days"}},"request":{"method":"PUT","url":"Encounter/3adda045-79c8-4b15-945e-2f324b63b1e0"}},{"fullUrl":"https://madie.cms.gov/Procedure/bbac9829-35e0-42ad-be2b-c76fd4c58108","resource":{"resourceType":"Procedure","id":"bbac9829-35e0-42ad-be2b-c76fd4c58108","meta":{"profile":["http://hl7.org/fhir/us/qicore/StructureDefinition/qicore-procedure"]},"extension":[{"url":"http://hl7.org/fhir/us/qicore/StructureDefinition/qicore-recorded","valueDateTime":"2013-11-02T13:35:00.000+00:00"}],"status":"completed","code":{"coding":[{"system":"http://snomed.info/sct","code":"133918004","display":"Comfort measures (regime/therapy)"}]},"subject":{"reference":"Patient/afad0252-21ef-48ee-9a5a-33dab92d8709"},"performedPeriod":{"start":"2026-11-02T11:00:00.000+00:00"}},"request":{"method":"PUT","url":"Procedure/bbac9829-35e0-42ad-be2b-c76fd4c58108"}},{"fullUrl":"https://madie.cms.gov/Coverage/98f3deb8-d656-447d-a338-78d4deb99b0b","resource":{"resourceType":"Coverage","id":"98f3deb8-d656-447d-a338-78d4deb99b0b","status":"active","beneficiary":{"reference":"Patient/afad0252-21ef-48ee-9a5a-33dab92d8709"},"period":{"start":"1975-01-02T08:00:00.000+00:00"},"payor":[{"reference":"Organization/05613581-38a6-4a5b-8f3c-4e0a0384032d"}]},"request":{"method":"PUT","url":"Coverage/98f3deb8-d656-447d-a338-78d4deb99b0b"}},{"fullUrl":"https://madie.cms.gov/Procedure/0c9c4322-78c2-4a80-9df8-896bdace8e43","resource":{"resourceType":"Procedure","id":"0c9c4322-78c2-4a80-9df8-896bdace8e43","meta":{"profile":["http://hl7.org/fhir/us/qicore/StructureDefinition/qicore-procedure"]},"extension":[{"url":"http://hl7.org/fhir/us/qicore/StructureDefinition/qicore-recorded","valueDateTime":"2013-11-19T13:35:00.000+00:00"}],"status":"completed","code":{"coding":[{"system":"http://www.cms.gov/Medicare/Coding/ICD10","code":"3E030FZ"},{"system":"http://snomed.info/sct","code":"18946005"}]},"subject":{"reference":"Patient/afad0252-21ef-48ee-9a5a-33dab92d8709"},"performedPeriod":{"start":"2026-11-02T09:00:00.000+00:00","end":"2026-11-02T09:15:00.000+00:00"}},"request":{"method":"PUT","url":"Procedure/0c9c4322-78c2-4a80-9df8-896bdace8e43"}},{"fullUrl":"https://madie.cms.gov/Organization/05613581-38a6-4a5b-8f3c-4e0a0384032d","resource":{"resourceType":"Organization","id":"05613581-38a6-4a5b-8f3c-4e0a0384032d","meta":{"profile":["http://hl7.org/fhir/us/qicore/StructureDefinition/qicore-organization"]},"identifier":[{"use":"temp","system":"urn:oid:2.16.840.1.113883.4.4","value":"21-3259825"}],"active":true,"type":[{"coding":[{"system":"http://terminology.hl7.org/CodeSystem/organization-type","code":"pay","display":"Payer"}]}],"name":"Blue Cross Blue Shield of Texas","telecom":[{"system":"phone","value":"(+1) 972-766-6900"}],"address":[{"use":"billing","type":"postal","line":["P.O. Box 660044"],"city":"Dallas","state":"TX","postalCode":"75266-0044","country":"USA"}]},"request":{"method":"PUT","url":"Organization/05613581-38a6-4a5b-8f3c-4e0a0384032d"}},{"fullUrl":"https://madie.cms.gov/Practitioner/c20d4e53-0d65-479d-b6f8-3a259baae152","resource":{"resourceType":"Practitioner","id":"c20d4e53-0d65-479d-b6f8-3a259baae152","identifier":[{"system":"http://hl7.org/fhir/sid/us-npi","value":"123456"}],"name":[{"family":"Evil","prefix":["Dr"]}]},"request":{"method":"PUT","url":"Practitioner/c20d4e53-0d65-479d-b6f8-3a259baae152"}},{"fullUrl":"https://madie.cms.gov/MeasureReport/04f915a3-d090-4a5f-968c-86b573584ffc","resource":{"resourceType":"MeasureReport","id":"04f915a3-d090-4a5f-968c-86b573584ffc","meta":{"profile":["http://hl7.org/fhir/us/cqfmeasures/StructureDefinition/test-case-cqfm"]},"contained":[{"resourceType":"Parameters","id":"8a142353-6d17-4083-bfc1-c973e7336ef4-parameters","parameter":[{"name":"subject","valueString":"afad0252-21ef-48ee-9a5a-33dab92d8709"}]}],"extension":[{"url":"http://hl7.org/fhir/StructureDefinition/cqf-inputParameters","valueReference":{"reference":"#8a142353-6d17-4083-bfc1-c973e7336ef4-parameters"}},{"url":"http://hl7.org/fhir/us/cqfmeasures/StructureDefinition/cqfm-testCaseDescription","valueMarkdown":"CMO performed on the day of Anesthesia end day"}],"modifierExtension":[{"url":"http://hl7.org/fhir/us/cqfmeasures/StructureDefinition/cqfm-isTestCase","valueBoolean":true}],"status":"complete","type":"individual","measure":"https://madie.cms.gov/Measure/CMS108FHIRVTEProphylaxis","period":{"start":"2026-01-01","end":"2026-12-31"},"group":[{"id":"Group_1","population":[{"id":"InitialPopulation_1","code":{"coding":[{"system":"http://terminology.hl7.org/CodeSystem/measure-population","code":"initial-population","display":"Initial Population"}]},"count":1},{"id":"Denominator_1","code":{"coding":[{"system":"http://terminology.hl7.org/CodeSystem/measure-population","code":"denominator","display":"Denominator"}]},"count":1},{"id":"DenominatorExclusion_1","code":{"coding":[{"system":"http://terminology.hl7.org/CodeSystem/measure-population","code":"denominator-exclusion","display":"Denominator Exclusion"}]},"count":1},{"id":"Numerator_1","code":{"coding":[{"system":"http://terminology.hl7.org/CodeSystem/measure-population","code":"numerator","display":"Numerator"}]},"count":0}],"measureScore":{"value":0.0}}],"evaluatedResource":[{"reference":"Patient/afad0252-21ef-48ee-9a5a-33dab92d8709"},{"reference":"Encounter/3adda045-79c8-4b15-945e-2f324b63b1e0"},{"reference":"Procedure/bbac9829-35e0-42ad-be2b-c76fd4c58108"},{"reference":"Coverage/98f3deb8-d656-447d-a338-78d4deb99b0b"},{"reference":"Procedure/0c9c4322-78c2-4a80-9df8-896bdace8e43"},{"reference":"Organization/05613581-38a6-4a5b-8f3c-4e0a0384032d"},{"reference":"Practitioner/c20d4e53-0d65-479d-b6f8-3a259baae152"}]},"request":{"method":"PUT","url":"MeasureReport/04f915a3-d090-4a5f-968c-86b573584ffc"}}]}