{"resourceType":"Bundle","id":"tests-eda87b8e-5b2a-46f5-af96-a7c0b75131ec-bundle","type":"transaction","entry":[{"fullUrl":"https://madie.cms.gov/Patient/eda87b8e-5b2a-46f5-af96-a7c0b75131ec","resource":{"resourceType":"Patient","id":"eda87b8e-5b2a-46f5-af96-a7c0b75131ec","meta":{"profile":["http://hl7.org/fhir/us/qicore/StructureDefinition/qicore-patient"]},"text":{"status":"generated","div":"<div xmlns=\"http://www.w3.org/1999/xhtml\"><div class=\"hapiHeaderText\">ICUStartOnEncStartTime <b>DENEXPASS </b></div><table class=\"hapiPropertyTable\"><tbody><tr><td>Identifier</td><td>11bb5362fa7c7b63061d0c716b7b8ddb</td></tr><tr><td>Date of birth</td><td><span>02 January 1974</span></td></tr></tbody></table></div>"},"extension":[{"url":"http://hl7.org/fhir/us/core/StructureDefinition/us-core-race","extension":[{"url":"ombCategory","valueCoding":{"system":"urn:oid:2.16.840.1.113883.6.238","code":"1002-5","display":"American Indian or Alaska Native","userSelected":true}},{"url":"text","valueString":"American Indian or Alaska Native"}]},{"url":"http://hl7.org/fhir/us/core/StructureDefinition/us-core-ethnicity","extension":[{"url":"ombCategory","valueCoding":{"system":"urn:oid:2.16.840.1.113883.6.238","code":"2135-2","display":"Hispanic or Latino","userSelected":true}},{"url":"text","valueString":"Hispanic or Latino"}]}],"identifier":[{"type":{"coding":[{"system":"http://terminology.hl7.org/CodeSystem/v2-0203","code":"MR"}]},"system":"https://bonnie-fhir.healthit.gov/","value":"612e6b3a02c62a011f2ecf6d"}],"active":true,"name":[{"use":"usual","family":"DENEXPass","given":["ICUStartOnEncStartTime"]}],"gender":"male","birthDate":"1975-01-02"},"request":{"method":"PUT","url":"Patient/eda87b8e-5b2a-46f5-af96-a7c0b75131ec"}},{"fullUrl":"https://madie.cms.gov/Encounter/d1c53cb9-c3f3-4215-b987-318c014654a3","resource":{"resourceType":"Encounter","id":"d1c53cb9-c3f3-4215-b987-318c014654a3","meta":{"profile":["http://hl7.org/fhir/us/qicore/StructureDefinition/qicore-encounter"]},"status":"finished","class":{"system":"http://terminology.hl7.org/CodeSystem/v3-ActCode","code":"IMP","display":"inpatient encounter"},"type":[{"coding":[{"system":"http://snomed.info/sct","code":"8715000"}]}],"subject":{"reference":"Patient/eda87b8e-5b2a-46f5-af96-a7c0b75131ec"},"period":{"start":"2026-11-01T08:00:00.000+00:00","end":"2026-11-26T08:15:00.000+00:00"},"length":{"value":25.0,"unit":"days"},"location":[{"location":{"reference":"Location/b3363ce2-14cb-4fd6-9b2e-d7d51683dd1e"},"period":{"start":"2026-11-01T08:00:00.000+00:00","end":"2026-11-03T18:15:00.000+00:00"}}]},"request":{"method":"PUT","url":"Encounter/d1c53cb9-c3f3-4215-b987-318c014654a3"}},{"fullUrl":"https://madie.cms.gov/Coverage/9ec9f353-8891-45f6-9e1f-550d90417895","resource":{"resourceType":"Coverage","id":"9ec9f353-8891-45f6-9e1f-550d90417895","status":"active","beneficiary":{"reference":"Patient/eda87b8e-5b2a-46f5-af96-a7c0b75131ec"},"period":{"start":"1975-01-02T08:00:00.000+00:00"},"payor":[{"reference":"Organization/8bb42221-df01-4062-b98c-2afeea963f4c"}]},"request":{"method":"PUT","url":"Coverage/9ec9f353-8891-45f6-9e1f-550d90417895"}},{"fullUrl":"https://madie.cms.gov/Location/b3363ce2-14cb-4fd6-9b2e-d7d51683dd1e","resource":{"resourceType":"Location","id":"b3363ce2-14cb-4fd6-9b2e-d7d51683dd1e","meta":{"profile":["http://hl7.org/fhir/us/qicore/StructureDefinition/qicore-location"]},"identifier":[{"use":"usual","system":"http://exampleoflocation.com","value":"B1-S.F2"}],"name":"Medical Surgical East, first floor","type":[{"coding":[{"system":"https://www.cdc.gov/nhsn/cdaportal/terminology/codesystem/hsloc.html","version":"2020","code":"1025-6","display":"Trauma Critical Care","userSelected":true}]}]},"request":{"method":"PUT","url":"Location/b3363ce2-14cb-4fd6-9b2e-d7d51683dd1e"}},{"fullUrl":"https://madie.cms.gov/Organization/8bb42221-df01-4062-b98c-2afeea963f4c","resource":{"resourceType":"Organization","id":"8bb42221-df01-4062-b98c-2afeea963f4c","meta":{"profile":["http://hl7.org/fhir/us/qicore/StructureDefinition/qicore-organization"]},"identifier":[{"use":"temp","system":"urn:oid:2.16.840.1.113883.4.4","value":"21-3259825"}],"active":true,"type":[{"coding":[{"system":"http://terminology.hl7.org/CodeSystem/organization-type","code":"pay","display":"Payer"}]}],"name":"Blue Cross Blue Shield of Texas","telecom":[{"system":"phone","value":"(+1) 972-766-6900"}],"address":[{"use":"billing","type":"postal","line":["P.O. Box 660044"],"city":"Dallas","state":"TX","postalCode":"75266-0044","country":"USA"}]},"request":{"method":"PUT","url":"Organization/8bb42221-df01-4062-b98c-2afeea963f4c"}},{"fullUrl":"https://madie.cms.gov/Practitioner/0a95d32f-3eaa-4304-82fc-cdb44bcc6c79","resource":{"resourceType":"Practitioner","id":"0a95d32f-3eaa-4304-82fc-cdb44bcc6c79","identifier":[{"system":"http://hl7.org/fhir/sid/us-npi","value":"123456"}],"name":[{"family":"Evil","prefix":["Dr"]}]},"request":{"method":"PUT","url":"Practitioner/0a95d32f-3eaa-4304-82fc-cdb44bcc6c79"}},{"fullUrl":"https://madie.cms.gov/MeasureReport/dac85722-2f62-435e-96e6-210fa77cf74f","resource":{"resourceType":"MeasureReport","id":"dac85722-2f62-435e-96e6-210fa77cf74f","meta":{"profile":["http://hl7.org/fhir/us/cqfmeasures/StructureDefinition/test-case-cqfm"]},"contained":[{"resourceType":"Parameters","id":"3cfe0cd4-b586-4c0e-a6e7-1e794d44abb3-parameters","parameter":[{"name":"subject","valueString":"eda87b8e-5b2a-46f5-af96-a7c0b75131ec"}]}],"extension":[{"url":"http://hl7.org/fhir/StructureDefinition/cqf-inputParameters","valueReference":{"reference":"#3cfe0cd4-b586-4c0e-a6e7-1e794d44abb3-parameters"}},{"url":"http://hl7.org/fhir/us/cqfmeasures/StructureDefinition/cqfm-testCaseDescription","valueMarkdown":"ICU admission starts concurrent with start of EncInp\n"}],"modifierExtension":[{"url":"http://hl7.org/fhir/us/cqfmeasures/StructureDefinition/cqfm-isTestCase","valueBoolean":true}],"status":"complete","type":"individual","measure":"https://madie.cms.gov/Measure/CMS108FHIRVTEProphylaxis","period":{"start":"2026-01-01","end":"2026-12-31"},"group":[{"id":"Group_1","population":[{"id":"InitialPopulation_1","code":{"coding":[{"system":"http://terminology.hl7.org/CodeSystem/measure-population","code":"initial-population","display":"Initial Population"}]},"count":1},{"id":"Denominator_1","code":{"coding":[{"system":"http://terminology.hl7.org/CodeSystem/measure-population","code":"denominator","display":"Denominator"}]},"count":1},{"id":"DenominatorExclusion_1","code":{"coding":[{"system":"http://terminology.hl7.org/CodeSystem/measure-population","code":"denominator-exclusion","display":"Denominator Exclusion"}]},"count":1},{"id":"Numerator_1","code":{"coding":[{"system":"http://terminology.hl7.org/CodeSystem/measure-population","code":"numerator","display":"Numerator"}]},"count":0}],"measureScore":{"value":0.0}}],"evaluatedResource":[{"reference":"Patient/eda87b8e-5b2a-46f5-af96-a7c0b75131ec"},{"reference":"Encounter/d1c53cb9-c3f3-4215-b987-318c014654a3"},{"reference":"Coverage/9ec9f353-8891-45f6-9e1f-550d90417895"},{"reference":"Location/b3363ce2-14cb-4fd6-9b2e-d7d51683dd1e"},{"reference":"Organization/8bb42221-df01-4062-b98c-2afeea963f4c"},{"reference":"Practitioner/0a95d32f-3eaa-4304-82fc-cdb44bcc6c79"}]},"request":{"method":"PUT","url":"MeasureReport/dac85722-2f62-435e-96e6-210fa77cf74f"}}]}