{"resourceType":"Bundle","id":"tests-316da95d-60f2-4a74-9a28-7a4adb7c0098-bundle","type":"transaction","entry":[{"fullUrl":"https://madie.cms.gov/Patient/316da95d-60f2-4a74-9a28-7a4adb7c0098","resource":{"resourceType":"Patient","id":"316da95d-60f2-4a74-9a28-7a4adb7c0098","meta":{"profile":["http://hl7.org/fhir/us/qicore/StructureDefinition/qicore-patient"]},"text":{"status":"generated","div":"<div xmlns=\"http://www.w3.org/1999/xhtml\"><div class=\"hapiHeaderText\">EncB4MP <b>IPPFAIL </b></div><table class=\"hapiPropertyTable\"><tbody><tr><td>Identifier</td><td>2d99ac3a4fb95c3e67df4d790ccc8402</td></tr><tr><td>Date of birth</td><td><span>01 January 2009</span></td></tr></tbody></table></div>"},"extension":[{"url":"http://hl7.org/fhir/us/core/StructureDefinition/us-core-race","extension":[{"url":"ombCategory","valueCoding":{"system":"urn:oid:2.16.840.1.113883.6.238","code":"1002-5","display":"American Indian or Alaska Native","userSelected":true}},{"url":"text","valueString":"American Indian or Alaska Native"}]},{"url":"http://hl7.org/fhir/us/core/StructureDefinition/us-core-ethnicity","extension":[{"url":"ombCategory","valueCoding":{"system":"urn:oid:2.16.840.1.113883.6.238","code":"2135-2","display":"Hispanic or Latino","userSelected":true}},{"url":"text","valueString":"Hispanic or Latino"}]}],"identifier":[{"type":{"coding":[{"system":"http://terminology.hl7.org/CodeSystem/v2-0203","code":"MR"}]},"system":"https://bonnie-fhir.healthit.gov/","value":"612e6a4f02c62a011f2e9958"}],"active":true,"name":[{"use":"usual","family":"IPPFail","given":["EncB4MP"]}],"gender":"male","birthDate":"2010-01-01"},"request":{"method":"PUT","url":"Patient/316da95d-60f2-4a74-9a28-7a4adb7c0098"}},{"fullUrl":"https://madie.cms.gov/Encounter/67b986c3-7958-4d77-9ec3-37f335df65d8","resource":{"resourceType":"Encounter","id":"67b986c3-7958-4d77-9ec3-37f335df65d8","meta":{"profile":["http://hl7.org/fhir/us/qicore/StructureDefinition/qicore-encounter"]},"status":"finished","class":{"system":"http://terminology.hl7.org/CodeSystem/v3-ActCode","code":"IMP","display":"inpatient encounter"},"type":[{"coding":[{"system":"http://snomed.info/sct","code":"8715000"}]}],"subject":{"reference":"Patient/316da95d-60f2-4a74-9a28-7a4adb7c0098"},"period":{"start":"2026-11-01T08:00:00.000+00:00","end":"2026-11-26T08:15:00.000+00:00"},"length":{"value":329.0,"unit":"days"}},"request":{"method":"PUT","url":"Encounter/67b986c3-7958-4d77-9ec3-37f335df65d8"}},{"fullUrl":"https://madie.cms.gov/Coverage/7c2a0671-afb5-4371-bbf3-1491e38886e8","resource":{"resourceType":"Coverage","id":"7c2a0671-afb5-4371-bbf3-1491e38886e8","status":"active","beneficiary":{"reference":"Patient/316da95d-60f2-4a74-9a28-7a4adb7c0098"},"period":{"start":"2010-01-01T08:00:00.000+00:00"},"payor":[{"reference":"Organization/266f2967-e8ef-4ae3-99d0-f9edbb02ee45"}]},"request":{"method":"PUT","url":"Coverage/7c2a0671-afb5-4371-bbf3-1491e38886e8"}},{"fullUrl":"https://madie.cms.gov/MedicationAdministration/2680ba55-3325-42af-88e1-03f1e18320e8","resource":{"resourceType":"MedicationAdministration","id":"2680ba55-3325-42af-88e1-03f1e18320e8","status":"completed","medicationCodeableConcept":{"coding":[{"system":"http://www.nlm.nih.gov/research/umls/rxnorm","code":"854228"}]},"subject":{"reference":"Patient/316da95d-60f2-4a74-9a28-7a4adb7c0098"},"effectivePeriod":{"start":"2021-11-01T08:10:00.000+00:00","end":"2021-12-26T08:15:00.000+00:00"}},"request":{"method":"PUT","url":"MedicationAdministration/2680ba55-3325-42af-88e1-03f1e18320e8"}},{"fullUrl":"https://madie.cms.gov/Organization/266f2967-e8ef-4ae3-99d0-f9edbb02ee45","resource":{"resourceType":"Organization","id":"266f2967-e8ef-4ae3-99d0-f9edbb02ee45","meta":{"profile":["http://hl7.org/fhir/us/qicore/StructureDefinition/qicore-organization"]},"identifier":[{"use":"temp","system":"urn:oid:2.16.840.1.113883.4.4","value":"21-3259825"}],"active":true,"type":[{"coding":[{"system":"http://terminology.hl7.org/CodeSystem/organization-type","code":"pay","display":"Payer"}]}],"name":"Blue Cross Blue Shield of Texas","telecom":[{"system":"phone","value":"(+1) 972-766-6900"}],"address":[{"use":"billing","type":"postal","line":["P.O. Box 660044"],"city":"Dallas","state":"TX","postalCode":"75266-0044","country":"USA"}]},"request":{"method":"PUT","url":"Organization/266f2967-e8ef-4ae3-99d0-f9edbb02ee45"}},{"fullUrl":"https://madie.cms.gov/Practitioner/2bdf8a5c-d235-4350-adb4-09cf5617915f","resource":{"resourceType":"Practitioner","id":"2bdf8a5c-d235-4350-adb4-09cf5617915f","identifier":[{"system":"http://hl7.org/fhir/sid/us-npi","value":"123456"}],"name":[{"family":"Evil","prefix":["Dr"]}]},"request":{"method":"PUT","url":"Practitioner/2bdf8a5c-d235-4350-adb4-09cf5617915f"}},{"fullUrl":"https://madie.cms.gov/MeasureReport/497dd071-d5c9-4071-b134-105d8d527885","resource":{"resourceType":"MeasureReport","id":"497dd071-d5c9-4071-b134-105d8d527885","meta":{"profile":["http://hl7.org/fhir/us/cqfmeasures/StructureDefinition/test-case-cqfm"]},"contained":[{"resourceType":"Parameters","id":"9dadea7a-6c4a-486a-8a77-f4004cc0218e-parameters","parameter":[{"name":"subject","valueString":"316da95d-60f2-4a74-9a28-7a4adb7c0098"}]}],"extension":[{"url":"http://hl7.org/fhir/StructureDefinition/cqf-inputParameters","valueReference":{"reference":"#9dadea7a-6c4a-486a-8a77-f4004cc0218e-parameters"}},{"url":"http://hl7.org/fhir/us/cqfmeasures/StructureDefinition/cqfm-testCaseDescription","valueMarkdown":"Age < 18 and encounter before MP\n"}],"modifierExtension":[{"url":"http://hl7.org/fhir/us/cqfmeasures/StructureDefinition/cqfm-isTestCase","valueBoolean":true}],"status":"complete","type":"individual","measure":"https://madie.cms.gov/Measure/CMS108FHIRVTEProphylaxis","period":{"start":"2026-01-01","end":"2026-12-31"},"group":[{"id":"Group_1","population":[{"id":"InitialPopulation_1","code":{"coding":[{"system":"http://terminology.hl7.org/CodeSystem/measure-population","code":"initial-population","display":"Initial Population"}]},"count":0},{"id":"Denominator_1","code":{"coding":[{"system":"http://terminology.hl7.org/CodeSystem/measure-population","code":"denominator","display":"Denominator"}]},"count":0},{"id":"DenominatorExclusion_1","code":{"coding":[{"system":"http://terminology.hl7.org/CodeSystem/measure-population","code":"denominator-exclusion","display":"Denominator Exclusion"}]},"count":0},{"id":"Numerator_1","code":{"coding":[{"system":"http://terminology.hl7.org/CodeSystem/measure-population","code":"numerator","display":"Numerator"}]},"count":0}],"measureScore":{"value":0.0}}],"evaluatedResource":[{"reference":"Patient/316da95d-60f2-4a74-9a28-7a4adb7c0098"},{"reference":"Encounter/67b986c3-7958-4d77-9ec3-37f335df65d8"},{"reference":"Coverage/7c2a0671-afb5-4371-bbf3-1491e38886e8"},{"reference":"MedicationAdministration/2680ba55-3325-42af-88e1-03f1e18320e8"},{"reference":"Organization/266f2967-e8ef-4ae3-99d0-f9edbb02ee45"},{"reference":"Practitioner/2bdf8a5c-d235-4350-adb4-09cf5617915f"}]},"request":{"method":"PUT","url":"MeasureReport/497dd071-d5c9-4071-b134-105d8d527885"}}]}