{"resourceType":"Bundle","id":"tests-39fd4a5e-0db2-478d-ba85-4400a1b7e35e-bundle","type":"transaction","entry":[{"fullUrl":"MeasureReport/773edb56-b873-4ecc-b3f1-b165ed7ce7e1","resource":{"resourceType":"MeasureReport","id":"773edb56-b873-4ecc-b3f1-b165ed7ce7e1","meta":{"profile":["http://hl7.org/fhir/us/cqfmeasures/StructureDefinition/test-case-cqfm"]},"contained":[{"resourceType":"Parameters","id":"6d86800f-9d21-4d65-bf64-c826286a55a4-parameters","parameter":[{"name":"subject","valueString":"39fd4a5e-0db2-478d-ba85-4400a1b7e35e"}]}],"extension":[{"url":"http://hl7.org/fhir/StructureDefinition/cqf-inputParameters","valueReference":{"reference":"#6d86800f-9d21-4d65-bf64-c826286a55a4-parameters"}},{"url":"http://hl7.org/fhir/us/cqfmeasures/StructureDefinition/cqfm-testCaseDescription","valueMarkdown":"\tPatient has a frailty device before MP"}],"modifierExtension":[{"url":"http://hl7.org/fhir/us/cqfmeasures/StructureDefinition/cqfm-isTestCase","valueBoolean":true}],"status":"complete","type":"individual","measure":"https://madie.cms.gov/Measure/CMS130FHIRColorectalCancerScreening","period":{"start":"2026-01-01","end":"2026-12-31"},"group":[{"id":"Group_1","population":[{"id":"InitialPopulation_1","code":{"coding":[{"system":"http://terminology.hl7.org/CodeSystem/measure-population","code":"initial-population","display":"Initial Population"}]},"count":1},{"id":"Denominator_1","code":{"coding":[{"system":"http://terminology.hl7.org/CodeSystem/measure-population","code":"denominator","display":"Denominator"}]},"count":1},{"id":"DenominatorExclusion_1","code":{"coding":[{"system":"http://terminology.hl7.org/CodeSystem/measure-population","code":"denominator-exclusion","display":"Denominator Exclusion"}]},"count":0},{"id":"Numerator_1","code":{"coding":[{"system":"http://terminology.hl7.org/CodeSystem/measure-population","code":"numerator","display":"Numerator"}]},"count":0}],"measureScore":{"value":1.0},"stratifier":[{"id":"Stratification_1_1","stratum":[{"value":{"text":"true"},"population":[{"id":"InitialPopulation_1","code":{"coding":[{"system":"http://terminology.hl7.org/CodeSystem/measure-population","code":"initial-population","display":"Initial Population"}]},"count":1},{"id":"Denominator_1","code":{"coding":[{"system":"http://terminology.hl7.org/CodeSystem/measure-population","code":"denominator","display":"Denominator"}]},"count":1},{"id":"DenominatorExclusion_1","code":{"coding":[{"system":"http://terminology.hl7.org/CodeSystem/measure-population","code":"denominator-exclusion","display":"Denominator Exclusion"}]},"count":0},{"id":"Numerator_1","code":{"coding":[{"system":"http://terminology.hl7.org/CodeSystem/measure-population","code":"numerator","display":"Numerator"}]},"count":0}]},{"value":{"text":"false"},"population":[{"id":"InitialPopulation_1","code":{"coding":[{"system":"http://terminology.hl7.org/CodeSystem/measure-population","code":"initial-population","display":"Initial Population"}]},"count":0},{"id":"Denominator_1","code":{"coding":[{"system":"http://terminology.hl7.org/CodeSystem/measure-population","code":"denominator","display":"Denominator"}]},"count":0},{"id":"DenominatorExclusion_1","code":{"coding":[{"system":"http://terminology.hl7.org/CodeSystem/measure-population","code":"denominator-exclusion","display":"Denominator Exclusion"}]},"count":1},{"id":"Numerator_1","code":{"coding":[{"system":"http://terminology.hl7.org/CodeSystem/measure-population","code":"numerator","display":"Numerator"}]},"count":1}]}]},{"id":"Stratification_1_2","stratum":[{"value":{"text":"true"},"population":[{"id":"InitialPopulation_1","code":{"coding":[{"system":"http://terminology.hl7.org/CodeSystem/measure-population","code":"initial-population","display":"Initial Population"}]},"count":1},{"id":"Denominator_1","code":{"coding":[{"system":"http://terminology.hl7.org/CodeSystem/measure-population","code":"denominator","display":"Denominator"}]},"count":1},{"id":"DenominatorExclusion_1","code":{"coding":[{"system":"http://terminology.hl7.org/CodeSystem/measure-population","code":"denominator-exclusion","display":"Denominator Exclusion"}]},"count":0},{"id":"Numerator_1","code":{"coding":[{"system":"http://terminology.hl7.org/CodeSystem/measure-population","code":"numerator","display":"Numerator"}]},"count":0}]},{"value":{"text":"false"},"population":[{"id":"InitialPopulation_1","code":{"coding":[{"system":"http://terminology.hl7.org/CodeSystem/measure-population","code":"initial-population","display":"Initial Population"}]},"count":0},{"id":"Denominator_1","code":{"coding":[{"system":"http://terminology.hl7.org/CodeSystem/measure-population","code":"denominator","display":"Denominator"}]},"count":0},{"id":"DenominatorExclusion_1","code":{"coding":[{"system":"http://terminology.hl7.org/CodeSystem/measure-population","code":"denominator-exclusion","display":"Denominator Exclusion"}]},"count":1},{"id":"Numerator_1","code":{"coding":[{"system":"http://terminology.hl7.org/CodeSystem/measure-population","code":"numerator","display":"Numerator"}]},"count":1}]}]}]}],"evaluatedResource":[{"reference":"Patient/39fd4a5e-0db2-478d-ba85-4400a1b7e35e"},{"reference":"Encounter/8be4fc19-5476-4de3-819e-54b2c8c0c33d"},{"reference":"Condition/f962ee07-4d74-41d0-87d3-14989818912a"},{"reference":"Condition/482e84e2-d62d-47cb-9862-99e7f5eb7120"},{"reference":"Encounter/602a1240-b868-4a5e-b58c-275a6db44f2e"},{"reference":"DeviceRequest/e6a9480e-36ad-45a3-8862-b51cfba5020a"}]},"request":{"method":"PUT","url":"MeasureReport/773edb56-b873-4ecc-b3f1-b165ed7ce7e1"}},{"fullUrl":"DeviceRequest/e6a9480e-36ad-45a3-8862-b51cfba5020a","resource":{"resourceType":"DeviceRequest","id":"e6a9480e-36ad-45a3-8862-b51cfba5020a","meta":{"profile":["http://hl7.org/fhir/us/qicore/StructureDefinition/qicore-devicerequest"]},"modifierExtension":[{"url":"http://hl7.org/fhir/5.0/StructureDefinition/extension-DeviceRequest.doNotPerform","valueBoolean":false}],"status":"completed","intent":"order","codeCodeableConcept":{"coding":[{"system":"http://snomed.info/sct","code":"183240000","display":"Self-propelled wheelchair (physical object)"}]},"subject":{"reference":"Patient/39fd4a5e-0db2-478d-ba85-4400a1b7e35e"},"authoredOn":"2024-11-01T23:59:00.000+00:00"},"request":{"method":"PUT","url":"DeviceRequest/e6a9480e-36ad-45a3-8862-b51cfba5020a"}},{"fullUrl":"Condition/f962ee07-4d74-41d0-87d3-14989818912a","resource":{"resourceType":"Condition","id":"f962ee07-4d74-41d0-87d3-14989818912a","meta":{"profile":["http://hl7.org/fhir/us/qicore/StructureDefinition/qicore-condition-problems-health-concerns"]},"clinicalStatus":{"coding":[{"system":"http://terminology.hl7.org/CodeSystem/condition-clinical","code":"active"}]},"category":[{"coding":[{"system":"http://terminology.hl7.org/CodeSystem/condition-category","code":"problem-list-item","display":"Problem List Item"}]}],"code":{"coding":[{"system":"http://snomed.info/sct","code":"371125006","display":"Labile essential hypertension (disorder)"}]},"subject":{"reference":"Patient/39fd4a5e-0db2-478d-ba85-4400a1b7e35e"},"onsetDateTime":"2026-06-30T23:59:59.000+00:00"},"request":{"method":"PUT","url":"Condition/f962ee07-4d74-41d0-87d3-14989818912a"}},{"fullUrl":"Encounter/602a1240-b868-4a5e-b58c-275a6db44f2e","resource":{"resourceType":"Encounter","id":"602a1240-b868-4a5e-b58c-275a6db44f2e","meta":{"profile":["http://hl7.org/fhir/us/qicore/StructureDefinition/qicore-encounter"]},"status":"finished","class":{"system":"http://terminology.hl7.org/CodeSystem/v3-ActCode","code":"AMB","display":"ambulatory"},"type":[{"coding":[{"system":"http://snomed.info/sct","code":"4525004","display":"Emergency department patient visit (procedure)"}]}],"subject":{"reference":"Patient/39fd4a5e-0db2-478d-ba85-4400a1b7e35e"},"period":{"start":"2026-05-01T00:00:00.000+00:00","end":"2026-05-01T01:00:00.000+00:00"},"diagnosis":[{"condition":{"reference":"Condition/482e84e2-d62d-47cb-9862-99e7f5eb7120"}}]},"request":{"method":"PUT","url":"Encounter/602a1240-b868-4a5e-b58c-275a6db44f2e"}},{"fullUrl":"Condition/482e84e2-d62d-47cb-9862-99e7f5eb7120","resource":{"resourceType":"Condition","id":"482e84e2-d62d-47cb-9862-99e7f5eb7120","meta":{"profile":["http://hl7.org/fhir/us/qicore/StructureDefinition/qicore-condition-problems-health-concerns"]},"clinicalStatus":{"coding":[{"system":"http://terminology.hl7.org/CodeSystem/condition-clinical","code":"active"}]},"category":[{"coding":[{"system":"http://terminology.hl7.org/CodeSystem/condition-category","code":"problem-list-item","display":"Problem List Item"}]}],"code":{"coding":[{"system":"http://snomed.info/sct","code":"101421000119107","display":"Dementia due to Parkinson's disease (disorder)"}]},"subject":{"reference":"Patient/39fd4a5e-0db2-478d-ba85-4400a1b7e35e"},"onsetDateTime":"2025-12-31T23:59:59.000+00:00"},"request":{"method":"PUT","url":"Condition/482e84e2-d62d-47cb-9862-99e7f5eb7120"}},{"fullUrl":"Encounter/8be4fc19-5476-4de3-819e-54b2c8c0c33d","resource":{"resourceType":"Encounter","id":"8be4fc19-5476-4de3-819e-54b2c8c0c33d","meta":{"profile":["http://hl7.org/fhir/us/qicore/StructureDefinition/qicore-encounter"]},"status":"finished","class":{"system":"http://terminology.hl7.org/CodeSystem/v3-ActCode","code":"AMB","display":"ambulatory"},"type":[{"coding":[{"system":"http://snomed.info/sct","code":"3391000175108","display":"Office visit for pediatric care and assessment (procedure)"}]}],"subject":{"reference":"Patient/39fd4a5e-0db2-478d-ba85-4400a1b7e35e"},"period":{"start":"2026-01-01T00:00:00.000+00:00","end":"2026-01-01T01:00:00.000+00:00"}},"request":{"method":"PUT","url":"Encounter/8be4fc19-5476-4de3-819e-54b2c8c0c33d"}},{"fullUrl":"Bundle/DENEXFail-FrailtyDeviceB4MP","resource":{"resourceType":"Bundle","id":"DENEXFail-FrailtyDeviceB4MP","type":"transaction","entry":[{"fullUrl":"https://madie.cms.gov/Patient/39fd4a5e-0db2-478d-ba85-4400a1b7e35e","resource":{"resourceType":"Patient","id":"39fd4a5e-0db2-478d-ba85-4400a1b7e35e","meta":{"profile":["http://hl7.org/fhir/us/qicore/StructureDefinition/qicore-patient"]},"extension":[{"url":"http://hl7.org/fhir/us/core/StructureDefinition/us-core-race","extension":[{"url":"ombCategory","valueCoding":{"system":"urn:oid:2.16.840.1.113883.6.238","code":"2028-9","display":"Asian"}},{"url":"text","valueString":"Asian"}]},{"url":"http://hl7.org/fhir/us/core/StructureDefinition/us-core-ethnicity","extension":[{"url":"ombCategory","valueCoding":{"system":"urn:oid:2.16.840.1.113883.6.238","code":"2135-2","display":"Hispanic or Latino"}},{"url":"text","valueString":"Hispanic or Latino"}]}],"identifier":[{"system":"http://hospital.smarthealthit.org","value":"999999995"}],"name":[{"family":"Bertha","given":["Betty"]}],"gender":"female","birthDate":"1958-12-31"},"request":{"method":"PUT","url":"Patient/39fd4a5e-0db2-478d-ba85-4400a1b7e35e"}},{"fullUrl":"https://madie.cms.gov/Encounter/8be4fc19-5476-4de3-819e-54b2c8c0c33d","resource":{"resourceType":"Encounter","id":"8be4fc19-5476-4de3-819e-54b2c8c0c33d","meta":{"profile":["http://hl7.org/fhir/us/qicore/StructureDefinition/qicore-encounter"]},"status":"finished","class":{"system":"http://terminology.hl7.org/CodeSystem/v3-ActCode","code":"AMB","display":"ambulatory"},"type":[{"coding":[{"system":"http://snomed.info/sct","code":"3391000175108","display":"Office visit for pediatric care and assessment (procedure)"}]}],"subject":{"reference":"Patient/39fd4a5e-0db2-478d-ba85-4400a1b7e35e"},"period":{"start":"2026-01-01T00:00:00.000+00:00","end":"2026-01-01T01:00:00.000+00:00"}},"request":{"method":"PUT","url":"Encounter/8be4fc19-5476-4de3-819e-54b2c8c0c33d"}},{"fullUrl":"https://madie.cms.gov/Condition/f962ee07-4d74-41d0-87d3-14989818912a","resource":{"resourceType":"Condition","id":"f962ee07-4d74-41d0-87d3-14989818912a","meta":{"profile":["http://hl7.org/fhir/us/qicore/StructureDefinition/qicore-condition-problems-health-concerns"]},"clinicalStatus":{"coding":[{"system":"http://terminology.hl7.org/CodeSystem/condition-clinical","code":"active"}]},"category":[{"coding":[{"system":"http://terminology.hl7.org/CodeSystem/condition-category","code":"problem-list-item","display":"Problem List Item"}]}],"code":{"coding":[{"system":"http://snomed.info/sct","code":"371125006","display":"Labile essential hypertension (disorder)"}]},"subject":{"reference":"Patient/39fd4a5e-0db2-478d-ba85-4400a1b7e35e"},"onsetDateTime":"2026-06-30T23:59:59.000+00:00"},"request":{"method":"PUT","url":"Condition/f962ee07-4d74-41d0-87d3-14989818912a"}},{"fullUrl":"https://madie.cms.gov/Condition/482e84e2-d62d-47cb-9862-99e7f5eb7120","resource":{"resourceType":"Condition","id":"482e84e2-d62d-47cb-9862-99e7f5eb7120","meta":{"profile":["http://hl7.org/fhir/us/qicore/StructureDefinition/qicore-condition-problems-health-concerns"]},"clinicalStatus":{"coding":[{"system":"http://terminology.hl7.org/CodeSystem/condition-clinical","code":"active"}]},"category":[{"coding":[{"system":"http://terminology.hl7.org/CodeSystem/condition-category","code":"problem-list-item","display":"Problem List Item"}]}],"code":{"coding":[{"system":"http://snomed.info/sct","code":"101421000119107","display":"Dementia due to Parkinson's disease (disorder)"}]},"subject":{"reference":"Patient/39fd4a5e-0db2-478d-ba85-4400a1b7e35e"},"onsetDateTime":"2025-12-31T23:59:59.000+00:00"},"request":{"method":"PUT","url":"Condition/482e84e2-d62d-47cb-9862-99e7f5eb7120"}},{"fullUrl":"https://madie.cms.gov/Encounter/602a1240-b868-4a5e-b58c-275a6db44f2e","resource":{"resourceType":"Encounter","id":"602a1240-b868-4a5e-b58c-275a6db44f2e","meta":{"profile":["http://hl7.org/fhir/us/qicore/StructureDefinition/qicore-encounter"]},"status":"finished","class":{"system":"http://terminology.hl7.org/CodeSystem/v3-ActCode","code":"AMB","display":"ambulatory"},"type":[{"coding":[{"system":"http://snomed.info/sct","code":"4525004","display":"Emergency department patient visit (procedure)"}]}],"subject":{"reference":"Patient/39fd4a5e-0db2-478d-ba85-4400a1b7e35e"},"period":{"start":"2026-05-01T00:00:00.000+00:00","end":"2026-05-01T01:00:00.000+00:00"},"diagnosis":[{"condition":{"reference":"Condition/482e84e2-d62d-47cb-9862-99e7f5eb7120"}}]},"request":{"method":"PUT","url":"Encounter/602a1240-b868-4a5e-b58c-275a6db44f2e"}},{"fullUrl":"https://madie.cms.gov/DeviceRequest/e6a9480e-36ad-45a3-8862-b51cfba5020a","resource":{"resourceType":"DeviceRequest","id":"e6a9480e-36ad-45a3-8862-b51cfba5020a","meta":{"profile":["http://hl7.org/fhir/us/qicore/StructureDefinition/qicore-devicerequest"]},"modifierExtension":[{"url":"http://hl7.org/fhir/5.0/StructureDefinition/extension-DeviceRequest.doNotPerform","valueBoolean":false}],"status":"completed","intent":"order","codeCodeableConcept":{"coding":[{"system":"http://snomed.info/sct","code":"183240000","display":"Self-propelled wheelchair (physical object)"}]},"subject":{"reference":"Patient/39fd4a5e-0db2-478d-ba85-4400a1b7e35e"},"authoredOn":"2024-11-01T23:59:00.000+00:00"},"request":{"method":"PUT","url":"DeviceRequest/e6a9480e-36ad-45a3-8862-b51cfba5020a"}},{"fullUrl":"https://madie.cms.gov/MeasureReport/773edb56-b873-4ecc-b3f1-b165ed7ce7e1","resource":{"resourceType":"MeasureReport","id":"773edb56-b873-4ecc-b3f1-b165ed7ce7e1","meta":{"profile":["http://hl7.org/fhir/us/cqfmeasures/StructureDefinition/test-case-cqfm"]},"contained":[{"resourceType":"Parameters","id":"6d86800f-9d21-4d65-bf64-c826286a55a4-parameters","parameter":[{"name":"subject","valueString":"39fd4a5e-0db2-478d-ba85-4400a1b7e35e"}]}],"extension":[{"url":"http://hl7.org/fhir/StructureDefinition/cqf-inputParameters","valueReference":{"reference":"#6d86800f-9d21-4d65-bf64-c826286a55a4-parameters"}},{"url":"http://hl7.org/fhir/us/cqfmeasures/StructureDefinition/cqfm-testCaseDescription","valueMarkdown":"\tPatient has a frailty device before MP"}],"modifierExtension":[{"url":"http://hl7.org/fhir/us/cqfmeasures/StructureDefinition/cqfm-isTestCase","valueBoolean":true}],"status":"complete","type":"individual","measure":"https://madie.cms.gov/Measure/CMS130FHIRColorectalCancerScreening","period":{"start":"2026-01-01","end":"2026-12-31"},"group":[{"id":"Group_1","population":[{"id":"InitialPopulation_1","code":{"coding":[{"system":"http://terminology.hl7.org/CodeSystem/measure-population","code":"initial-population","display":"Initial Population"}]},"count":1},{"id":"Denominator_1","code":{"coding":[{"system":"http://terminology.hl7.org/CodeSystem/measure-population","code":"denominator","display":"Denominator"}]},"count":1},{"id":"DenominatorExclusion_1","code":{"coding":[{"system":"http://terminology.hl7.org/CodeSystem/measure-population","code":"denominator-exclusion","display":"Denominator Exclusion"}]},"count":0},{"id":"Numerator_1","code":{"coding":[{"system":"http://terminology.hl7.org/CodeSystem/measure-population","code":"numerator","display":"Numerator"}]},"count":0}],"measureScore":{"value":1.0},"stratifier":[{"id":"Stratification_1_1","stratum":[{"value":{"text":"true"},"population":[{"id":"InitialPopulation_1","code":{"coding":[{"system":"http://terminology.hl7.org/CodeSystem/measure-population","code":"initial-population","display":"Initial Population"}]},"count":1},{"id":"Denominator_1","code":{"coding":[{"system":"http://terminology.hl7.org/CodeSystem/measure-population","code":"denominator","display":"Denominator"}]},"count":1},{"id":"DenominatorExclusion_1","code":{"coding":[{"system":"http://terminology.hl7.org/CodeSystem/measure-population","code":"denominator-exclusion","display":"Denominator Exclusion"}]},"count":0},{"id":"Numerator_1","code":{"coding":[{"system":"http://terminology.hl7.org/CodeSystem/measure-population","code":"numerator","display":"Numerator"}]},"count":0}]},{"value":{"text":"false"},"population":[{"id":"InitialPopulation_1","code":{"coding":[{"system":"http://terminology.hl7.org/CodeSystem/measure-population","code":"initial-population","display":"Initial Population"}]},"count":0},{"id":"Denominator_1","code":{"coding":[{"system":"http://terminology.hl7.org/CodeSystem/measure-population","code":"denominator","display":"Denominator"}]},"count":0},{"id":"DenominatorExclusion_1","code":{"coding":[{"system":"http://terminology.hl7.org/CodeSystem/measure-population","code":"denominator-exclusion","display":"Denominator Exclusion"}]},"count":1},{"id":"Numerator_1","code":{"coding":[{"system":"http://terminology.hl7.org/CodeSystem/measure-population","code":"numerator","display":"Numerator"}]},"count":1}]}]},{"id":"Stratification_1_2","stratum":[{"value":{"text":"true"},"population":[{"id":"InitialPopulation_1","code":{"coding":[{"system":"http://terminology.hl7.org/CodeSystem/measure-population","code":"initial-population","display":"Initial Population"}]},"count":1},{"id":"Denominator_1","code":{"coding":[{"system":"http://terminology.hl7.org/CodeSystem/measure-population","code":"denominator","display":"Denominator"}]},"count":1},{"id":"DenominatorExclusion_1","code":{"coding":[{"system":"http://terminology.hl7.org/CodeSystem/measure-population","code":"denominator-exclusion","display":"Denominator Exclusion"}]},"count":0},{"id":"Numerator_1","code":{"coding":[{"system":"http://terminology.hl7.org/CodeSystem/measure-population","code":"numerator","display":"Numerator"}]},"count":0}]},{"value":{"text":"false"},"population":[{"id":"InitialPopulation_1","code":{"coding":[{"system":"http://terminology.hl7.org/CodeSystem/measure-population","code":"initial-population","display":"Initial Population"}]},"count":0},{"id":"Denominator_1","code":{"coding":[{"system":"http://terminology.hl7.org/CodeSystem/measure-population","code":"denominator","display":"Denominator"}]},"count":0},{"id":"DenominatorExclusion_1","code":{"coding":[{"system":"http://terminology.hl7.org/CodeSystem/measure-population","code":"denominator-exclusion","display":"Denominator Exclusion"}]},"count":1},{"id":"Numerator_1","code":{"coding":[{"system":"http://terminology.hl7.org/CodeSystem/measure-population","code":"numerator","display":"Numerator"}]},"count":1}]}]}]}],"evaluatedResource":[{"reference":"Patient/39fd4a5e-0db2-478d-ba85-4400a1b7e35e"},{"reference":"Encounter/8be4fc19-5476-4de3-819e-54b2c8c0c33d"},{"reference":"Condition/f962ee07-4d74-41d0-87d3-14989818912a"},{"reference":"Condition/482e84e2-d62d-47cb-9862-99e7f5eb7120"},{"reference":"Encounter/602a1240-b868-4a5e-b58c-275a6db44f2e"},{"reference":"DeviceRequest/e6a9480e-36ad-45a3-8862-b51cfba5020a"}]},"request":{"method":"PUT","url":"MeasureReport/773edb56-b873-4ecc-b3f1-b165ed7ce7e1"}}]},"request":{"method":"PUT","url":"Bundle/DENEXFail-FrailtyDeviceB4MP"}},{"fullUrl":"Patient/39fd4a5e-0db2-478d-ba85-4400a1b7e35e","resource":{"resourceType":"Patient","id":"39fd4a5e-0db2-478d-ba85-4400a1b7e35e","meta":{"profile":["http://hl7.org/fhir/us/qicore/StructureDefinition/qicore-patient"]},"extension":[{"url":"http://hl7.org/fhir/us/core/StructureDefinition/us-core-race","extension":[{"url":"ombCategory","valueCoding":{"system":"urn:oid:2.16.840.1.113883.6.238","code":"2028-9","display":"Asian"}},{"url":"text","valueString":"Asian"}]},{"url":"http://hl7.org/fhir/us/core/StructureDefinition/us-core-ethnicity","extension":[{"url":"ombCategory","valueCoding":{"system":"urn:oid:2.16.840.1.113883.6.238","code":"2135-2","display":"Hispanic or Latino"}},{"url":"text","valueString":"Hispanic or Latino"}]}],"identifier":[{"system":"http://hospital.smarthealthit.org","value":"999999995"}],"name":[{"family":"Bertha","given":["Betty"]}],"gender":"female","birthDate":"1958-12-31"},"request":{"method":"PUT","url":"Patient/39fd4a5e-0db2-478d-ba85-4400a1b7e35e"}}]}