{
  "resourceType": "Bundle",
  "id": "62f66a8b5efef5272905e715",
  "type": "transaction",
  "entry": [ {
    "fullUrl": "https://madie.cms.gov/Patient/1eaf0b86-afe8-488c-8f32-6321ecfe0fca",
    "resource": {
      "resourceType": "Patient",
      "id": "1eaf0b86-afe8-488c-8f32-6321ecfe0fca",
      "meta": {
        "profile": [ "http://hl7.org/fhir/us/qicore/StructureDefinition/qicore-patient" ]
      },
      "extension": [ {
        "url": "http://hl7.org/fhir/us/core/StructureDefinition/us-core-race",
        "extension": [ {
          "url": "ombCategory",
          "valueCoding": {
            "system": "urn:oid:2.16.840.1.113883.6.238",
            "code": "1002-5",
            "display": "American Indian or Alaska Native",
            "userSelected": true
          }
        }, {
          "url": "text",
          "valueString": "American Indian or Alaska Native"
        } ]
      }, {
        "url": "http://hl7.org/fhir/us/core/StructureDefinition/us-core-ethnicity",
        "extension": [ {
          "url": "ombCategory",
          "valueCoding": {
            "system": "urn:oid:2.16.840.1.113883.6.238",
            "code": "2135-2",
            "display": "Hispanic or Latino",
            "userSelected": true
          }
        }, {
          "url": "text",
          "valueString": "Hispanic or Latino"
        } ]
      } ],
      "identifier": [ {
        "type": {
          "coding": [ {
            "system": "http://terminology.hl7.org/CodeSystem/v2-0203",
            "code": "MR"
          } ]
        },
        "system": "https://bonnie-fhir.healthit.gov/",
        "value": "62f66a8b5efef5272905e715"
      } ],
      "name": [ {
        "family": "IPPFail",
        "given": [ "11yoDepressionScreening" ]
      } ],
      "gender": "unknown",
      "birthDate": "2015-01-01"
    },
    "request": {
      "method": "PUT",
      "url": "Patient/1eaf0b86-afe8-488c-8f32-6321ecfe0fca"
    }
  }, {
    "fullUrl": "https://madie.cms.gov/Encounter/9d8e9318-5e62-4c64-9331-d561e643012d",
    "resource": {
      "resourceType": "Encounter",
      "id": "9d8e9318-5e62-4c64-9331-d561e643012d",
      "meta": {
        "profile": [ "http://hl7.org/fhir/us/qicore/StructureDefinition/qicore-encounter" ]
      },
      "status": "finished",
      "class": {
        "system": "http://terminology.hl7.org/CodeSystem/v3-ActCode",
        "code": "AMB",
        "display": "ambulatory"
      },
      "type": [ {
        "coding": [ {
          "system": "http://snomed.info/sct",
          "code": "10197000",
          "display": "Psychiatric interview and evaluation (procedure)",
          "userSelected": true
        } ]
      } ],
      "subject": {
        "reference": "Patient/1eaf0b86-afe8-488c-8f32-6321ecfe0fca"
      },
      "period": {
        "start": "2026-08-12T08:00:00.000+00:00",
        "end": "2026-08-12T08:15:00.000+00:00"
      }
    },
    "request": {
      "method": "PUT",
      "url": "Encounter/9d8e9318-5e62-4c64-9331-d561e643012d"
    }
  }, {
    "fullUrl": "https://madie.cms.gov/Coverage/6fec5f8c-7927-4886-9250-32dcc4c25037",
    "resource": {
      "resourceType": "Coverage",
      "id": "6fec5f8c-7927-4886-9250-32dcc4c25037",
      "meta": {
        "profile": [ "http://hl7.org/fhir/us/qicore/StructureDefinition/qicore-coverage" ]
      },
      "status": "active",
      "subscriberId": "123456789",
      "beneficiary": {
        "reference": "Patient/1eaf0b86-afe8-488c-8f32-6321ecfe0fca"
      },
      "relationship": {
        "coding": [ {
          "system": "http://terminology.hl7.org/CodeSystem/subscriber-relationship",
          "code": "self",
          "display": "Self",
          "userSelected": true
        } ]
      },
      "payor": [ {
        "reference": "Organization/676ed997-34f3-47bd-883d-fd50be0176a5"
      } ]
    },
    "request": {
      "method": "PUT",
      "url": "Coverage/6fec5f8c-7927-4886-9250-32dcc4c25037"
    }
  }, {
    "fullUrl": "https://madie.cms.gov/Organization/676ed997-34f3-47bd-883d-fd50be0176a5",
    "resource": {
      "resourceType": "Organization",
      "id": "676ed997-34f3-47bd-883d-fd50be0176a5",
      "meta": {
        "profile": [ "http://hl7.org/fhir/us/qicore/StructureDefinition/qicore-organization" ]
      },
      "identifier": [ {
        "use": "temp",
        "system": "urn:oid:2.16.840.1.113883.4.4",
        "value": "21-3259825"
      } ],
      "active": true,
      "type": [ {
        "coding": [ {
          "system": "http://terminology.hl7.org/CodeSystem/organization-type",
          "code": "pay",
          "display": "Payer"
        } ]
      } ],
      "name": "Blue Cross Blue Shield of Texas",
      "telecom": [ {
        "system": "phone",
        "value": "(+1) 972-766-6900"
      } ],
      "address": [ {
        "use": "billing",
        "type": "postal",
        "line": [ "P.O. Box 660044" ],
        "city": "Dallas",
        "state": "TX",
        "postalCode": "75266-0044",
        "country": "USA"
      } ]
    },
    "request": {
      "method": "PUT",
      "url": "Organization/676ed997-34f3-47bd-883d-fd50be0176a5"
    }
  }, {
    "fullUrl": "https://madie.cms.gov/Practitioner/759a2fe3-6939-4217-817e-3e5e7c6c6515",
    "resource": {
      "resourceType": "Practitioner",
      "id": "759a2fe3-6939-4217-817e-3e5e7c6c6515",
      "meta": {
        "profile": [ "http://hl7.org/fhir/us/qicore/StructureDefinition/qicore-practitioner" ]
      },
      "identifier": [ {
        "system": "http://hl7.org/fhir/sid/us-npi",
        "value": "1234567893"
      } ],
      "name": [ {
        "family": "Evil",
        "prefix": [ "Dr" ]
      } ]
    },
    "request": {
      "method": "PUT",
      "url": "Practitioner/759a2fe3-6939-4217-817e-3e5e7c6c6515"
    }
  }, {
    "fullUrl": "https://madie.cms.gov/MeasureReport/86ef08d0-ff86-44fd-8eee-8c3ab8decad9",
    "resource": {
      "resourceType": "MeasureReport",
      "id": "86ef08d0-ff86-44fd-8eee-8c3ab8decad9",
      "meta": {
        "profile": [ "http://hl7.org/fhir/us/cqfmeasures/StructureDefinition/test-case-cqfm" ]
      },
      "contained": [ {
        "resourceType": "Parameters",
        "id": "260e08b5-8f18-4837-b041-fa88dcb57447-parameters",
        "parameter": [ {
          "name": "subject",
          "valueString": "1eaf0b86-afe8-488c-8f32-6321ecfe0fca"
        } ]
      } ],
      "extension": [ {
        "url": "http://hl7.org/fhir/StructureDefinition/cqf-inputParameters",
        "valueReference": {
          "reference": "#260e08b5-8f18-4837-b041-fa88dcb57447-parameters"
        }
      }, {
        "url": "http://hl7.org/fhir/us/cqfmeasures/StructureDefinition/cqfm-testCaseDescription",
        "valueMarkdown": "11yo male with depression screening. gender = unknown to cover Sex logic \"null\""
      } ],
      "modifierExtension": [ {
        "url": "http://hl7.org/fhir/us/cqfmeasures/StructureDefinition/cqfm-isTestCase",
        "valueBoolean": true
      } ],
      "status": "complete",
      "type": "individual",
      "measure": "https://madie.cms.gov/Measure/CMS2FHIRPCSDepressionScreenAndFollowUp",
      "period": {
        "start": "2026-01-01",
        "end": "2026-12-31"
      },
      "group": [ {
        "id": "Group_1",
        "population": [ {
          "id": "InitialPopulation_1",
          "code": {
            "coding": [ {
              "system": "http://terminology.hl7.org/CodeSystem/measure-population",
              "code": "initial-population",
              "display": "Initial Population"
            } ]
          },
          "count": 0
        }, {
          "id": "Denominator_1",
          "code": {
            "coding": [ {
              "system": "http://terminology.hl7.org/CodeSystem/measure-population",
              "code": "denominator",
              "display": "Denominator"
            } ]
          },
          "count": 0
        }, {
          "id": "DenominatorExclusion_1",
          "code": {
            "coding": [ {
              "system": "http://terminology.hl7.org/CodeSystem/measure-population",
              "code": "denominator-exclusion",
              "display": "Denominator Exclusion"
            } ]
          },
          "count": 0
        }, {
          "id": "Numerator_1",
          "code": {
            "coding": [ {
              "system": "http://terminology.hl7.org/CodeSystem/measure-population",
              "code": "numerator",
              "display": "Numerator"
            } ]
          },
          "count": 0
        }, {
          "id": "DenominatorException_1",
          "code": {
            "coding": [ {
              "system": "http://terminology.hl7.org/CodeSystem/measure-population",
              "code": "denominator-exception",
              "display": "Denominator Exception"
            } ]
          },
          "count": 0
        } ],
        "measureScore": {
          "value": 1.0
        }
      } ],
      "evaluatedResource": [ {
        "reference": "Patient/1eaf0b86-afe8-488c-8f32-6321ecfe0fca"
      }, {
        "reference": "Encounter/9d8e9318-5e62-4c64-9331-d561e643012d"
      }, {
        "reference": "Coverage/6fec5f8c-7927-4886-9250-32dcc4c25037"
      }, {
        "reference": "Organization/676ed997-34f3-47bd-883d-fd50be0176a5"
      }, {
        "reference": "Practitioner/759a2fe3-6939-4217-817e-3e5e7c6c6515"
      } ]
    },
    "request": {
      "method": "PUT",
      "url": "MeasureReport/86ef08d0-ff86-44fd-8eee-8c3ab8decad9"
    }
  } ]
}