{
    "entry": [
        {
            "request": {
                "method": "PUT",
                "url": "Patient/1eaf0b86-afe8-488c-8f32-6321ecfe0fca"
            },
            "resource": {
                "identifier": [{
                    "system": "https://bonnie-fhir.healthit.gov/",
                    "type": {"coding": [{
                        "system": "http://terminology.hl7.org/CodeSystem/v2-0203",
                        "code": "MR"
                    }]},
                    "value": "62f66a8b5efef5272905e715"
                }],
                "extension": [
                    {
                        "extension": [
                            {
                                "valueCoding": {
                                    "system": "urn:oid:2.16.840.1.113883.6.238",
                                    "code": "1002-5",
                                    "userSelected": true,
                                    "display": "American Indian or Alaska Native"
                                },
                                "url": "ombCategory"
                            },
                            {
                                "valueString": "American Indian or Alaska Native",
                                "url": "text"
                            }
                        ],
                        "url": "http://hl7.org/fhir/us/core/StructureDefinition/us-core-race"
                    },
                    {
                        "extension": [
                            {
                                "valueCoding": {
                                    "system": "urn:oid:2.16.840.1.113883.6.238",
                                    "code": "2135-2",
                                    "userSelected": true,
                                    "display": "Hispanic or Latino"
                                },
                                "url": "ombCategory"
                            },
                            {
                                "valueString": "Hispanic or Latino",
                                "url": "text"
                            }
                        ],
                        "url": "http://hl7.org/fhir/us/core/StructureDefinition/us-core-ethnicity"
                    }
                ],
                "gender": "unknown",
                "meta": {"profile": ["http://hl7.org/fhir/us/qicore/StructureDefinition/qicore-patient"]},
                "name": [{
                    "given": ["11yoDepressionScreening"],
                    "family": "IPPFail"
                }],
                "id": "1eaf0b86-afe8-488c-8f32-6321ecfe0fca",
                "birthDate": "2015-01-01",
                "resourceType": "Patient"
            },
            "fullUrl": "https://madie.cms.gov/Patient/1eaf0b86-afe8-488c-8f32-6321ecfe0fca"
        },
        {
            "request": {
                "method": "PUT",
                "url": "Encounter/32457f25-4e1d-420f-8323-16125055a2e0"
            },
            "resource": {
                "period": {
                    "start": "2026-08-12T08:00:00.000+00:00",
                    "end": "2026-08-12T08:15:00.000+00:00"
                },
                "meta": {"profile": ["http://hl7.org/fhir/us/qicore/StructureDefinition/qicore-encounter"]},
                "subject": {"reference": "Patient/1eaf0b86-afe8-488c-8f32-6321ecfe0fca"},
                "id": "32457f25-4e1d-420f-8323-16125055a2e0",
                "type": [{"coding": [{
                    "system": "http://snomed.info/sct",
                    "code": "10197000",
                    "userSelected": true,
                    "display": "Psychiatric interview and evaluation (procedure)",
                    "version": "2021-09"
                }]}],
                "class": {
                    "system": "http://terminology.hl7.org/CodeSystem/v3-ActCode",
                    "code": "AMB",
                    "display": "ambulatory"
                },
                "resourceType": "Encounter",
                "status": "finished"
            },
            "fullUrl": "https://madie.cms.gov/Encounter/32457f25-4e1d-420f-8323-16125055a2e0"
        },
        {
            "request": {
                "method": "PUT",
                "url": "Coverage/e2d8ada2-791f-4147-a7e2-471be91b610d"
            },
            "resource": {
                "payor": [{"reference": "Organization/2150dc81-ab32-4acb-9126-a033dd6ca231"}],
                "beneficiary": {"reference": "Patient/1eaf0b86-afe8-488c-8f32-6321ecfe0fca"},
                "meta": {"profile": ["http://hl7.org/fhir/us/qicore/StructureDefinition/qicore-coverage"]},
                "id": "e2d8ada2-791f-4147-a7e2-471be91b610d",
                "resourceType": "Coverage",
                "status": "active"
            },
            "fullUrl": "https://madie.cms.gov/Coverage/e2d8ada2-791f-4147-a7e2-471be91b610d"
        },
        {
            "request": {
                "method": "PUT",
                "url": "Organization/2150dc81-ab32-4acb-9126-a033dd6ca231"
            },
            "resource": {
                "identifier": [{
                    "system": "urn:oid:2.16.840.1.113883.4.4",
                    "use": "temp",
                    "value": "21-3259825"
                }],
                "address": [{
                    "country": "USA",
                    "city": "Dallas",
                    "use": "billing",
                    "line": ["P.O. Box 660044"],
                    "postalCode": "75266-0044",
                    "state": "TX",
                    "type": "postal"
                }],
                "meta": {"profile": ["http://hl7.org/fhir/us/qicore/StructureDefinition/qicore-organization"]},
                "name": "Blue Cross Blue Shield of Texas",
                "active": true,
                "telecom": [{
                    "system": "phone",
                    "value": "(+1) 972-766-6900"
                }],
                "id": "2150dc81-ab32-4acb-9126-a033dd6ca231",
                "type": [{"coding": [{
                    "system": "http://terminology.hl7.org/CodeSystem/organization-type",
                    "code": "pay",
                    "display": "Payer"
                }]}],
                "resourceType": "Organization"
            },
            "fullUrl": "https://madie.cms.gov/Organization/2150dc81-ab32-4acb-9126-a033dd6ca231"
        },
        {
            "request": {
                "method": "PUT",
                "url": "Practitioner/ff830886-eece-427c-b440-818de8b2640e"
            },
            "resource": {
                "identifier": [{
                    "system": "http://hl7.org/fhir/sid/us-npi",
                    "value": "123456"
                }],
                "meta": {"profile": ["http://hl7.org/fhir/us/qicore/StructureDefinition/qicore-practitioner"]},
                "name": [{
                    "prefix": ["Dr"],
                    "family": "Evil"
                }],
                "id": "ff830886-eece-427c-b440-818de8b2640e",
                "resourceType": "Practitioner"
            },
            "fullUrl": "https://madie.cms.gov/Practitioner/ff830886-eece-427c-b440-818de8b2640e"
        },
        {
            "request": {
                "method": "PUT",
                "url": "MeasureReport/64ba88e2-077e-42be-aca4-8e7b18c93ed0"
            },
            "resource": {
                "contained": [{
                    "parameter": [{
                        "valueString": "1eaf0b86-afe8-488c-8f32-6321ecfe0fca",
                        "name": "subject"
                    }],
                    "id": "bbee0c91-6c4a-4f3b-b53d-36d25acf1f87-parameters",
                    "resourceType": "Parameters"
                }],
                "extension": [
                    {
                        "valueReference": {"reference": "#bbee0c91-6c4a-4f3b-b53d-36d25acf1f87-parameters"},
                        "url": "http://hl7.org/fhir/StructureDefinition/cqf-inputParameters"
                    },
                    {
                        "valueMarkdown": "11yo male with depression screening. gender = unknown to cover Sex logic \"null\"",
                        "url": "http://hl7.org/fhir/us/cqfmeasures/StructureDefinition/cqfm-testCaseDescription"
                    }
                ],
                "period": {
                    "start": "2026-01-01",
                    "end": "2026-12-31"
                },
                "measure": "https://madie.cms.gov/Measure/CMS2FHIRPCSDepressionScreenAndFollowUp",
                "meta": {"profile": ["http://hl7.org/fhir/us/cqfmeasures/StructureDefinition/test-case-cqfm"]},
                "modifierExtension": [{
                    "valueBoolean": true,
                    "url": "http://hl7.org/fhir/us/cqfmeasures/StructureDefinition/cqfm-isTestCase"
                }],
                "id": "64ba88e2-077e-42be-aca4-8e7b18c93ed0",
                "evaluatedResource": [
                    {"reference": "Patient/1eaf0b86-afe8-488c-8f32-6321ecfe0fca"},
                    {"reference": "Encounter/32457f25-4e1d-420f-8323-16125055a2e0"},
                    {"reference": "Coverage/e2d8ada2-791f-4147-a7e2-471be91b610d"},
                    {"reference": "Organization/2150dc81-ab32-4acb-9126-a033dd6ca231"},
                    {"reference": "Practitioner/ff830886-eece-427c-b440-818de8b2640e"}
                ],
                "type": "individual",
                "resourceType": "MeasureReport",
                "status": "complete",
                "group": [{
                    "id": "Group_1",
                    "measureScore": {"value": 1},
                    "population": [
                        {
                            "code": {"coding": [{
                                "system": "http://terminology.hl7.org/CodeSystem/measure-population",
                                "code": "initial-population",
                                "display": "Initial Population"
                            }]},
                            "count": 0,
                            "id": "InitialPopulation_1"
                        },
                        {
                            "code": {"coding": [{
                                "system": "http://terminology.hl7.org/CodeSystem/measure-population",
                                "code": "denominator",
                                "display": "Denominator"
                            }]},
                            "count": 0,
                            "id": "Denominator_1"
                        },
                        {
                            "code": {"coding": [{
                                "system": "http://terminology.hl7.org/CodeSystem/measure-population",
                                "code": "denominator-exclusion",
                                "display": "Denominator Exclusion"
                            }]},
                            "count": 0,
                            "id": "DenominatorExclusion_1"
                        },
                        {
                            "code": {"coding": [{
                                "system": "http://terminology.hl7.org/CodeSystem/measure-population",
                                "code": "numerator",
                                "display": "Numerator"
                            }]},
                            "count": 0,
                            "id": "Numerator_1"
                        },
                        {
                            "code": {"coding": [{
                                "system": "http://terminology.hl7.org/CodeSystem/measure-population",
                                "code": "denominator-exception",
                                "display": "Denominator Exception"
                            }]},
                            "count": 0,
                            "id": "DenominatorException_1"
                        }
                    ]
                }]
            },
            "fullUrl": "https://madie.cms.gov/MeasureReport/64ba88e2-077e-42be-aca4-8e7b18c93ed0"
        }
    ],
    "id": "62f66a8b5efef5272905e715",
    "type": "transaction",
    "resourceType": "Bundle"
}