{
  "resourceType": "Bundle",
  "id": "62f66a8b5efef5272905e715",
  "type": "transaction",
  "entry": [ {
    "fullUrl": "https://madie.cms.gov/Patient/1eaf0b86-afe8-488c-8f32-6321ecfe0fca",
    "resource": {
      "resourceType": "Patient",
      "id": "1eaf0b86-afe8-488c-8f32-6321ecfe0fca",
      "meta": {
        "profile": [ "http://hl7.org/fhir/us/qicore/StructureDefinition/qicore-patient" ]
      },
      "extension": [ {
        "url": "http://hl7.org/fhir/us/core/StructureDefinition/us-core-race",
        "extension": [ {
          "url": "ombCategory",
          "valueCoding": {
            "system": "urn:oid:2.16.840.1.113883.6.238",
            "code": "1002-5",
            "display": "American Indian or Alaska Native",
            "userSelected": true
          }
        }, {
          "url": "text",
          "valueString": "American Indian or Alaska Native"
        } ]
      }, {
        "url": "http://hl7.org/fhir/us/core/StructureDefinition/us-core-ethnicity",
        "extension": [ {
          "url": "ombCategory",
          "valueCoding": {
            "system": "urn:oid:2.16.840.1.113883.6.238",
            "code": "2135-2",
            "display": "Hispanic or Latino",
            "userSelected": true
          }
        }, {
          "url": "text",
          "valueString": "Hispanic or Latino"
        } ]
      } ],
      "identifier": [ {
        "type": {
          "coding": [ {
            "system": "http://terminology.hl7.org/CodeSystem/v2-0203",
            "code": "MR"
          } ]
        },
        "system": "https://bonnie-fhir.healthit.gov/",
        "value": "62f66a8b5efef5272905e715"
      } ],
      "name": [ {
        "family": "IPPFail",
        "given": [ "11yoDepressionScreening" ]
      } ],
      "gender": "unknown",
      "birthDate": "2015-01-01"
    },
    "request": {
      "method": "PUT",
      "url": "Patient/1eaf0b86-afe8-488c-8f32-6321ecfe0fca"
    }
  }, {
    "fullUrl": "https://madie.cms.gov/Encounter/32457f25-4e1d-420f-8323-16125055a2e0",
    "resource": {
      "resourceType": "Encounter",
      "id": "32457f25-4e1d-420f-8323-16125055a2e0",
      "meta": {
        "profile": [ "http://hl7.org/fhir/us/qicore/StructureDefinition/qicore-encounter" ]
      },
      "status": "finished",
      "class": {
        "system": "http://terminology.hl7.org/CodeSystem/v3-ActCode",
        "code": "AMB",
        "display": "ambulatory"
      },
      "type": [ {
        "coding": [ {
          "system": "http://snomed.info/sct",
          "version": "2021-09",
          "code": "10197000",
          "display": "Psychiatric interview and evaluation (procedure)",
          "userSelected": true
        } ]
      } ],
      "subject": {
        "reference": "Patient/1eaf0b86-afe8-488c-8f32-6321ecfe0fca"
      },
      "period": {
        "start": "2026-08-12T08:00:00.000+00:00",
        "end": "2026-08-12T08:15:00.000+00:00"
      }
    },
    "request": {
      "method": "PUT",
      "url": "Encounter/32457f25-4e1d-420f-8323-16125055a2e0"
    }
  }, {
    "fullUrl": "https://madie.cms.gov/Coverage/e2d8ada2-791f-4147-a7e2-471be91b610d",
    "resource": {
      "resourceType": "Coverage",
      "id": "e2d8ada2-791f-4147-a7e2-471be91b610d",
      "meta": {
        "profile": [ "http://hl7.org/fhir/us/qicore/StructureDefinition/qicore-coverage" ]
      },
      "status": "active",
      "beneficiary": {
        "reference": "Patient/1eaf0b86-afe8-488c-8f32-6321ecfe0fca"
      },
      "payor": [ {
        "reference": "Organization/2150dc81-ab32-4acb-9126-a033dd6ca231"
      } ]
    },
    "request": {
      "method": "PUT",
      "url": "Coverage/e2d8ada2-791f-4147-a7e2-471be91b610d"
    }
  }, {
    "fullUrl": "https://madie.cms.gov/Organization/2150dc81-ab32-4acb-9126-a033dd6ca231",
    "resource": {
      "resourceType": "Organization",
      "id": "2150dc81-ab32-4acb-9126-a033dd6ca231",
      "meta": {
        "profile": [ "http://hl7.org/fhir/us/qicore/StructureDefinition/qicore-organization" ]
      },
      "identifier": [ {
        "use": "temp",
        "system": "urn:oid:2.16.840.1.113883.4.4",
        "value": "21-3259825"
      } ],
      "active": true,
      "type": [ {
        "coding": [ {
          "system": "http://terminology.hl7.org/CodeSystem/organization-type",
          "code": "pay",
          "display": "Payer"
        } ]
      } ],
      "name": "Blue Cross Blue Shield of Texas",
      "telecom": [ {
        "system": "phone",
        "value": "(+1) 972-766-6900"
      } ],
      "address": [ {
        "use": "billing",
        "type": "postal",
        "line": [ "P.O. Box 660044" ],
        "city": "Dallas",
        "state": "TX",
        "postalCode": "75266-0044",
        "country": "USA"
      } ]
    },
    "request": {
      "method": "PUT",
      "url": "Organization/2150dc81-ab32-4acb-9126-a033dd6ca231"
    }
  }, {
    "fullUrl": "https://madie.cms.gov/Practitioner/ff830886-eece-427c-b440-818de8b2640e",
    "resource": {
      "resourceType": "Practitioner",
      "id": "ff830886-eece-427c-b440-818de8b2640e",
      "meta": {
        "profile": [ "http://hl7.org/fhir/us/qicore/StructureDefinition/qicore-practitioner" ]
      },
      "identifier": [ {
        "system": "http://hl7.org/fhir/sid/us-npi",
        "value": "123456"
      } ],
      "name": [ {
        "family": "Evil",
        "prefix": [ "Dr" ]
      } ]
    },
    "request": {
      "method": "PUT",
      "url": "Practitioner/ff830886-eece-427c-b440-818de8b2640e"
    }
  }, {
    "fullUrl": "https://madie.cms.gov/MeasureReport/64ba88e2-077e-42be-aca4-8e7b18c93ed0",
    "resource": {
      "resourceType": "MeasureReport",
      "id": "64ba88e2-077e-42be-aca4-8e7b18c93ed0",
      "meta": {
        "profile": [ "http://hl7.org/fhir/us/cqfmeasures/StructureDefinition/test-case-cqfm" ]
      },
      "contained": [ {
        "resourceType": "Parameters",
        "id": "bbee0c91-6c4a-4f3b-b53d-36d25acf1f87-parameters",
        "parameter": [ {
          "name": "subject",
          "valueString": "1eaf0b86-afe8-488c-8f32-6321ecfe0fca"
        } ]
      } ],
      "extension": [ {
        "url": "http://hl7.org/fhir/StructureDefinition/cqf-inputParameters",
        "valueReference": {
          "reference": "#bbee0c91-6c4a-4f3b-b53d-36d25acf1f87-parameters"
        }
      }, {
        "url": "http://hl7.org/fhir/us/cqfmeasures/StructureDefinition/cqfm-testCaseDescription",
        "valueMarkdown": "11yo male with depression screening. gender = unknown to cover Sex logic \"null\""
      } ],
      "modifierExtension": [ {
        "url": "http://hl7.org/fhir/us/cqfmeasures/StructureDefinition/cqfm-isTestCase",
        "valueBoolean": true
      } ],
      "status": "complete",
      "type": "individual",
      "measure": "https://madie.cms.gov/Measure/CMS2FHIRPCSDepressionScreenAndFollowUp",
      "period": {
        "start": "2026-01-01",
        "end": "2026-12-31"
      },
      "group": [ {
        "id": "Group_1",
        "population": [ {
          "id": "InitialPopulation_1",
          "code": {
            "coding": [ {
              "system": "http://terminology.hl7.org/CodeSystem/measure-population",
              "code": "initial-population",
              "display": "Initial Population"
            } ]
          },
          "count": 0
        }, {
          "id": "Denominator_1",
          "code": {
            "coding": [ {
              "system": "http://terminology.hl7.org/CodeSystem/measure-population",
              "code": "denominator",
              "display": "Denominator"
            } ]
          },
          "count": 0
        }, {
          "id": "DenominatorExclusion_1",
          "code": {
            "coding": [ {
              "system": "http://terminology.hl7.org/CodeSystem/measure-population",
              "code": "denominator-exclusion",
              "display": "Denominator Exclusion"
            } ]
          },
          "count": 0
        }, {
          "id": "Numerator_1",
          "code": {
            "coding": [ {
              "system": "http://terminology.hl7.org/CodeSystem/measure-population",
              "code": "numerator",
              "display": "Numerator"
            } ]
          },
          "count": 0
        }, {
          "id": "DenominatorException_1",
          "code": {
            "coding": [ {
              "system": "http://terminology.hl7.org/CodeSystem/measure-population",
              "code": "denominator-exception",
              "display": "Denominator Exception"
            } ]
          },
          "count": 0
        } ],
        "measureScore": {
          "value": 1.0
        }
      } ],
      "evaluatedResource": [ {
        "reference": "Patient/1eaf0b86-afe8-488c-8f32-6321ecfe0fca"
      }, {
        "reference": "Encounter/32457f25-4e1d-420f-8323-16125055a2e0"
      }, {
        "reference": "Coverage/e2d8ada2-791f-4147-a7e2-471be91b610d"
      }, {
        "reference": "Organization/2150dc81-ab32-4acb-9126-a033dd6ca231"
      }, {
        "reference": "Practitioner/ff830886-eece-427c-b440-818de8b2640e"
      } ]
    },
    "request": {
      "method": "PUT",
      "url": "MeasureReport/64ba88e2-077e-42be-aca4-8e7b18c93ed0"
    }
  } ]
}