{
  "resourceType": "Bundle",
  "id": "tests-DENEXFail-Increase03mgSCrUsingLowestIn24Hrs",
  "type": "transaction",
  "entry": [ {
    "fullUrl": "https://madie.cms.gov/Patient/4ecdf561-5bdb-4a32-8cad-beb0dc1d1367",
    "resource": {
      "resourceType": "Patient",
      "id": "4ecdf561-5bdb-4a32-8cad-beb0dc1d1367",
      "meta": {
        "profile": [ "http://hl7.org/fhir/us/qicore/StructureDefinition/qicore-patient" ]
      },
      "extension": [ {
        "url": "http://hl7.org/fhir/us/core/StructureDefinition/us-core-race",
        "extension": [ {
          "url": "ombCategory",
          "valueCoding": {
            "system": "urn:oid:2.16.840.1.113883.6.238",
            "code": "2106-3",
            "display": "White"
          }
        }, {
          "url": "text",
          "valueString": "White"
        } ]
      }, {
        "url": "http://hl7.org/fhir/us/core/StructureDefinition/us-core-ethnicity",
        "extension": [ {
          "url": "ombCategory",
          "valueCoding": {
            "system": "urn:oid:2.16.840.1.113883.6.238",
            "code": "2135-2",
            "display": "Hispanic or Latino"
          }
        }, {
          "url": "text",
          "valueString": "Hispanic or Latino"
        } ]
      }, {
        "url": "http://hl7.org/fhir/us/core/StructureDefinition/us-core-sex",
        "valueCode": "248153007"
      } ],
      "identifier": [ {
        "system": "http://hospital.smarthealthit.org",
        "value": "999999999"
      } ],
      "name": [ {
        "family": "Example",
        "given": [ "Patient" ]
      } ],
      "gender": "male",
      "birthDate": "1975-01-01"
    },
    "request": {
      "method": "PUT",
      "url": "Patient/4ecdf561-5bdb-4a32-8cad-beb0dc1d1367"
    }
  }, {
    "fullUrl": "https://madie.cms.gov/Encounter/5da3079c-4a62-464f-8d3b-5c3f185c3486",
    "resource": {
      "resourceType": "Encounter",
      "id": "5da3079c-4a62-464f-8d3b-5c3f185c3486",
      "meta": {
        "profile": [ "http://hl7.org/fhir/us/qicore/StructureDefinition/qicore-encounter" ]
      },
      "status": "finished",
      "class": {
        "system": "http://terminology.hl7.org/CodeSystem/v3-ActCode",
        "code": "IMP",
        "display": "inpatient encounter"
      },
      "type": [ {
        "coding": [ {
          "system": "http://snomed.info/sct",
          "code": "183452005",
          "display": "Emergency hospital admission (procedure)"
        } ]
      } ],
      "subject": {
        "reference": "Patient/4ecdf561-5bdb-4a32-8cad-beb0dc1d1367"
      },
      "period": {
        "start": "2026-12-16T08:00:00.000+00:00",
        "end": "2026-12-24T08:15:00.000+00:00"
      }
    },
    "request": {
      "method": "PUT",
      "url": "Encounter/5da3079c-4a62-464f-8d3b-5c3f185c3486"
    }
  }, {
    "fullUrl": "https://madie.cms.gov/Observation/41644173-f467-4f53-a7b8-83a841a3481c",
    "resource": {
      "resourceType": "Observation",
      "id": "41644173-f467-4f53-a7b8-83a841a3481c",
      "meta": {
        "profile": [ "http://hl7.org/fhir/us/qicore/StructureDefinition/qicore-observation-lab" ]
      },
      "status": "final",
      "category": [ {
        "coding": [ {
          "system": "http://terminology.hl7.org/CodeSystem/observation-category",
          "code": "laboratory",
          "display": "Laboratory"
        } ]
      } ],
      "code": {
        "coding": [ {
          "system": "http://loinc.org",
          "code": "21232-4",
          "display": "Creatinine [Mass/volume] in Serum or Plasma"
        } ]
      },
      "subject": {
        "reference": "Patient/4ecdf561-5bdb-4a32-8cad-beb0dc1d1367"
      },
      "effectiveDateTime": "2026-12-16T20:00:00.000+00:00",
      "valueQuantity": {
        "value": 1,
        "unit": "mg/dL",
        "system": "http://unitsofmeasure.org",
        "code": "mg/dL"
      }
    },
    "request": {
      "method": "PUT",
      "url": "Observation/41644173-f467-4f53-a7b8-83a841a3481c"
    }
  }, {
    "fullUrl": "https://madie.cms.gov/Observation/eec8c8a0-5efe-4fca-beb5-2fb3b363d4c7",
    "resource": {
      "resourceType": "Observation",
      "id": "eec8c8a0-5efe-4fca-beb5-2fb3b363d4c7",
      "meta": {
        "profile": [ "http://hl7.org/fhir/us/qicore/StructureDefinition/qicore-observation-lab" ]
      },
      "status": "final",
      "category": [ {
        "coding": [ {
          "system": "http://terminology.hl7.org/CodeSystem/observation-category",
          "code": "laboratory",
          "display": "Laboratory"
        } ]
      } ],
      "code": {
        "coding": [ {
          "system": "http://loinc.org",
          "code": "21232-4",
          "display": "Creatinine [Mass/volume] in Serum or Plasma"
        } ]
      },
      "subject": {
        "reference": "Patient/4ecdf561-5bdb-4a32-8cad-beb0dc1d1367"
      },
      "effectiveDateTime": "2026-12-17T08:00:00.000+00:00",
      "valueQuantity": {
        "value": 1.3,
        "unit": "mg/dL",
        "system": "http://unitsofmeasure.org",
        "code": "mg/dL"
      }
    },
    "request": {
      "method": "PUT",
      "url": "Observation/eec8c8a0-5efe-4fca-beb5-2fb3b363d4c7"
    }
  }, {
    "fullUrl": "https://madie.cms.gov/Observation/a2e2d096-b9db-4292-bd34-bcf5baf8b755",
    "resource": {
      "resourceType": "Observation",
      "id": "a2e2d096-b9db-4292-bd34-bcf5baf8b755",
      "meta": {
        "profile": [ "http://hl7.org/fhir/us/qicore/StructureDefinition/qicore-observation-lab" ]
      },
      "status": "final",
      "category": [ {
        "coding": [ {
          "system": "http://terminology.hl7.org/CodeSystem/observation-category",
          "code": "laboratory",
          "display": "Laboratory"
        } ]
      } ],
      "code": {
        "coding": [ {
          "system": "http://loinc.org",
          "code": "21232-4",
          "display": "Creatinine [Mass/volume] in Serum or Plasma"
        } ]
      },
      "subject": {
        "reference": "Patient/4ecdf561-5bdb-4a32-8cad-beb0dc1d1367"
      },
      "effectiveDateTime": "2026-12-18T08:01:00.000+00:00",
      "valueQuantity": {
        "value": 1,
        "unit": "mg/dL",
        "system": "http://unitsofmeasure.org",
        "code": "mg/dL"
      }
    },
    "request": {
      "method": "PUT",
      "url": "Observation/a2e2d096-b9db-4292-bd34-bcf5baf8b755"
    }
  }, {
    "fullUrl": "https://madie.cms.gov/MeasureReport/8550015f-407d-4c0e-9cd1-d7099b6e6862",
    "resource": {
      "resourceType": "MeasureReport",
      "id": "8550015f-407d-4c0e-9cd1-d7099b6e6862",
      "meta": {
        "profile": [ "http://hl7.org/fhir/us/cqfmeasures/StructureDefinition/test-case-cqfm" ]
      },
      "contained": [ {
        "resourceType": "Parameters",
        "id": "34d786fe-98f2-4dd3-b5e7-997810f19567-parameters",
        "parameter": [ {
          "name": "subject",
          "valueString": "4ecdf561-5bdb-4a32-8cad-beb0dc1d1367"
        } ]
      } ],
      "extension": [ {
        "url": "http://hl7.org/fhir/StructureDefinition/cqf-inputParameters",
        "valueReference": {
          "reference": "#34d786fe-98f2-4dd3-b5e7-997810f19567-parameters"
        }
      }, {
        "url": "http://hl7.org/fhir/us/cqfmeasures/StructureDefinition/cqfm-testCaseDescription",
        "valueMarkdown": "IP encounter where Male Pt had SCr of 1 within 1st 24 hrs. Subsequent SCr = 1.3. Increase of 0.3 Meets denominator exclusion"
      } ],
      "modifierExtension": [ {
        "url": "http://hl7.org/fhir/us/cqfmeasures/StructureDefinition/cqfm-isTestCase",
        "valueBoolean": true
      } ],
      "status": "complete",
      "type": "individual",
      "measure": "https://madie.cms.gov/Measure/CMS832HHAKIFHIR",
      "period": {
        "start": "2026-01-01",
        "end": "2026-12-31"
      },
      "group": [ {
        "id": "Group_1",
        "population": [ {
          "id": "InitialPopulation_1",
          "code": {
            "coding": [ {
              "system": "http://terminology.hl7.org/CodeSystem/measure-population",
              "code": "initial-population",
              "display": "Initial Population"
            } ]
          },
          "count": 1
        }, {
          "id": "Denominator_1",
          "code": {
            "coding": [ {
              "system": "http://terminology.hl7.org/CodeSystem/measure-population",
              "code": "denominator",
              "display": "Denominator"
            } ]
          },
          "count": 1
        }, {
          "id": "DenominatorExclusion_1",
          "code": {
            "coding": [ {
              "system": "http://terminology.hl7.org/CodeSystem/measure-population",
              "code": "denominator-exclusion",
              "display": "Denominator Exclusion"
            } ]
          },
          "count": 1
        }, {
          "id": "Numerator_1",
          "code": {
            "coding": [ {
              "system": "http://terminology.hl7.org/CodeSystem/measure-population",
              "code": "numerator",
              "display": "Numerator"
            } ]
          },
          "count": 0
        } ],
        "measureScore": {
          "value": 0.0
        }
      } ],
      "evaluatedResource": [ {
        "reference": "Patient/4ecdf561-5bdb-4a32-8cad-beb0dc1d1367"
      }, {
        "reference": "Encounter/5da3079c-4a62-464f-8d3b-5c3f185c3486"
      }, {
        "reference": "Observation/41644173-f467-4f53-a7b8-83a841a3481c"
      }, {
        "reference": "Observation/eec8c8a0-5efe-4fca-beb5-2fb3b363d4c7"
      }, {
        "reference": "Observation/a2e2d096-b9db-4292-bd34-bcf5baf8b755"
      } ]
    },
    "request": {
      "method": "PUT",
      "url": "MeasureReport/8550015f-407d-4c0e-9cd1-d7099b6e6862"
    }
  } ]
}