{
  "resourceType": "Bundle",
  "id": "60f82c2f98086b570510e2a0",
  "type": "transaction",
  "entry": [ {
    "fullUrl": "https://madie.cms.gov/Patient/a0ced1fb-191d-404b-80f4-761e51cf9de2",
    "resource": {
      "resourceType": "Patient",
      "id": "a0ced1fb-191d-404b-80f4-761e51cf9de2",
      "meta": {
        "profile": [ "http://hl7.org/fhir/us/qicore/StructureDefinition/qicore-patient" ]
      },
      "text": {
        "status": "generated",
        "div": "<div xmlns=\"http://www.w3.org/1999/xhtml\"><div class=\"hapiHeaderText\">PharmContraDayOfEncStart_NoEDNoObsBFEnc <b>DENEXCEPPASS </b></div><table class=\"hapiPropertyTable\"><tbody><tr><td>Identifier</td><td>23ca8d220e136a05792f06f1300ec35c968458532c76c051729199b6b17df285</td></tr><tr><td>Date of birth</td><td><span>26 September 1975</span></td></tr></tbody></table></div>"
      },
      "extension": [ {
        "url": "http://hl7.org/fhir/us/core/StructureDefinition/us-core-race",
        "extension": [ {
          "url": "ombCategory",
          "valueCoding": {
            "system": "urn:oid:2.16.840.1.113883.6.238",
            "code": "2054-5",
            "display": "Black or African American",
            "userSelected": true
          }
        }, {
          "url": "text",
          "valueString": "Black or African American"
        } ]
      }, {
        "url": "http://hl7.org/fhir/us/core/StructureDefinition/us-core-ethnicity",
        "extension": [ {
          "url": "ombCategory",
          "valueCoding": {
            "system": "urn:oid:2.16.840.1.113883.6.238",
            "code": "2186-5",
            "display": "Not Hispanic or Latino",
            "userSelected": true
          }
        }, {
          "url": "text",
          "valueString": "Not Hispanic or Latino"
        } ]
      } ],
      "identifier": [ {
        "type": {
          "coding": [ {
            "system": "http://terminology.hl7.org/CodeSystem/v2-0203",
            "code": "MR"
          } ]
        },
        "system": "https://bonnie-fhir.healthit.gov/",
        "value": "60f82c2f98086b570510e2a0"
      } ],
      "active": true,
      "name": [ {
        "use": "usual",
        "family": "DENEXCEPPass",
        "given": [ "PharmContraDayOfEncStart_NoEDNoObsBFEnc" ]
      } ],
      "gender": "female",
      "birthDate": "1976-09-26"
    },
    "request": {
      "method": "PUT",
      "url": "Patient/a0ced1fb-191d-404b-80f4-761e51cf9de2"
    }
  }, {
    "fullUrl": "https://madie.cms.gov/Encounter/50545582-5266-4e07-9fcc-b55e015f53bc",
    "resource": {
      "resourceType": "Encounter",
      "id": "50545582-5266-4e07-9fcc-b55e015f53bc",
      "meta": {
        "profile": [ "http://hl7.org/fhir/us/qicore/StructureDefinition/qicore-encounter" ]
      },
      "status": "finished",
      "class": {
        "system": "http://terminology.hl7.org/CodeSystem/v3-ActCode",
        "code": "IMP",
        "display": "inpatient encounter",
        "userSelected": true
      },
      "type": [ {
        "coding": [ {
          "system": "http://snomed.info/sct",
          "code": "32485007"
        } ]
      } ],
      "subject": {
        "reference": "Patient/a0ced1fb-191d-404b-80f4-761e51cf9de2"
      },
      "period": {
        "start": "2026-10-10T09:00:00Z",
        "end": "2026-10-12T11:15:00.000+00:00"
      },
      "length": {
        "value": 2,
        "unit": "days"
      },
      "reasonReference": [ {
        "reference": "Condition/f90631fd-f3b1-4aa8-b745-ade1277ad275"
      } ]
    },
    "request": {
      "method": "PUT",
      "url": "Encounter/50545582-5266-4e07-9fcc-b55e015f53bc"
    }
  }, {
    "fullUrl": "https://madie.cms.gov/claim/5ca62962b8484628b8de1ec5",
    "resource": {
      "resourceType": "Claim",
      "id": "5ca62962b8484628b8de1ec5",
      "meta": {
        "profile": [ "http://hl7.org/fhir/us/qicore/StructureDefinition/qicore-claim" ]
      },
      "status": "active",
      "type": {
        "coding": [ {
          "system": "http://terminology.hl7.org/CodeSystem/claim-type",
          "code": "institutional"
        } ]
      },
      "use": "claim",
      "patient": {
        "reference": "Patient/d170a0a8-b5ad-4303-b6df-e304dd5f92ad"
      },
      "created": "2026-12-01",
      "provider": {
        "reference": "Practitioner/practitioner-123456"
      },
      "priority": {
        "coding": [ {
          "system": "http://terminology.hl7.org/CodeSystem/processpriority",
          "code": "normal"
        } ]
      },
      "diagnosis": [ {
        "sequence": 1,
        "diagnosisCodeableConcept": {
          "coding": [ {
            "system": "http://hl7.org/fhir/sid/icd-10-cm",
            "code": "I63.00"
          } ]
        },
        "type": [ {
          "coding": [ {
            "system": "http://terminology.hl7.org/CodeSystem/ex-diagnosistype",
            "code": "principal"
          } ]
        } ]
      } ],
      "insurance": [ {
        "sequence": 1,
        "focal": true,
        "coverage": {
          "reference": "Coverage/5fa041661c76ba66d9959367"
        }
      } ],
      "item": [ {
        "sequence": 1,
        "diagnosisSequence": [ 1 ],
        "productOrService": {
          "coding": [ {
            "system": "http://terminology.hl7.org/CodeSystem/ex-USCLS",
            "code": "99555"
          } ]
        },
        "encounter": [ {
          "reference": "Encounter/50545582-5266-4e07-9fcc-b55e015f53bc"
        } ]
      } ]
    },
    "request": {
      "method": "PUT",
      "url": "Claim/5ca62962b8484628b8de1ec5"
    }
  }, {
    "fullUrl": "https://madie.cms.gov/MedicationAdministration/2b4b1a27-afde-416a-b4f4-c815da8475fb",
    "resource": {
      "resourceType": "MedicationAdministration",
      "id": "2b4b1a27-afde-416a-b4f4-c815da8475fb",
      "meta": {
        "profile": [ "http://hl7.org/fhir/us/qicore/StructureDefinition/qicore-medicationadministration" ]
      },
      "status": "completed",
      "medicationCodeableConcept": {
        "coding": [ {
          "system": "http://www.nlm.nih.gov/research/umls/rxnorm",
          "code": "855812",
          "display": "prasugrel 10 MG Oral Tablet",
          "userSelected": true
        } ]
      },
      "subject": {
        "reference": "Patient/a0ced1fb-191d-404b-80f4-761e51cf9de2"
      },
      "effectivePeriod": {
        "start": "2026-10-10T09:00:00Z"
      }
    },
    "request": {
      "method": "PUT",
      "url": "MedicationAdministration/2b4b1a27-afde-416a-b4f4-c815da8475fb"
    }
  }, {
    "fullUrl": "https://madie.cms.gov/Coverage/8a705742-8641-48be-b84c-b75aaf7e5962",
    "resource": {
      "resourceType": "Coverage",
      "id": "8a705742-8641-48be-b84c-b75aaf7e5962",
      "status": "active",
      "subscriberId": "523435",
      "beneficiary": {
        "reference": "Patient/a0ced1fb-191d-404b-80f4-761e51cf9de2"
      },
      "relationship": {
        "coding": [ {
          "system": "http://terminology.hl7.org/CodeSystem/subscriber-relationship",
          "code": "self"
        } ]
      },
      "period": {
        "start": "1976-09-26T08:00:00Z"
      },
      "payor": [ {
        "reference": "Organization/a34a7569-b208-4876-8e1f-3801c0f2b728"
      } ]
    },
    "request": {
      "method": "PUT",
      "url": "Coverage/8a705742-8641-48be-b84c-b75aaf7e5962"
    }
  }, {
    "fullUrl": "https://madie.cms.gov/Condition/f90631fd-f3b1-4aa8-b745-ade1277ad275",
    "resource": {
      "resourceType": "Condition",
      "id": "f90631fd-f3b1-4aa8-b745-ade1277ad275",
      "meta": {
        "profile": [ "http://hl7.org/fhir/us/qicore/StructureDefinition/qicore-condition-encounter-diagnosis" ]
      },
      "clinicalStatus": {
        "coding": [ {
          "system": "http://terminology.hl7.org/CodeSystem/condition-clinical",
          "code": "active"
        } ]
      },
      "verificationStatus": {
        "coding": [ {
          "system": "http://terminology.hl7.org/CodeSystem/condition-ver-status",
          "code": "confirmed"
        } ]
      },
      "category": [ {
        "coding": [ {
          "system": "http://terminology.hl7.org/CodeSystem/condition-category",
          "code": "encounter-diagnosis",
          "display": "Encounter Diagnosis"
        } ]
      } ],
      "code": {
        "coding": [ {
          "system": "http://snomed.info/sct",
          "version": "2020-09",
          "code": "111297002",
          "display": "Nonparalytic stroke (disorder)",
          "userSelected": true
        } ]
      },
      "subject": {
        "reference": "Patient/a0ced1fb-191d-404b-80f4-761e51cf9de2"
      },
      "recordedDate": "2026-08-06T08:00:00Z"
    },
    "request": {
      "method": "PUT",
      "url": "Condition/f90631fd-f3b1-4aa8-b745-ade1277ad275"
    }
  }, {
    "fullUrl": "https://madie.cms.gov/Organization/a34a7569-b208-4876-8e1f-3801c0f2b728",
    "resource": {
      "resourceType": "Organization",
      "id": "a34a7569-b208-4876-8e1f-3801c0f2b728",
      "meta": {
        "profile": [ "http://hl7.org/fhir/us/qicore/StructureDefinition/qicore-organization" ]
      },
      "identifier": [ {
        "use": "temp",
        "system": "urn:oid:2.16.840.1.113883.4.4",
        "value": "21-3259825"
      } ],
      "active": true,
      "type": [ {
        "coding": [ {
          "system": "http://terminology.hl7.org/CodeSystem/organization-type",
          "code": "pay",
          "display": "Payer"
        } ]
      } ],
      "name": "Blue Cross Blue Shield of Texas",
      "telecom": [ {
        "system": "phone",
        "value": "(+1) 972-766-6900"
      } ],
      "address": [ {
        "use": "billing",
        "type": "postal",
        "line": [ "P.O. Box 660044" ],
        "city": "Dallas",
        "state": "TX",
        "postalCode": "75266-0044",
        "country": "USA"
      } ]
    },
    "request": {
      "method": "PUT",
      "url": "Organization/a34a7569-b208-4876-8e1f-3801c0f2b728"
    }
  }, {
    "fullUrl": "https://madie.cms.gov/MeasureReport/1b683f85-79f1-4fe4-a49a-2b04fc3c8c19",
    "resource": {
      "resourceType": "MeasureReport",
      "id": "1b683f85-79f1-4fe4-a49a-2b04fc3c8c19",
      "meta": {
        "profile": [ "http://hl7.org/fhir/us/cqfmeasures/StructureDefinition/test-case-cqfm" ]
      },
      "contained": [ {
        "resourceType": "Parameters",
        "id": "538039e0-36f4-4d9b-a310-a066e227c303-parameters",
        "parameter": [ {
          "name": "subject",
          "valueString": "a0ced1fb-191d-404b-80f4-761e51cf9de2"
        } ]
      } ],
      "extension": [ {
        "url": "http://hl7.org/fhir/StructureDefinition/cqf-inputParameters",
        "valueReference": {
          "reference": "#538039e0-36f4-4d9b-a310-a066e227c303-parameters"
        }
      }, {
        "url": "http://hl7.org/fhir/us/cqfmeasures/StructureDefinition/cqfm-testCaseDescription",
        "valueMarkdown": "Patient receives Ticagrelor Day of Obs. ED ends 1 min before Obs.Obs ends 1 min before midnight. IP starts at midnight. Testing Day of operator with HospitalizationWithObservation function.\n"
      } ],
      "modifierExtension": [ {
        "url": "http://hl7.org/fhir/us/cqfmeasures/StructureDefinition/cqfm-isTestCase",
        "valueBoolean": true
      } ],
      "status": "complete",
      "type": "individual",
      "measure": "https://madie.cms.gov/Measure/CMS72FHIRSTKAntithromboticDay2",
      "period": {
        "start": "2026-01-01",
        "end": "2026-12-31"
      },
      "group": [ {
        "id": "Group_1",
        "population": [ {
          "id": "InitialPopulation_1",
          "code": {
            "coding": [ {
              "system": "http://terminology.hl7.org/CodeSystem/measure-population",
              "code": "initial-population",
              "display": "Initial Population"
            } ]
          },
          "count": 1
        }, {
          "id": "Denominator_1",
          "code": {
            "coding": [ {
              "system": "http://terminology.hl7.org/CodeSystem/measure-population",
              "code": "denominator",
              "display": "Denominator"
            } ]
          },
          "count": 1
        }, {
          "id": "DenominatorExclusion_1",
          "code": {
            "coding": [ {
              "system": "http://terminology.hl7.org/CodeSystem/measure-population",
              "code": "denominator-exclusion",
              "display": "Denominator Exclusion"
            } ]
          },
          "count": 0
        }, {
          "id": "Numerator_1",
          "code": {
            "coding": [ {
              "system": "http://terminology.hl7.org/CodeSystem/measure-population",
              "code": "numerator",
              "display": "Numerator"
            } ]
          },
          "count": 0
        }, {
          "id": "DenominatorException_1",
          "code": {
            "coding": [ {
              "system": "http://terminology.hl7.org/CodeSystem/measure-population",
              "code": "denominator-exception",
              "display": "Denominator Exception"
            } ]
          },
          "count": 1
        } ],
        "measureScore": {
          "value": 0.0
        }
      } ],
      "evaluatedResource": [ {
        "reference": "Patient/a0ced1fb-191d-404b-80f4-761e51cf9de2"
      }, {
        "reference": "Encounter/50545582-5266-4e07-9fcc-b55e015f53bc"
      }, {
        "reference": "Claim/5ca62962b8484628b8de1ec5"
      }, {
        "reference": "MedicationAdministration/2b4b1a27-afde-416a-b4f4-c815da8475fb"
      }, {
        "reference": "Coverage/8a705742-8641-48be-b84c-b75aaf7e5962"
      }, {
        "reference": "Condition/f90631fd-f3b1-4aa8-b745-ade1277ad275"
      }, {
        "reference": "Organization/a34a7569-b208-4876-8e1f-3801c0f2b728"
      } ]
    },
    "request": {
      "method": "PUT",
      "url": "MeasureReport/1b683f85-79f1-4fe4-a49a-2b04fc3c8c19"
    }
  } ]
}