{
  "resourceType": "Bundle",
  "id": "9761313461351313",
  "type": "transaction",
  "entry": [ {
    "fullUrl": "https://madie.cms.gov/Patient/ed37e316-c721-4a98-91d7-862f5ece7187",
    "resource": {
      "resourceType": "Patient",
      "id": "ed37e316-c721-4a98-91d7-862f5ece7187",
      "meta": {
        "profile": [ "http://hl7.org/fhir/us/qicore/StructureDefinition/qicore-patient" ]
      },
      "extension": [ {
        "url": "http://hl7.org/fhir/us/core/StructureDefinition/us-core-race",
        "extension": [ {
          "url": "ombCategory",
          "valueCoding": {
            "system": "urn:oid:2.16.840.1.113883.6.238",
            "code": "2054-5",
            "display": "Black or African American",
            "userSelected": true
          }
        }, {
          "url": "text",
          "valueString": "Black or African American"
        } ]
      }, {
        "url": "http://hl7.org/fhir/us/core/StructureDefinition/us-core-ethnicity",
        "extension": [ {
          "url": "ombCategory",
          "valueCoding": {
            "system": "urn:oid:2.16.840.1.113883.6.238",
            "code": "2135-2",
            "display": "Hispanic or Latino",
            "userSelected": true
          }
        }, {
          "url": "text",
          "valueString": "Hispanic or Latino"
        } ]
      } ],
      "identifier": [ {
        "type": {
          "coding": [ {
            "system": "http://terminology.hl7.org/CodeSystem/v2-0203",
            "code": "MR"
          } ]
        },
        "system": "https://bonnie-fhir.healthit.gov/",
        "value": "4687683516442"
      } ],
      "name": [ {
        "family": "DENEXPass",
        "given": [ "HeartTransplPriorMP" ]
      } ],
      "gender": "male",
      "birthDate": "1969-06-14"
    },
    "request": {
      "method": "PUT",
      "url": "Patient/ed37e316-c721-4a98-91d7-862f5ece7187"
    }
  }, {
    "fullUrl": "https://madie.cms.gov/Encounter/4fc41230-baad-4355-9a48-79a3ce560791",
    "resource": {
      "resourceType": "Encounter",
      "id": "4fc41230-baad-4355-9a48-79a3ce560791",
      "meta": {
        "profile": [ "http://hl7.org/fhir/us/qicore/StructureDefinition/qicore-encounter" ]
      },
      "status": "finished",
      "class": {
        "system": "http://terminology.hl7.org/CodeSystem/v3-ActCode",
        "code": "AMB",
        "display": "ambulatory"
      },
      "type": [ {
        "coding": [ {
          "system": "http://snomed.info/sct",
          "version": "http://snomed.info/sct/731000124108/version/20240301",
          "code": "185463005",
          "display": "Visit out of hours (procedure)"
        } ]
      } ],
      "subject": {
        "reference": "Patient/ed37e316-c721-4a98-91d7-862f5ece7187"
      },
      "period": {
        "start": "2026-03-31T08:00:00.000+00:00",
        "end": "2026-03-31T08:15:00.000+00:00"
      }
    },
    "request": {
      "method": "PUT",
      "url": "Encounter/4fc41230-baad-4355-9a48-79a3ce560791"
    }
  }, {
    "fullUrl": "https://madie.cms.gov/Encounter/2e3e5541-f760-4af5-9b69-e7850368323c",
    "resource": {
      "resourceType": "Encounter",
      "id": "2e3e5541-f760-4af5-9b69-e7850368323c",
      "meta": {
        "profile": [ "http://hl7.org/fhir/us/qicore/StructureDefinition/qicore-encounter" ]
      },
      "status": "finished",
      "class": {
        "system": "http://terminology.hl7.org/CodeSystem/v3-ActCode",
        "code": "AMB",
        "display": "ambulatory"
      },
      "type": [ {
        "coding": [ {
          "system": "http://snomed.info/sct",
          "version": "http://snomed.info/sct/731000124108/version/20240301",
          "code": "185463005",
          "display": "Visit out of hours (procedure)"
        } ]
      } ],
      "subject": {
        "reference": "Patient/ed37e316-c721-4a98-91d7-862f5ece7187"
      },
      "period": {
        "start": "2026-05-15T08:00:00.000+00:00",
        "end": "2026-05-15T08:15:00.000+00:00"
      }
    },
    "request": {
      "method": "PUT",
      "url": "Encounter/2e3e5541-f760-4af5-9b69-e7850368323c"
    }
  }, {
    "fullUrl": "https://madie.cms.gov/Condition/afa94015-e3a9-44d4-9170-6526ec213929",
    "resource": {
      "resourceType": "Condition",
      "id": "afa94015-e3a9-44d4-9170-6526ec213929",
      "meta": {
        "profile": [ "http://hl7.org/fhir/us/qicore/StructureDefinition/qicore-condition-problems-health-concerns" ]
      },
      "clinicalStatus": {
        "coding": [ {
          "system": "http://terminology.hl7.org/CodeSystem/condition-clinical",
          "code": "active",
          "display": "active"
        } ]
      },
      "verificationStatus": {
        "coding": [ {
          "system": "http://terminology.hl7.org/CodeSystem/condition-ver-status",
          "code": "confirmed",
          "display": "Confirmed"
        } ]
      },
      "category": [ {
        "coding": [ {
          "system": "http://terminology.hl7.org/CodeSystem/condition-category",
          "code": "problem-list-item",
          "display": "Problem List Item"
        } ]
      } ],
      "code": {
        "coding": [ {
          "system": "http://snomed.info/sct",
          "version": "http://snomed.info/sct/731000124108/version/20240301",
          "code": "10091002",
          "display": "High output heart failure (disorder)"
        } ]
      },
      "subject": {
        "reference": "Patient/ed37e316-c721-4a98-91d7-862f5ece7187"
      },
      "onsetPeriod": {
        "start": "2025-05-17T08:00:00.000+00:00"
      }
    },
    "request": {
      "method": "PUT",
      "url": "Condition/afa94015-e3a9-44d4-9170-6526ec213929"
    }
  }, {
    "fullUrl": "https://madie.cms.gov/Condition/cdd3e461-8521-4d73-aa40-a7895a4529b5",
    "resource": {
      "resourceType": "Condition",
      "id": "cdd3e461-8521-4d73-aa40-a7895a4529b5",
      "meta": {
        "profile": [ "http://hl7.org/fhir/us/qicore/StructureDefinition/qicore-condition-problems-health-concerns" ]
      },
      "clinicalStatus": {
        "coding": [ {
          "system": "http://terminology.hl7.org/CodeSystem/condition-clinical",
          "code": "active",
          "display": "Active"
        } ]
      },
      "verificationStatus": {
        "coding": [ {
          "system": "http://terminology.hl7.org/CodeSystem/condition-ver-status",
          "code": "confirmed",
          "display": "Confirmed"
        } ]
      },
      "category": [ {
        "coding": [ {
          "system": "http://terminology.hl7.org/CodeSystem/condition-category",
          "code": "problem-list-item",
          "display": "Problem List Item"
        } ]
      } ],
      "code": {
        "coding": [ {
          "system": "http://snomed.info/sct",
          "version": "http://snomed.info/sct/731000124108/version/20240301",
          "code": "981000124106",
          "display": "Moderate left ventricular systolic dysfunction (disorder)"
        } ]
      },
      "subject": {
        "reference": "Patient/ed37e316-c721-4a98-91d7-862f5ece7187"
      },
      "onsetPeriod": {
        "start": "2026-03-25T08:00:00.000+00:00",
        "end": "2026-03-30T08:15:00.000+00:00"
      }
    },
    "request": {
      "method": "PUT",
      "url": "Condition/cdd3e461-8521-4d73-aa40-a7895a4529b5"
    }
  }, {
    "fullUrl": "https://madie.cms.gov/Procedure/b3e87050-081f-45fe-a9c9-6833ac26678e",
    "resource": {
      "resourceType": "Procedure",
      "id": "b3e87050-081f-45fe-a9c9-6833ac26678e",
      "meta": {
        "profile": [ "http://hl7.org/fhir/us/qicore/StructureDefinition/qicore-procedure" ]
      },
      "extension": [ {
        "url": "http://hl7.org/fhir/us/qicore/StructureDefinition/qicore-recorded",
        "valueDateTime": "2025-08-04T08:00:00.000+00:00"
      } ],
      "status": "completed",
      "code": {
        "coding": [ {
          "system": "http://snomed.info/sct",
          "version": "http://snomed.info/sct/731000124108/version/20240301",
          "code": "174803001",
          "display": "Revision of transplantation of heart and lung (procedure)"
        } ]
      },
      "subject": {
        "reference": "Patient/ed37e316-c721-4a98-91d7-862f5ece7187"
      },
      "performedPeriod": {
        "start": "2025-12-31T23:59:59.999+00:00",
        "end": "2026-01-01T01:30:00.000+00:00"
      }
    },
    "request": {
      "method": "PUT",
      "url": "Procedure/b3e87050-081f-45fe-a9c9-6833ac26678e"
    }
  }, {
    "fullUrl": "https://madie.cms.gov/MeasureReport/16c33c9a-4ce9-446f-b853-2d1d2327e0d3",
    "resource": {
      "resourceType": "MeasureReport",
      "id": "16c33c9a-4ce9-446f-b853-2d1d2327e0d3",
      "meta": {
        "profile": [ "http://hl7.org/fhir/us/cqfmeasures/StructureDefinition/test-case-cqfm" ]
      },
      "contained": [ {
        "resourceType": "Parameters",
        "id": "28a5f5cc-7398-472c-b98d-e94a5a547d44-parameters",
        "parameter": [ {
          "name": "subject",
          "valueString": "ed37e316-c721-4a98-91d7-862f5ece7187"
        } ]
      } ],
      "extension": [ {
        "url": "http://hl7.org/fhir/StructureDefinition/cqf-inputParameters",
        "valueReference": {
          "reference": "#28a5f5cc-7398-472c-b98d-e94a5a547d44-parameters"
        }
      }, {
        "url": "http://hl7.org/fhir/us/cqfmeasures/StructureDefinition/cqfm-testCaseDescription",
        "valueMarkdown": "Patient with HF diagnosis and LVSD encounters meets denominator exclusion for having a heart transplant prior to MP."
      } ],
      "modifierExtension": [ {
        "url": "http://hl7.org/fhir/us/cqfmeasures/StructureDefinition/cqfm-isTestCase",
        "valueBoolean": true
      } ],
      "status": "complete",
      "type": "individual",
      "measure": "https://madie.cms.gov/Measure/CMS135FHIRHFACEIorARBorARNIforLVSD",
      "period": {
        "start": "2026-01-01",
        "end": "2026-12-31"
      },
      "group": [ {
        "id": "Group_1",
        "population": [ {
          "id": "InitialPopulation_1",
          "code": {
            "coding": [ {
              "system": "http://terminology.hl7.org/CodeSystem/measure-population",
              "code": "initial-population",
              "display": "Initial Population"
            } ]
          },
          "count": 1
        }, {
          "id": "Denominator_1",
          "code": {
            "coding": [ {
              "system": "http://terminology.hl7.org/CodeSystem/measure-population",
              "code": "denominator",
              "display": "Denominator"
            } ]
          },
          "count": 1
        }, {
          "id": "DenominatorExclusion_1",
          "code": {
            "coding": [ {
              "system": "http://terminology.hl7.org/CodeSystem/measure-population",
              "code": "denominator-exclusion",
              "display": "Denominator Exclusion"
            } ]
          },
          "count": 1
        }, {
          "id": "Numerator_1",
          "code": {
            "coding": [ {
              "system": "http://terminology.hl7.org/CodeSystem/measure-population",
              "code": "numerator",
              "display": "Numerator"
            } ]
          },
          "count": 0
        }, {
          "id": "DenominatorException_1",
          "code": {
            "coding": [ {
              "system": "http://terminology.hl7.org/CodeSystem/measure-population",
              "code": "denominator-exception",
              "display": "Denominator Exception"
            } ]
          },
          "count": 0
        } ],
        "measureScore": {
          "value": 1.0
        }
      } ],
      "evaluatedResource": [ {
        "reference": "Patient/ed37e316-c721-4a98-91d7-862f5ece7187"
      }, {
        "reference": "Encounter/4fc41230-baad-4355-9a48-79a3ce560791"
      }, {
        "reference": "Encounter/2e3e5541-f760-4af5-9b69-e7850368323c"
      }, {
        "reference": "Condition/afa94015-e3a9-44d4-9170-6526ec213929"
      }, {
        "reference": "Condition/cdd3e461-8521-4d73-aa40-a7895a4529b5"
      }, {
        "reference": "Procedure/b3e87050-081f-45fe-a9c9-6833ac26678e"
      } ]
    },
    "request": {
      "method": "PUT",
      "url": "MeasureReport/16c33c9a-4ce9-446f-b853-2d1d2327e0d3"
    }
  } ]
}