{"resourceType":"Bundle","id":"tests-2be46549-5ab0-4205-a0e0-166839906f95-bundle","type":"transaction","entry":[{"fullUrl":"Bundle/13165431313131354","resource":{"resourceType":"Bundle","id":"13165431313131354","type":"transaction","entry":[{"fullUrl":"https://madie.cms.gov/Patient/2be46549-5ab0-4205-a0e0-166839906f95","resource":{"resourceType":"Patient","id":"2be46549-5ab0-4205-a0e0-166839906f95","meta":{"profile":["http://hl7.org/fhir/us/qicore/StructureDefinition/qicore-patient"]},"extension":[{"url":"http://hl7.org/fhir/us/core/StructureDefinition/us-core-race","extension":[{"url":"ombCategory","valueCoding":{"system":"urn:oid:2.16.840.1.113883.6.238","code":"2106-3","display":"White"}},{"url":"detailed","valueCoding":{"system":"urn:oid:2.16.840.1.113883.6.238","code":"2036-2","display":"Filipino"}},{"url":"text","valueString":"mixed"}]},{"url":"http://hl7.org/fhir/us/core/StructureDefinition/us-core-ethnicity","extension":[{"url":"ombCategory","valueCoding":{"system":"urn:oid:2.16.840.1.113883.6.238","code":"2135-2","display":"Hispanic or Latino"}},{"url":"detailed","valueCoding":{"system":"urn:oid:2.16.840.1.113883.6.238","code":"2148-5","display":"Mexican"}},{"url":"text","valueString":"Hispanic or Latino"}]}],"identifier":[{"type":{"coding":[{"system":"http://terminology.hl7.org/CodeSystem/v2-0203","code":"MR"}]},"system":"https://bonnie-fhir.healthit.gov/","value":"464631315435131"}],"name":[{"family":"IPFail","given":["EncHasNoStartDate"]}],"gender":"other","birthDate":"1982-04-02"},"request":{"method":"PUT","url":"Patient/2be46549-5ab0-4205-a0e0-166839906f95"}},{"fullUrl":"https://madie.cms.gov/Encounter/aaf6e18a-660d-4fd4-8d52-c7bc112cacf3","resource":{"resourceType":"Encounter","id":"aaf6e18a-660d-4fd4-8d52-c7bc112cacf3","meta":{"profile":["http://hl7.org/fhir/us/qicore/StructureDefinition/qicore-encounter"]},"status":"finished","class":{"system":"http://terminology.hl7.org/CodeSystem/v3-ActCode","code":"AMB","display":"ambulatory"},"type":[{"coding":[{"system":"http://snomed.info/sct","version":"http://snomed.info/sct/731000124108/version/20240301","code":"185463005","display":"Visit out of hours (procedure)"}]}],"subject":{"reference":"Patient/2be46549-5ab0-4205-a0e0-166839906f95"},"period":{"end":"2026-03-31T08:00:00.000+00:00"}},"request":{"method":"PUT","url":"Encounter/aaf6e18a-660d-4fd4-8d52-c7bc112cacf3"}},{"fullUrl":"https://madie.cms.gov/Encounter/3d3d7a39-5c49-497f-a5ba-2bf9d2b0267f","resource":{"resourceType":"Encounter","id":"3d3d7a39-5c49-497f-a5ba-2bf9d2b0267f","meta":{"profile":["http://hl7.org/fhir/us/qicore/StructureDefinition/qicore-encounter"]},"status":"finished","class":{"system":"http://terminology.hl7.org/CodeSystem/v3-ActCode","code":"AMB","display":"ambulatory"},"type":[{"coding":[{"system":"http://snomed.info/sct","version":"http://snomed.info/sct/731000124108/version/20240301","code":"185463005","display":"Visit out of hours (procedure)"}]}],"subject":{"reference":"Patient/2be46549-5ab0-4205-a0e0-166839906f95"},"period":{"start":"2026-05-15T08:00:00.000+00:00","end":"2026-05-15T08:15:00.000+00:00"}},"request":{"method":"PUT","url":"Encounter/3d3d7a39-5c49-497f-a5ba-2bf9d2b0267f"}},{"fullUrl":"https://madie.cms.gov/Condition/8774fc3e-34f4-4328-8610-5b0e1cfe2d5e","resource":{"resourceType":"Condition","id":"8774fc3e-34f4-4328-8610-5b0e1cfe2d5e","meta":{"profile":["http://hl7.org/fhir/us/qicore/StructureDefinition/qicore-condition-problems-health-concerns"]},"clinicalStatus":{"coding":[{"system":"http://terminology.hl7.org/CodeSystem/condition-clinical","code":"active","display":"active"}]},"verificationStatus":{"coding":[{"system":"http://terminology.hl7.org/CodeSystem/condition-ver-status","code":"confirmed","display":"Confirmed"}]},"category":[{"coding":[{"system":"http://terminology.hl7.org/CodeSystem/condition-category","code":"problem-list-item","display":"Problem List Item"}]}],"code":{"coding":[{"system":"http://snomed.info/sct","version":"http://snomed.info/sct/731000124108/version/20240301","code":"10091002","display":"High output heart failure (disorder)"}]},"subject":{"reference":"Patient/2be46549-5ab0-4205-a0e0-166839906f95"},"onsetPeriod":{"start":"2025-05-17T08:00:00.000+00:00"}},"request":{"method":"PUT","url":"Condition/8774fc3e-34f4-4328-8610-5b0e1cfe2d5e"}},{"fullUrl":"https://madie.cms.gov/Condition/c4b95ced-916d-49e1-8939-0e6d2bc7a011","resource":{"resourceType":"Condition","id":"c4b95ced-916d-49e1-8939-0e6d2bc7a011","meta":{"profile":["http://hl7.org/fhir/us/qicore/StructureDefinition/qicore-condition-problems-health-concerns"]},"clinicalStatus":{"coding":[{"system":"http://terminology.hl7.org/CodeSystem/condition-clinical","code":"active","display":"Active"}]},"verificationStatus":{"coding":[{"system":"http://terminology.hl7.org/CodeSystem/condition-ver-status","code":"confirmed","display":"Confirmed"}]},"category":[{"coding":[{"system":"http://terminology.hl7.org/CodeSystem/condition-category","code":"problem-list-item","display":"Problem List Item"}]}],"code":{"coding":[{"system":"http://snomed.info/sct","version":"http://snomed.info/sct/731000124108/version/20240301","code":"981000124106","display":"Moderate left ventricular systolic dysfunction (disorder)"}]},"subject":{"reference":"Patient/2be46549-5ab0-4205-a0e0-166839906f95"},"onsetPeriod":{"start":"2026-03-25T08:00:00.000+00:00","end":"2026-03-30T08:15:00.000+00:00"}},"request":{"method":"PUT","url":"Condition/c4b95ced-916d-49e1-8939-0e6d2bc7a011"}},{"fullUrl":"https://madie.cms.gov/MeasureReport/8ee48b2a-7a46-454e-b9d0-bce6b151283b","resource":{"resourceType":"MeasureReport","id":"8ee48b2a-7a46-454e-b9d0-bce6b151283b","meta":{"profile":["http://hl7.org/fhir/us/cqfmeasures/StructureDefinition/test-case-cqfm"]},"contained":[{"resourceType":"Parameters","id":"7ddc209c-552d-48cb-9294-f6322f0bb99e-parameters","parameter":[{"name":"subject","valueString":"2be46549-5ab0-4205-a0e0-166839906f95"}]}],"extension":[{"url":"http://hl7.org/fhir/StructureDefinition/cqf-inputParameters","valueReference":{"reference":"#7ddc209c-552d-48cb-9294-f6322f0bb99e-parameters"}},{"url":"http://hl7.org/fhir/us/cqfmeasures/StructureDefinition/cqfm-testCaseDescription","valueMarkdown":"Patient with HF Dx and 2 Encounters in MP but Encounter does not have start date"}],"modifierExtension":[{"url":"http://hl7.org/fhir/us/cqfmeasures/StructureDefinition/cqfm-isTestCase","valueBoolean":true}],"status":"complete","type":"individual","measure":"https://madie.cms.gov/Measure/CMS135FHIRHFACEIorARBorARNIforLVSD","period":{"start":"2026-01-01","end":"2026-12-31"},"group":[{"id":"Group_1","population":[{"id":"InitialPopulation_1","code":{"coding":[{"system":"http://terminology.hl7.org/CodeSystem/measure-population","code":"initial-population","display":"Initial Population"}]},"count":0},{"id":"Denominator_1","code":{"coding":[{"system":"http://terminology.hl7.org/CodeSystem/measure-population","code":"denominator","display":"Denominator"}]},"count":0},{"id":"DenominatorExclusion_1","code":{"coding":[{"system":"http://terminology.hl7.org/CodeSystem/measure-population","code":"denominator-exclusion","display":"Denominator Exclusion"}]},"count":0},{"id":"Numerator_1","code":{"coding":[{"system":"http://terminology.hl7.org/CodeSystem/measure-population","code":"numerator","display":"Numerator"}]},"count":0},{"id":"DenominatorException_1","code":{"coding":[{"system":"http://terminology.hl7.org/CodeSystem/measure-population","code":"denominator-exception","display":"Denominator Exception"}]},"count":0}],"measureScore":{"value":1.0}}],"evaluatedResource":[{"reference":"Patient/2be46549-5ab0-4205-a0e0-166839906f95"},{"reference":"Encounter/aaf6e18a-660d-4fd4-8d52-c7bc112cacf3"},{"reference":"Encounter/3d3d7a39-5c49-497f-a5ba-2bf9d2b0267f"},{"reference":"Condition/8774fc3e-34f4-4328-8610-5b0e1cfe2d5e"},{"reference":"Condition/c4b95ced-916d-49e1-8939-0e6d2bc7a011"}]},"request":{"method":"PUT","url":"MeasureReport/8ee48b2a-7a46-454e-b9d0-bce6b151283b"}}]},"request":{"method":"PUT","url":"Bundle/13165431313131354"}},{"fullUrl":"Encounter/aaf6e18a-660d-4fd4-8d52-c7bc112cacf3","resource":{"resourceType":"Encounter","id":"aaf6e18a-660d-4fd4-8d52-c7bc112cacf3","meta":{"profile":["http://hl7.org/fhir/us/qicore/StructureDefinition/qicore-encounter"]},"status":"finished","class":{"system":"http://terminology.hl7.org/CodeSystem/v3-ActCode","code":"AMB","display":"ambulatory"},"type":[{"coding":[{"system":"http://snomed.info/sct","version":"http://snomed.info/sct/731000124108/version/20240301","code":"185463005","display":"Visit out of hours (procedure)"}]}],"subject":{"reference":"Patient/2be46549-5ab0-4205-a0e0-166839906f95"},"period":{"end":"2026-03-31T08:00:00.000+00:00"}},"request":{"method":"PUT","url":"Encounter/aaf6e18a-660d-4fd4-8d52-c7bc112cacf3"}},{"fullUrl":"Patient/2be46549-5ab0-4205-a0e0-166839906f95","resource":{"resourceType":"Patient","id":"2be46549-5ab0-4205-a0e0-166839906f95","meta":{"profile":["http://hl7.org/fhir/us/qicore/StructureDefinition/qicore-patient"]},"extension":[{"url":"http://hl7.org/fhir/us/core/StructureDefinition/us-core-race","extension":[{"url":"ombCategory","valueCoding":{"system":"urn:oid:2.16.840.1.113883.6.238","code":"2106-3","display":"White"}},{"url":"detailed","valueCoding":{"system":"urn:oid:2.16.840.1.113883.6.238","code":"2036-2","display":"Filipino"}},{"url":"text","valueString":"mixed"}]},{"url":"http://hl7.org/fhir/us/core/StructureDefinition/us-core-ethnicity","extension":[{"url":"ombCategory","valueCoding":{"system":"urn:oid:2.16.840.1.113883.6.238","code":"2135-2","display":"Hispanic or Latino"}},{"url":"detailed","valueCoding":{"system":"urn:oid:2.16.840.1.113883.6.238","code":"2148-5","display":"Mexican"}},{"url":"text","valueString":"Hispanic or Latino"}]}],"identifier":[{"type":{"coding":[{"system":"http://terminology.hl7.org/CodeSystem/v2-0203","code":"MR"}]},"system":"https://bonnie-fhir.healthit.gov/","value":"464631315435131"}],"name":[{"family":"IPFail","given":["EncHasNoStartDate"]}],"gender":"other","birthDate":"1982-04-02"},"request":{"method":"PUT","url":"Patient/2be46549-5ab0-4205-a0e0-166839906f95"}},{"fullUrl":"Condition/8774fc3e-34f4-4328-8610-5b0e1cfe2d5e","resource":{"resourceType":"Condition","id":"8774fc3e-34f4-4328-8610-5b0e1cfe2d5e","meta":{"profile":["http://hl7.org/fhir/us/qicore/StructureDefinition/qicore-condition-problems-health-concerns"]},"clinicalStatus":{"coding":[{"system":"http://terminology.hl7.org/CodeSystem/condition-clinical","code":"active","display":"active"}]},"verificationStatus":{"coding":[{"system":"http://terminology.hl7.org/CodeSystem/condition-ver-status","code":"confirmed","display":"Confirmed"}]},"category":[{"coding":[{"system":"http://terminology.hl7.org/CodeSystem/condition-category","code":"problem-list-item","display":"Problem List Item"}]}],"code":{"coding":[{"system":"http://snomed.info/sct","version":"http://snomed.info/sct/731000124108/version/20240301","code":"10091002","display":"High output heart failure (disorder)"}]},"subject":{"reference":"Patient/2be46549-5ab0-4205-a0e0-166839906f95"},"onsetPeriod":{"start":"2025-05-17T08:00:00.000+00:00"}},"request":{"method":"PUT","url":"Condition/8774fc3e-34f4-4328-8610-5b0e1cfe2d5e"}},{"fullUrl":"Encounter/3d3d7a39-5c49-497f-a5ba-2bf9d2b0267f","resource":{"resourceType":"Encounter","id":"3d3d7a39-5c49-497f-a5ba-2bf9d2b0267f","meta":{"profile":["http://hl7.org/fhir/us/qicore/StructureDefinition/qicore-encounter"]},"status":"finished","class":{"system":"http://terminology.hl7.org/CodeSystem/v3-ActCode","code":"AMB","display":"ambulatory"},"type":[{"coding":[{"system":"http://snomed.info/sct","version":"http://snomed.info/sct/731000124108/version/20240301","code":"185463005","display":"Visit out of hours (procedure)"}]}],"subject":{"reference":"Patient/2be46549-5ab0-4205-a0e0-166839906f95"},"period":{"start":"2026-05-15T08:00:00.000+00:00","end":"2026-05-15T08:15:00.000+00:00"}},"request":{"method":"PUT","url":"Encounter/3d3d7a39-5c49-497f-a5ba-2bf9d2b0267f"}},{"fullUrl":"Condition/c4b95ced-916d-49e1-8939-0e6d2bc7a011","resource":{"resourceType":"Condition","id":"c4b95ced-916d-49e1-8939-0e6d2bc7a011","meta":{"profile":["http://hl7.org/fhir/us/qicore/StructureDefinition/qicore-condition-problems-health-concerns"]},"clinicalStatus":{"coding":[{"system":"http://terminology.hl7.org/CodeSystem/condition-clinical","code":"active","display":"Active"}]},"verificationStatus":{"coding":[{"system":"http://terminology.hl7.org/CodeSystem/condition-ver-status","code":"confirmed","display":"Confirmed"}]},"category":[{"coding":[{"system":"http://terminology.hl7.org/CodeSystem/condition-category","code":"problem-list-item","display":"Problem List Item"}]}],"code":{"coding":[{"system":"http://snomed.info/sct","version":"http://snomed.info/sct/731000124108/version/20240301","code":"981000124106","display":"Moderate left ventricular systolic dysfunction (disorder)"}]},"subject":{"reference":"Patient/2be46549-5ab0-4205-a0e0-166839906f95"},"onsetPeriod":{"start":"2026-03-25T08:00:00.000+00:00","end":"2026-03-30T08:15:00.000+00:00"}},"request":{"method":"PUT","url":"Condition/c4b95ced-916d-49e1-8939-0e6d2bc7a011"}},{"fullUrl":"MeasureReport/8ee48b2a-7a46-454e-b9d0-bce6b151283b","resource":{"resourceType":"MeasureReport","id":"8ee48b2a-7a46-454e-b9d0-bce6b151283b","meta":{"profile":["http://hl7.org/fhir/us/cqfmeasures/StructureDefinition/test-case-cqfm"]},"contained":[{"resourceType":"Parameters","id":"7ddc209c-552d-48cb-9294-f6322f0bb99e-parameters","parameter":[{"name":"subject","valueString":"2be46549-5ab0-4205-a0e0-166839906f95"}]}],"extension":[{"url":"http://hl7.org/fhir/StructureDefinition/cqf-inputParameters","valueReference":{"reference":"#7ddc209c-552d-48cb-9294-f6322f0bb99e-parameters"}},{"url":"http://hl7.org/fhir/us/cqfmeasures/StructureDefinition/cqfm-testCaseDescription","valueMarkdown":"Patient with HF Dx and 2 Encounters in MP but Encounter does not have start date"}],"modifierExtension":[{"url":"http://hl7.org/fhir/us/cqfmeasures/StructureDefinition/cqfm-isTestCase","valueBoolean":true}],"status":"complete","type":"individual","measure":"https://madie.cms.gov/Measure/CMS135FHIRHFACEIorARBorARNIforLVSD","period":{"start":"2026-01-01","end":"2026-12-31"},"group":[{"id":"Group_1","population":[{"id":"InitialPopulation_1","code":{"coding":[{"system":"http://terminology.hl7.org/CodeSystem/measure-population","code":"initial-population","display":"Initial Population"}]},"count":0},{"id":"Denominator_1","code":{"coding":[{"system":"http://terminology.hl7.org/CodeSystem/measure-population","code":"denominator","display":"Denominator"}]},"count":0},{"id":"DenominatorExclusion_1","code":{"coding":[{"system":"http://terminology.hl7.org/CodeSystem/measure-population","code":"denominator-exclusion","display":"Denominator Exclusion"}]},"count":0},{"id":"Numerator_1","code":{"coding":[{"system":"http://terminology.hl7.org/CodeSystem/measure-population","code":"numerator","display":"Numerator"}]},"count":0},{"id":"DenominatorException_1","code":{"coding":[{"system":"http://terminology.hl7.org/CodeSystem/measure-population","code":"denominator-exception","display":"Denominator Exception"}]},"count":0}],"measureScore":{"value":1.0}}],"evaluatedResource":[{"reference":"Patient/2be46549-5ab0-4205-a0e0-166839906f95"},{"reference":"Encounter/aaf6e18a-660d-4fd4-8d52-c7bc112cacf3"},{"reference":"Encounter/3d3d7a39-5c49-497f-a5ba-2bf9d2b0267f"},{"reference":"Condition/8774fc3e-34f4-4328-8610-5b0e1cfe2d5e"},{"reference":"Condition/c4b95ced-916d-49e1-8939-0e6d2bc7a011"}]},"request":{"method":"PUT","url":"MeasureReport/8ee48b2a-7a46-454e-b9d0-bce6b151283b"}}]}