{"resourceType":"Bundle","id":"tests-d18e37a6-7b66-4e7c-b305-692872c13f8d-bundle","type":"transaction","entry":[{"fullUrl":"MeasureReport/c5251371-dcc8-4193-9e89-21aa6dae26c8","resource":{"resourceType":"MeasureReport","id":"c5251371-dcc8-4193-9e89-21aa6dae26c8","meta":{"profile":["http://hl7.org/fhir/us/cqfmeasures/StructureDefinition/test-case-cqfm"]},"contained":[{"resourceType":"Parameters","id":"d5338f12-e34a-4016-90f9-e6cfecc03988-parameters","parameter":[{"name":"subject","valueString":"d18e37a6-7b66-4e7c-b305-692872c13f8d"}]}],"extension":[{"url":"http://hl7.org/fhir/StructureDefinition/cqf-inputParameters","valueReference":{"reference":"#d5338f12-e34a-4016-90f9-e6cfecc03988-parameters"}},{"url":"http://hl7.org/fhir/us/cqfmeasures/StructureDefinition/cqfm-testCaseDescription","valueMarkdown":"Patient has 2 ambulatory encounters, HF diagnosis and LVSD and meets denominator exception with confirmed ACE inhibitor allergy diagnosis"}],"modifierExtension":[{"url":"http://hl7.org/fhir/us/cqfmeasures/StructureDefinition/cqfm-isTestCase","valueBoolean":true}],"status":"complete","type":"individual","measure":"https://madie.cms.gov/Measure/CMS135FHIRHFACEIorARBorARNIforLVSD","period":{"start":"2026-01-01","end":"2026-12-31"},"group":[{"id":"Group_1","population":[{"id":"InitialPopulation_1","code":{"coding":[{"system":"http://terminology.hl7.org/CodeSystem/measure-population","code":"initial-population","display":"Initial Population"}]},"count":1},{"id":"Denominator_1","code":{"coding":[{"system":"http://terminology.hl7.org/CodeSystem/measure-population","code":"denominator","display":"Denominator"}]},"count":1},{"id":"DenominatorExclusion_1","code":{"coding":[{"system":"http://terminology.hl7.org/CodeSystem/measure-population","code":"denominator-exclusion","display":"Denominator Exclusion"}]},"count":0},{"id":"Numerator_1","code":{"coding":[{"system":"http://terminology.hl7.org/CodeSystem/measure-population","code":"numerator","display":"Numerator"}]},"count":0},{"id":"DenominatorException_1","code":{"coding":[{"system":"http://terminology.hl7.org/CodeSystem/measure-population","code":"denominator-exception","display":"Denominator Exception"}]},"count":1}],"measureScore":{"value":1.0}}],"evaluatedResource":[{"reference":"Patient/d18e37a6-7b66-4e7c-b305-692872c13f8d"},{"reference":"Encounter/1f722af1-13cd-41ad-929e-e9bfcc294846"},{"reference":"Encounter/06162868-1ec2-4d54-bb66-32214d75a9a6"},{"reference":"Condition/e594b6af-03e5-49f2-9e73-6734c647192f"},{"reference":"Condition/2113c1b6-bfb0-4216-80f5-0d638f522192"},{"reference":"Condition/9a84e47f-9334-4b48-a9a7-4899703a72b2"}]},"request":{"method":"PUT","url":"MeasureReport/c5251371-dcc8-4193-9e89-21aa6dae26c8"}},{"fullUrl":"Bundle/135161316465131361","resource":{"resourceType":"Bundle","id":"135161316465131361","type":"transaction","entry":[{"fullUrl":"https://madie.cms.gov/Patient/d18e37a6-7b66-4e7c-b305-692872c13f8d","resource":{"resourceType":"Patient","id":"d18e37a6-7b66-4e7c-b305-692872c13f8d","meta":{"profile":["http://hl7.org/fhir/us/qicore/StructureDefinition/qicore-patient"]},"extension":[{"url":"http://hl7.org/fhir/us/core/StructureDefinition/us-core-race","extension":[{"url":"ombCategory","valueCoding":{"system":"urn:oid:2.16.840.1.113883.6.238","code":"1002-5","display":"American Indian or Alaska Native"}},{"url":"text","valueString":"American Indian or Alaska Native"}]},{"url":"http://hl7.org/fhir/us/core/StructureDefinition/us-core-ethnicity","extension":[{"url":"ombCategory","valueCoding":{"system":"urn:oid:2.16.840.1.113883.6.238","code":"2186-5","display":"Not Hispanic or Latino"}},{"url":"text","valueString":"Not Hispanic or Latino"}]}],"identifier":[{"type":{"coding":[{"system":"http://terminology.hl7.org/CodeSystem/v2-0203","code":"MR"}]},"system":"https://bonnie-fhir.healthit.gov/","value":"431385494631"}],"name":[{"family":"DENEXCEPPass","given":["AllergyDxToACEInhib"]}],"gender":"male","birthDate":"1969-06-14"},"request":{"method":"PUT","url":"Patient/d18e37a6-7b66-4e7c-b305-692872c13f8d"}},{"fullUrl":"https://madie.cms.gov/Encounter/1f722af1-13cd-41ad-929e-e9bfcc294846","resource":{"resourceType":"Encounter","id":"1f722af1-13cd-41ad-929e-e9bfcc294846","meta":{"profile":["http://hl7.org/fhir/us/qicore/StructureDefinition/qicore-encounter"]},"status":"finished","class":{"system":"http://terminology.hl7.org/CodeSystem/v3-ActCode","code":"AMB","display":"ambulatory"},"type":[{"coding":[{"system":"http://snomed.info/sct","version":"http://snomed.info/sct/731000124108/version/20240301","code":"18170008","display":"Subsequent nursing facility visit (procedure)"}]}],"subject":{"reference":"Patient/d18e37a6-7b66-4e7c-b305-692872c13f8d"},"period":{"start":"2026-03-31T14:40:00.000+00:00","end":"2026-03-31T14:40:00.000+00:00"}},"request":{"method":"PUT","url":"Encounter/1f722af1-13cd-41ad-929e-e9bfcc294846"}},{"fullUrl":"https://madie.cms.gov/Encounter/06162868-1ec2-4d54-bb66-32214d75a9a6","resource":{"resourceType":"Encounter","id":"06162868-1ec2-4d54-bb66-32214d75a9a6","meta":{"profile":["http://hl7.org/fhir/us/qicore/StructureDefinition/qicore-encounter"]},"status":"finished","class":{"system":"http://terminology.hl7.org/CodeSystem/v3-ActCode","code":"AMB","display":"ambulatory"},"type":[{"coding":[{"system":"http://snomed.info/sct","version":"http://snomed.info/sct/731000124108/version/20240301","code":"185466002","display":"Home visit for urgent condition (procedure)"}]}],"subject":{"reference":"Patient/d18e37a6-7b66-4e7c-b305-692872c13f8d"},"period":{"start":"2026-05-15T11:50:00.000+00:00","end":"2026-05-15T11:50:00.000+00:00"}},"request":{"method":"PUT","url":"Encounter/06162868-1ec2-4d54-bb66-32214d75a9a6"}},{"fullUrl":"https://madie.cms.gov/Condition/e594b6af-03e5-49f2-9e73-6734c647192f","resource":{"resourceType":"Condition","id":"e594b6af-03e5-49f2-9e73-6734c647192f","meta":{"profile":["http://hl7.org/fhir/us/qicore/StructureDefinition/qicore-condition-problems-health-concerns"]},"clinicalStatus":{"coding":[{"system":"http://terminology.hl7.org/CodeSystem/condition-clinical","code":"active","display":"active"}]},"verificationStatus":{"coding":[{"system":"http://terminology.hl7.org/CodeSystem/condition-ver-status","code":"confirmed","display":"Confirmed"}]},"category":[{"coding":[{"system":"http://terminology.hl7.org/CodeSystem/condition-category","code":"problem-list-item","display":"Problem List Item"}]}],"code":{"coding":[{"system":"http://snomed.info/sct","version":"http://snomed.info/sct/731000124108/version/20240301","code":"10091002","display":"High output heart failure (disorder)"}]},"subject":{"reference":"Patient/d18e37a6-7b66-4e7c-b305-692872c13f8d"},"onsetPeriod":{"start":"2025-05-17T10:00:00.000+00:00"}},"request":{"method":"PUT","url":"Condition/e594b6af-03e5-49f2-9e73-6734c647192f"}},{"fullUrl":"https://madie.cms.gov/Condition/2113c1b6-bfb0-4216-80f5-0d638f522192","resource":{"resourceType":"Condition","id":"2113c1b6-bfb0-4216-80f5-0d638f522192","meta":{"profile":["http://hl7.org/fhir/us/qicore/StructureDefinition/qicore-condition-problems-health-concerns"]},"clinicalStatus":{"coding":[{"system":"http://terminology.hl7.org/CodeSystem/condition-clinical","code":"active","display":"Active"}]},"verificationStatus":{"coding":[{"system":"http://terminology.hl7.org/CodeSystem/condition-ver-status","code":"confirmed","display":"Confirmed"}]},"category":[{"coding":[{"system":"http://terminology.hl7.org/CodeSystem/condition-category","code":"problem-list-item","display":"Problem List Item"}]}],"code":{"coding":[{"system":"http://snomed.info/sct","version":"http://snomed.info/sct/731000124108/version/20240301","code":"991000124109","display":"Severe left ventricular systolic dysfunction (disorder)"}]},"subject":{"reference":"Patient/d18e37a6-7b66-4e7c-b305-692872c13f8d"},"onsetPeriod":{"start":"2026-03-25T16:00:00.000+00:00","end":"2026-03-30T16:00:00.000+00:00"}},"request":{"method":"PUT","url":"Condition/2113c1b6-bfb0-4216-80f5-0d638f522192"}},{"fullUrl":"https://madie.cms.gov/Condition/9a84e47f-9334-4b48-a9a7-4899703a72b2","resource":{"resourceType":"Condition","id":"9a84e47f-9334-4b48-a9a7-4899703a72b2","meta":{"profile":["http://hl7.org/fhir/us/qicore/StructureDefinition/qicore-condition-problems-health-concerns"]},"clinicalStatus":{"coding":[{"system":"http://terminology.hl7.org/CodeSystem/condition-clinical","code":"active","display":"active"}]},"verificationStatus":{"coding":[{"system":"http://terminology.hl7.org/CodeSystem/condition-ver-status","code":"confirmed","display":"Confirmed"}]},"category":[{"coding":[{"system":"http://terminology.hl7.org/CodeSystem/condition-category","code":"problem-list-item","display":"Problem List Item"}]}],"code":{"coding":[{"system":"http://snomed.info/sct","version":"http://snomed.info/sct/731000124108/version/20230901","code":"609541004","display":"Non-allergic hypersensitivity to fosinopril (finding)"}]},"subject":{"reference":"Patient/d18e37a6-7b66-4e7c-b305-692872c13f8d"},"onsetPeriod":{"start":"2025-09-25"}},"request":{"method":"PUT","url":"Condition/9a84e47f-9334-4b48-a9a7-4899703a72b2"}},{"fullUrl":"https://madie.cms.gov/MeasureReport/c5251371-dcc8-4193-9e89-21aa6dae26c8","resource":{"resourceType":"MeasureReport","id":"c5251371-dcc8-4193-9e89-21aa6dae26c8","meta":{"profile":["http://hl7.org/fhir/us/cqfmeasures/StructureDefinition/test-case-cqfm"]},"contained":[{"resourceType":"Parameters","id":"d5338f12-e34a-4016-90f9-e6cfecc03988-parameters","parameter":[{"name":"subject","valueString":"d18e37a6-7b66-4e7c-b305-692872c13f8d"}]}],"extension":[{"url":"http://hl7.org/fhir/StructureDefinition/cqf-inputParameters","valueReference":{"reference":"#d5338f12-e34a-4016-90f9-e6cfecc03988-parameters"}},{"url":"http://hl7.org/fhir/us/cqfmeasures/StructureDefinition/cqfm-testCaseDescription","valueMarkdown":"Patient has 2 ambulatory encounters, HF diagnosis and LVSD and meets denominator exception with confirmed ACE inhibitor allergy diagnosis"}],"modifierExtension":[{"url":"http://hl7.org/fhir/us/cqfmeasures/StructureDefinition/cqfm-isTestCase","valueBoolean":true}],"status":"complete","type":"individual","measure":"https://madie.cms.gov/Measure/CMS135FHIRHFACEIorARBorARNIforLVSD","period":{"start":"2026-01-01","end":"2026-12-31"},"group":[{"id":"Group_1","population":[{"id":"InitialPopulation_1","code":{"coding":[{"system":"http://terminology.hl7.org/CodeSystem/measure-population","code":"initial-population","display":"Initial Population"}]},"count":1},{"id":"Denominator_1","code":{"coding":[{"system":"http://terminology.hl7.org/CodeSystem/measure-population","code":"denominator","display":"Denominator"}]},"count":1},{"id":"DenominatorExclusion_1","code":{"coding":[{"system":"http://terminology.hl7.org/CodeSystem/measure-population","code":"denominator-exclusion","display":"Denominator Exclusion"}]},"count":0},{"id":"Numerator_1","code":{"coding":[{"system":"http://terminology.hl7.org/CodeSystem/measure-population","code":"numerator","display":"Numerator"}]},"count":0},{"id":"DenominatorException_1","code":{"coding":[{"system":"http://terminology.hl7.org/CodeSystem/measure-population","code":"denominator-exception","display":"Denominator Exception"}]},"count":1}],"measureScore":{"value":1.0}}],"evaluatedResource":[{"reference":"Patient/d18e37a6-7b66-4e7c-b305-692872c13f8d"},{"reference":"Encounter/1f722af1-13cd-41ad-929e-e9bfcc294846"},{"reference":"Encounter/06162868-1ec2-4d54-bb66-32214d75a9a6"},{"reference":"Condition/e594b6af-03e5-49f2-9e73-6734c647192f"},{"reference":"Condition/2113c1b6-bfb0-4216-80f5-0d638f522192"},{"reference":"Condition/9a84e47f-9334-4b48-a9a7-4899703a72b2"}]},"request":{"method":"PUT","url":"MeasureReport/c5251371-dcc8-4193-9e89-21aa6dae26c8"}}]},"request":{"method":"PUT","url":"Bundle/135161316465131361"}},{"fullUrl":"Patient/d18e37a6-7b66-4e7c-b305-692872c13f8d","resource":{"resourceType":"Patient","id":"d18e37a6-7b66-4e7c-b305-692872c13f8d","meta":{"profile":["http://hl7.org/fhir/us/qicore/StructureDefinition/qicore-patient"]},"extension":[{"url":"http://hl7.org/fhir/us/core/StructureDefinition/us-core-race","extension":[{"url":"ombCategory","valueCoding":{"system":"urn:oid:2.16.840.1.113883.6.238","code":"1002-5","display":"American Indian or Alaska Native"}},{"url":"text","valueString":"American Indian or Alaska Native"}]},{"url":"http://hl7.org/fhir/us/core/StructureDefinition/us-core-ethnicity","extension":[{"url":"ombCategory","valueCoding":{"system":"urn:oid:2.16.840.1.113883.6.238","code":"2186-5","display":"Not Hispanic or Latino"}},{"url":"text","valueString":"Not Hispanic or Latino"}]}],"identifier":[{"type":{"coding":[{"system":"http://terminology.hl7.org/CodeSystem/v2-0203","code":"MR"}]},"system":"https://bonnie-fhir.healthit.gov/","value":"431385494631"}],"name":[{"family":"DENEXCEPPass","given":["AllergyDxToACEInhib"]}],"gender":"male","birthDate":"1969-06-14"},"request":{"method":"PUT","url":"Patient/d18e37a6-7b66-4e7c-b305-692872c13f8d"}},{"fullUrl":"Condition/9a84e47f-9334-4b48-a9a7-4899703a72b2","resource":{"resourceType":"Condition","id":"9a84e47f-9334-4b48-a9a7-4899703a72b2","meta":{"profile":["http://hl7.org/fhir/us/qicore/StructureDefinition/qicore-condition-problems-health-concerns"]},"clinicalStatus":{"coding":[{"system":"http://terminology.hl7.org/CodeSystem/condition-clinical","code":"active","display":"active"}]},"verificationStatus":{"coding":[{"system":"http://terminology.hl7.org/CodeSystem/condition-ver-status","code":"confirmed","display":"Confirmed"}]},"category":[{"coding":[{"system":"http://terminology.hl7.org/CodeSystem/condition-category","code":"problem-list-item","display":"Problem List Item"}]}],"code":{"coding":[{"system":"http://snomed.info/sct","version":"http://snomed.info/sct/731000124108/version/20230901","code":"609541004","display":"Non-allergic hypersensitivity to fosinopril (finding)"}]},"subject":{"reference":"Patient/d18e37a6-7b66-4e7c-b305-692872c13f8d"},"onsetPeriod":{"start":"2025-09-25"}},"request":{"method":"PUT","url":"Condition/9a84e47f-9334-4b48-a9a7-4899703a72b2"}},{"fullUrl":"Encounter/1f722af1-13cd-41ad-929e-e9bfcc294846","resource":{"resourceType":"Encounter","id":"1f722af1-13cd-41ad-929e-e9bfcc294846","meta":{"profile":["http://hl7.org/fhir/us/qicore/StructureDefinition/qicore-encounter"]},"status":"finished","class":{"system":"http://terminology.hl7.org/CodeSystem/v3-ActCode","code":"AMB","display":"ambulatory"},"type":[{"coding":[{"system":"http://snomed.info/sct","version":"http://snomed.info/sct/731000124108/version/20240301","code":"18170008","display":"Subsequent nursing facility visit (procedure)"}]}],"subject":{"reference":"Patient/d18e37a6-7b66-4e7c-b305-692872c13f8d"},"period":{"start":"2026-03-31T14:40:00.000+00:00","end":"2026-03-31T14:40:00.000+00:00"}},"request":{"method":"PUT","url":"Encounter/1f722af1-13cd-41ad-929e-e9bfcc294846"}},{"fullUrl":"Condition/e594b6af-03e5-49f2-9e73-6734c647192f","resource":{"resourceType":"Condition","id":"e594b6af-03e5-49f2-9e73-6734c647192f","meta":{"profile":["http://hl7.org/fhir/us/qicore/StructureDefinition/qicore-condition-problems-health-concerns"]},"clinicalStatus":{"coding":[{"system":"http://terminology.hl7.org/CodeSystem/condition-clinical","code":"active","display":"active"}]},"verificationStatus":{"coding":[{"system":"http://terminology.hl7.org/CodeSystem/condition-ver-status","code":"confirmed","display":"Confirmed"}]},"category":[{"coding":[{"system":"http://terminology.hl7.org/CodeSystem/condition-category","code":"problem-list-item","display":"Problem List Item"}]}],"code":{"coding":[{"system":"http://snomed.info/sct","version":"http://snomed.info/sct/731000124108/version/20240301","code":"10091002","display":"High output heart failure (disorder)"}]},"subject":{"reference":"Patient/d18e37a6-7b66-4e7c-b305-692872c13f8d"},"onsetPeriod":{"start":"2025-05-17T10:00:00.000+00:00"}},"request":{"method":"PUT","url":"Condition/e594b6af-03e5-49f2-9e73-6734c647192f"}},{"fullUrl":"Encounter/06162868-1ec2-4d54-bb66-32214d75a9a6","resource":{"resourceType":"Encounter","id":"06162868-1ec2-4d54-bb66-32214d75a9a6","meta":{"profile":["http://hl7.org/fhir/us/qicore/StructureDefinition/qicore-encounter"]},"status":"finished","class":{"system":"http://terminology.hl7.org/CodeSystem/v3-ActCode","code":"AMB","display":"ambulatory"},"type":[{"coding":[{"system":"http://snomed.info/sct","version":"http://snomed.info/sct/731000124108/version/20240301","code":"185466002","display":"Home visit for urgent condition (procedure)"}]}],"subject":{"reference":"Patient/d18e37a6-7b66-4e7c-b305-692872c13f8d"},"period":{"start":"2026-05-15T11:50:00.000+00:00","end":"2026-05-15T11:50:00.000+00:00"}},"request":{"method":"PUT","url":"Encounter/06162868-1ec2-4d54-bb66-32214d75a9a6"}},{"fullUrl":"Condition/2113c1b6-bfb0-4216-80f5-0d638f522192","resource":{"resourceType":"Condition","id":"2113c1b6-bfb0-4216-80f5-0d638f522192","meta":{"profile":["http://hl7.org/fhir/us/qicore/StructureDefinition/qicore-condition-problems-health-concerns"]},"clinicalStatus":{"coding":[{"system":"http://terminology.hl7.org/CodeSystem/condition-clinical","code":"active","display":"Active"}]},"verificationStatus":{"coding":[{"system":"http://terminology.hl7.org/CodeSystem/condition-ver-status","code":"confirmed","display":"Confirmed"}]},"category":[{"coding":[{"system":"http://terminology.hl7.org/CodeSystem/condition-category","code":"problem-list-item","display":"Problem List Item"}]}],"code":{"coding":[{"system":"http://snomed.info/sct","version":"http://snomed.info/sct/731000124108/version/20240301","code":"991000124109","display":"Severe left ventricular systolic dysfunction (disorder)"}]},"subject":{"reference":"Patient/d18e37a6-7b66-4e7c-b305-692872c13f8d"},"onsetPeriod":{"start":"2026-03-25T16:00:00.000+00:00","end":"2026-03-30T16:00:00.000+00:00"}},"request":{"method":"PUT","url":"Condition/2113c1b6-bfb0-4216-80f5-0d638f522192"}}]}