{"resourceType":"Bundle","id":"tests-ed36c619-3ef8-44ca-86fa-1993920d76ef-bundle","type":"transaction","entry":[{"resource":{"resourceType":"Condition","id":"5f3057a3-e2dc-4a41-8578-78505e9d1247","meta":{"profile":["http://hl7.org/fhir/us/qicore/StructureDefinition/qicore-condition-problems-health-concerns"]},"clinicalStatus":{"coding":[{"system":"http://terminology.hl7.org/CodeSystem/condition-clinical","code":"active","display":"Active"}]},"verificationStatus":{"coding":[{"system":"http://terminology.hl7.org/CodeSystem/condition-ver-status","code":"confirmed","display":"Confirmed"}]},"category":[{"coding":[{"system":"http://terminology.hl7.org/CodeSystem/condition-category","code":"problem-list-item","display":"Problem List Item"}]}],"code":{"coding":[{"system":"http://snomed.info/sct","version":"http://snomed.info/sct/731000124108/version/20240301","code":"991000124109","display":"Severe left ventricular systolic dysfunction (disorder)"}]},"subject":{"reference":"Patient/ed36c619-3ef8-44ca-86fa-1993920d76ef"},"onsetPeriod":{"start":"2026-03-25T16:00:00.000+00:00","end":"2026-03-30T16:00:00.000+00:00"}},"request":{"method":"PUT","url":"Condition/5f3057a3-e2dc-4a41-8578-78505e9d1247"}},{"resource":{"resourceType":"MeasureReport","id":"110ec65b-0ec2-4075-ba5f-7dc94e907298","meta":{"profile":["http://hl7.org/fhir/us/cqfmeasures/StructureDefinition/test-case-cqfm"]},"contained":[{"resourceType":"Parameters","id":"fba11cbe-1764-4a7d-bc5e-97681d4806e3-parameters","parameter":[{"name":"subject","valueString":"ed36c619-3ef8-44ca-86fa-1993920d76ef"}]}],"extension":[{"url":"http://hl7.org/fhir/StructureDefinition/cqf-inputParameters","valueReference":{"reference":"#fba11cbe-1764-4a7d-bc5e-97681d4806e3-parameters"}},{"url":"http://hl7.org/fhir/us/cqfmeasures/StructureDefinition/cqfm-testCaseDescription","valueMarkdown":"Patient has 2 ambulatory encounters, HF diagnosis and LVSD and meets denominator exception with confirmed ACE inhibitor allergy"}],"modifierExtension":[{"url":"http://hl7.org/fhir/us/cqfmeasures/StructureDefinition/cqfm-isTestCase","valueBoolean":true}],"status":"complete","type":"individual","measure":"https://madie.cms.gov/Measure/CMS135FHIRHFACEIorARBorARNIforLVSD","period":{"start":"2026-01-01","end":"2026-12-31"},"group":[{"id":"Group_1","population":[{"id":"InitialPopulation_1","code":{"coding":[{"system":"http://terminology.hl7.org/CodeSystem/measure-population","code":"initial-population","display":"Initial Population"}]},"count":1},{"id":"Denominator_1","code":{"coding":[{"system":"http://terminology.hl7.org/CodeSystem/measure-population","code":"denominator","display":"Denominator"}]},"count":1},{"id":"DenominatorExclusion_1","code":{"coding":[{"system":"http://terminology.hl7.org/CodeSystem/measure-population","code":"denominator-exclusion","display":"Denominator Exclusion"}]},"count":0},{"id":"Numerator_1","code":{"coding":[{"system":"http://terminology.hl7.org/CodeSystem/measure-population","code":"numerator","display":"Numerator"}]},"count":0},{"id":"DenominatorException_1","code":{"coding":[{"system":"http://terminology.hl7.org/CodeSystem/measure-population","code":"denominator-exception","display":"Denominator Exception"}]},"count":1}],"measureScore":{"value":1.0}}],"evaluatedResource":[{"reference":"Patient/ed36c619-3ef8-44ca-86fa-1993920d76ef"},{"reference":"Encounter/eb5d2a26-b2e0-4b47-bdb7-902c046316f5"},{"reference":"Encounter/5d73aab2-a3b3-4ebd-af71-3c6479ef2f8c"},{"reference":"Condition/563257f1-32d3-431f-9f3a-a9c092c13606"},{"reference":"Condition/5f3057a3-e2dc-4a41-8578-78505e9d1247"},{"reference":"AllergyIntolerance/3d4a3157-6404-462c-947a-784730885324"}]},"request":{"method":"PUT","url":"MeasureReport/110ec65b-0ec2-4075-ba5f-7dc94e907298"}},{"resource":{"resourceType":"Patient","id":"ed36c619-3ef8-44ca-86fa-1993920d76ef","meta":{"profile":["http://hl7.org/fhir/us/qicore/StructureDefinition/qicore-patient"]},"extension":[{"url":"http://hl7.org/fhir/us/core/StructureDefinition/us-core-race","extension":[{"url":"ombCategory","valueCoding":{"system":"urn:oid:2.16.840.1.113883.6.238","code":"1002-5","display":"American Indian or Alaska Native"}},{"url":"text","valueString":"American Indian or Alaska Native"}]},{"url":"http://hl7.org/fhir/us/core/StructureDefinition/us-core-ethnicity","extension":[{"url":"ombCategory","valueCoding":{"system":"urn:oid:2.16.840.1.113883.6.238","code":"2186-5","display":"Not Hispanic or Latino"}},{"url":"text","valueString":"Not Hispanic or Latino"}]}],"identifier":[{"type":{"coding":[{"system":"http://terminology.hl7.org/CodeSystem/v2-0203","code":"MR"}]},"system":"https://bonnie-fhir.healthit.gov/","value":"431385494631"}],"name":[{"family":"DENEXCEPPass","given":["AllergyToACEInhibMOA"]}],"gender":"male","birthDate":"1969-06-14"},"request":{"method":"PUT","url":"Patient/ed36c619-3ef8-44ca-86fa-1993920d76ef"}},{"resource":{"resourceType":"Encounter","id":"eb5d2a26-b2e0-4b47-bdb7-902c046316f5","meta":{"profile":["http://hl7.org/fhir/us/qicore/StructureDefinition/qicore-encounter"]},"status":"finished","class":{"system":"http://terminology.hl7.org/CodeSystem/v3-ActCode","code":"AMB","display":"ambulatory"},"type":[{"coding":[{"system":"http://snomed.info/sct","version":"http://snomed.info/sct/731000124108/version/20240301","code":"18170008","display":"Subsequent nursing facility visit (procedure)"}]}],"subject":{"reference":"Patient/ed36c619-3ef8-44ca-86fa-1993920d76ef"},"period":{"start":"2026-03-31T14:40:00.000+00:00","end":"2026-03-31T14:40:00.000+00:00"}},"request":{"method":"PUT","url":"Encounter/eb5d2a26-b2e0-4b47-bdb7-902c046316f5"}},{"resource":{"resourceType":"Bundle","id":"1631463313155464","type":"transaction","entry":[{"fullUrl":"https://madie.cms.gov/Patient/ed36c619-3ef8-44ca-86fa-1993920d76ef","resource":{"resourceType":"Patient","id":"ed36c619-3ef8-44ca-86fa-1993920d76ef","meta":{"profile":["http://hl7.org/fhir/us/qicore/StructureDefinition/qicore-patient"]},"extension":[{"url":"http://hl7.org/fhir/us/core/StructureDefinition/us-core-race","extension":[{"url":"ombCategory","valueCoding":{"system":"urn:oid:2.16.840.1.113883.6.238","code":"1002-5","display":"American Indian or Alaska Native"}},{"url":"text","valueString":"American Indian or Alaska Native"}]},{"url":"http://hl7.org/fhir/us/core/StructureDefinition/us-core-ethnicity","extension":[{"url":"ombCategory","valueCoding":{"system":"urn:oid:2.16.840.1.113883.6.238","code":"2186-5","display":"Not Hispanic or Latino"}},{"url":"text","valueString":"Not Hispanic or Latino"}]}],"identifier":[{"type":{"coding":[{"system":"http://terminology.hl7.org/CodeSystem/v2-0203","code":"MR"}]},"system":"https://bonnie-fhir.healthit.gov/","value":"431385494631"}],"name":[{"family":"DENEXCEPPass","given":["AllergyToACEInhibMOA"]}],"gender":"male","birthDate":"1969-06-14"},"request":{"method":"PUT","url":"Patient/ed36c619-3ef8-44ca-86fa-1993920d76ef"}},{"fullUrl":"https://madie.cms.gov/Encounter/eb5d2a26-b2e0-4b47-bdb7-902c046316f5","resource":{"resourceType":"Encounter","id":"eb5d2a26-b2e0-4b47-bdb7-902c046316f5","meta":{"profile":["http://hl7.org/fhir/us/qicore/StructureDefinition/qicore-encounter"]},"status":"finished","class":{"system":"http://terminology.hl7.org/CodeSystem/v3-ActCode","code":"AMB","display":"ambulatory"},"type":[{"coding":[{"system":"http://snomed.info/sct","version":"http://snomed.info/sct/731000124108/version/20240301","code":"18170008","display":"Subsequent nursing facility visit (procedure)"}]}],"subject":{"reference":"Patient/ed36c619-3ef8-44ca-86fa-1993920d76ef"},"period":{"start":"2026-03-31T14:40:00.000+00:00","end":"2026-03-31T14:40:00.000+00:00"}},"request":{"method":"PUT","url":"Encounter/eb5d2a26-b2e0-4b47-bdb7-902c046316f5"}},{"fullUrl":"https://madie.cms.gov/Encounter/5d73aab2-a3b3-4ebd-af71-3c6479ef2f8c","resource":{"resourceType":"Encounter","id":"5d73aab2-a3b3-4ebd-af71-3c6479ef2f8c","meta":{"profile":["http://hl7.org/fhir/us/qicore/StructureDefinition/qicore-encounter"]},"status":"finished","class":{"system":"http://terminology.hl7.org/CodeSystem/v3-ActCode","code":"AMB","display":"ambulatory"},"type":[{"coding":[{"system":"http://snomed.info/sct","version":"http://snomed.info/sct/731000124108/version/20240301","code":"185466002","display":"Home visit for urgent condition (procedure)"}]}],"subject":{"reference":"Patient/ed36c619-3ef8-44ca-86fa-1993920d76ef"},"period":{"start":"2026-05-15T11:50:00.000+00:00","end":"2026-05-15T11:50:00.000+00:00"}},"request":{"method":"PUT","url":"Encounter/5d73aab2-a3b3-4ebd-af71-3c6479ef2f8c"}},{"fullUrl":"https://madie.cms.gov/Condition/563257f1-32d3-431f-9f3a-a9c092c13606","resource":{"resourceType":"Condition","id":"563257f1-32d3-431f-9f3a-a9c092c13606","meta":{"profile":["http://hl7.org/fhir/us/qicore/StructureDefinition/qicore-condition-problems-health-concerns"]},"clinicalStatus":{"coding":[{"system":"http://terminology.hl7.org/CodeSystem/condition-clinical","code":"active","display":"active"}]},"verificationStatus":{"coding":[{"system":"http://terminology.hl7.org/CodeSystem/condition-ver-status","code":"confirmed","display":"Confirmed"}]},"category":[{"coding":[{"system":"http://terminology.hl7.org/CodeSystem/condition-category","code":"problem-list-item","display":"Problem List Item"}]}],"code":{"coding":[{"system":"http://snomed.info/sct","version":"http://snomed.info/sct/731000124108/version/20240301","code":"10091002","display":"High output heart failure (disorder)"}]},"subject":{"reference":"Patient/ed36c619-3ef8-44ca-86fa-1993920d76ef"},"onsetPeriod":{"start":"2025-05-17T10:00:00.000+00:00"}},"request":{"method":"PUT","url":"Condition/563257f1-32d3-431f-9f3a-a9c092c13606"}},{"fullUrl":"https://madie.cms.gov/Condition/5f3057a3-e2dc-4a41-8578-78505e9d1247","resource":{"resourceType":"Condition","id":"5f3057a3-e2dc-4a41-8578-78505e9d1247","meta":{"profile":["http://hl7.org/fhir/us/qicore/StructureDefinition/qicore-condition-problems-health-concerns"]},"clinicalStatus":{"coding":[{"system":"http://terminology.hl7.org/CodeSystem/condition-clinical","code":"active","display":"Active"}]},"verificationStatus":{"coding":[{"system":"http://terminology.hl7.org/CodeSystem/condition-ver-status","code":"confirmed","display":"Confirmed"}]},"category":[{"coding":[{"system":"http://terminology.hl7.org/CodeSystem/condition-category","code":"problem-list-item","display":"Problem List Item"}]}],"code":{"coding":[{"system":"http://snomed.info/sct","version":"http://snomed.info/sct/731000124108/version/20240301","code":"991000124109","display":"Severe left ventricular systolic dysfunction (disorder)"}]},"subject":{"reference":"Patient/ed36c619-3ef8-44ca-86fa-1993920d76ef"},"onsetPeriod":{"start":"2026-03-25T16:00:00.000+00:00","end":"2026-03-30T16:00:00.000+00:00"}},"request":{"method":"PUT","url":"Condition/5f3057a3-e2dc-4a41-8578-78505e9d1247"}},{"fullUrl":"https://madie.cms.gov/AllergyIntolerance/3d4a3157-6404-462c-947a-784730885324","resource":{"resourceType":"AllergyIntolerance","id":"3d4a3157-6404-462c-947a-784730885324","meta":{"profile":["http://hl7.org/fhir/us/qicore/StructureDefinition/qicore-allergyintolerance"]},"clinicalStatus":{"coding":[{"system":"http://terminology.hl7.org/CodeSystem/allergyintolerance-clinical","code":"active","display":"Active"}]},"verificationStatus":{"coding":[{"system":"http://terminology.hl7.org/CodeSystem/allergyintolerance-verification","code":"confirmed","display":"Confirmed"}]},"type":"allergy","category":["medication"],"criticality":"high","code":{"coding":[{"system":"http://snomed.info/sct","version":"http://snomed.info/sct/731000124108/version/20240301","code":"372733002","display":"Substance with angiotensin-converting enzyme inhibitor mechanism of action (substance)"}]},"patient":{"reference":"Patient/ed36c619-3ef8-44ca-86fa-1993920d76ef"},"onsetDateTime":"2005","recordedDate":"2025-09-25T16:00:00.000+00:00"},"request":{"method":"PUT","url":"AllergyIntolerance/3d4a3157-6404-462c-947a-784730885324"}},{"fullUrl":"https://madie.cms.gov/MeasureReport/110ec65b-0ec2-4075-ba5f-7dc94e907298","resource":{"resourceType":"MeasureReport","id":"110ec65b-0ec2-4075-ba5f-7dc94e907298","meta":{"profile":["http://hl7.org/fhir/us/cqfmeasures/StructureDefinition/test-case-cqfm"]},"contained":[{"resourceType":"Parameters","id":"fba11cbe-1764-4a7d-bc5e-97681d4806e3-parameters","parameter":[{"name":"subject","valueString":"ed36c619-3ef8-44ca-86fa-1993920d76ef"}]}],"extension":[{"url":"http://hl7.org/fhir/StructureDefinition/cqf-inputParameters","valueReference":{"reference":"#fba11cbe-1764-4a7d-bc5e-97681d4806e3-parameters"}},{"url":"http://hl7.org/fhir/us/cqfmeasures/StructureDefinition/cqfm-testCaseDescription","valueMarkdown":"Patient has 2 ambulatory encounters, HF diagnosis and LVSD and meets denominator exception with confirmed ACE inhibitor allergy"}],"modifierExtension":[{"url":"http://hl7.org/fhir/us/cqfmeasures/StructureDefinition/cqfm-isTestCase","valueBoolean":true}],"status":"complete","type":"individual","measure":"https://madie.cms.gov/Measure/CMS135FHIRHFACEIorARBorARNIforLVSD","period":{"start":"2026-01-01","end":"2026-12-31"},"group":[{"id":"Group_1","population":[{"id":"InitialPopulation_1","code":{"coding":[{"system":"http://terminology.hl7.org/CodeSystem/measure-population","code":"initial-population","display":"Initial Population"}]},"count":1},{"id":"Denominator_1","code":{"coding":[{"system":"http://terminology.hl7.org/CodeSystem/measure-population","code":"denominator","display":"Denominator"}]},"count":1},{"id":"DenominatorExclusion_1","code":{"coding":[{"system":"http://terminology.hl7.org/CodeSystem/measure-population","code":"denominator-exclusion","display":"Denominator Exclusion"}]},"count":0},{"id":"Numerator_1","code":{"coding":[{"system":"http://terminology.hl7.org/CodeSystem/measure-population","code":"numerator","display":"Numerator"}]},"count":0},{"id":"DenominatorException_1","code":{"coding":[{"system":"http://terminology.hl7.org/CodeSystem/measure-population","code":"denominator-exception","display":"Denominator Exception"}]},"count":1}],"measureScore":{"value":1.0}}],"evaluatedResource":[{"reference":"Patient/ed36c619-3ef8-44ca-86fa-1993920d76ef"},{"reference":"Encounter/eb5d2a26-b2e0-4b47-bdb7-902c046316f5"},{"reference":"Encounter/5d73aab2-a3b3-4ebd-af71-3c6479ef2f8c"},{"reference":"Condition/563257f1-32d3-431f-9f3a-a9c092c13606"},{"reference":"Condition/5f3057a3-e2dc-4a41-8578-78505e9d1247"},{"reference":"AllergyIntolerance/3d4a3157-6404-462c-947a-784730885324"}]},"request":{"method":"PUT","url":"MeasureReport/110ec65b-0ec2-4075-ba5f-7dc94e907298"}}]},"request":{"method":"PUT","url":"Bundle/1631463313155464"}},{"resource":{"resourceType":"Condition","id":"563257f1-32d3-431f-9f3a-a9c092c13606","meta":{"profile":["http://hl7.org/fhir/us/qicore/StructureDefinition/qicore-condition-problems-health-concerns"]},"clinicalStatus":{"coding":[{"system":"http://terminology.hl7.org/CodeSystem/condition-clinical","code":"active","display":"active"}]},"verificationStatus":{"coding":[{"system":"http://terminology.hl7.org/CodeSystem/condition-ver-status","code":"confirmed","display":"Confirmed"}]},"category":[{"coding":[{"system":"http://terminology.hl7.org/CodeSystem/condition-category","code":"problem-list-item","display":"Problem List Item"}]}],"code":{"coding":[{"system":"http://snomed.info/sct","version":"http://snomed.info/sct/731000124108/version/20240301","code":"10091002","display":"High output heart failure (disorder)"}]},"subject":{"reference":"Patient/ed36c619-3ef8-44ca-86fa-1993920d76ef"},"onsetPeriod":{"start":"2025-05-17T10:00:00.000+00:00"}},"request":{"method":"PUT","url":"Condition/563257f1-32d3-431f-9f3a-a9c092c13606"}},{"resource":{"resourceType":"AllergyIntolerance","id":"3d4a3157-6404-462c-947a-784730885324","meta":{"profile":["http://hl7.org/fhir/us/qicore/StructureDefinition/qicore-allergyintolerance"]},"clinicalStatus":{"coding":[{"system":"http://terminology.hl7.org/CodeSystem/allergyintolerance-clinical","code":"active","display":"Active"}]},"verificationStatus":{"coding":[{"system":"http://terminology.hl7.org/CodeSystem/allergyintolerance-verification","code":"confirmed","display":"Confirmed"}]},"type":"allergy","category":["medication"],"criticality":"high","code":{"coding":[{"system":"http://snomed.info/sct","version":"http://snomed.info/sct/731000124108/version/20240301","code":"372733002","display":"Substance with angiotensin-converting enzyme inhibitor mechanism of action (substance)"}]},"patient":{"reference":"Patient/ed36c619-3ef8-44ca-86fa-1993920d76ef"},"onsetDateTime":"2005","recordedDate":"2025-09-25T16:00:00.000+00:00"},"request":{"method":"PUT","url":"AllergyIntolerance/3d4a3157-6404-462c-947a-784730885324"}},{"resource":{"resourceType":"Encounter","id":"5d73aab2-a3b3-4ebd-af71-3c6479ef2f8c","meta":{"profile":["http://hl7.org/fhir/us/qicore/StructureDefinition/qicore-encounter"]},"status":"finished","class":{"system":"http://terminology.hl7.org/CodeSystem/v3-ActCode","code":"AMB","display":"ambulatory"},"type":[{"coding":[{"system":"http://snomed.info/sct","version":"http://snomed.info/sct/731000124108/version/20240301","code":"185466002","display":"Home visit for urgent condition (procedure)"}]}],"subject":{"reference":"Patient/ed36c619-3ef8-44ca-86fa-1993920d76ef"},"period":{"start":"2026-05-15T11:50:00.000+00:00","end":"2026-05-15T11:50:00.000+00:00"}},"request":{"method":"PUT","url":"Encounter/5d73aab2-a3b3-4ebd-af71-3c6479ef2f8c"}}]}