{"resourceType":"Bundle","id":"tests-4cb09359-02c1-46e5-9480-3e6048c81f7b-bundle","type":"transaction","entry":[{"resource":{"resourceType":"Encounter","id":"6ec86466-ce19-4b5f-b50c-a27cf0ef2f14","meta":{"profile":["http://hl7.org/fhir/us/qicore/StructureDefinition/qicore-encounter"]},"status":"finished","class":{"system":"http://terminology.hl7.org/CodeSystem/v3-ActCode","code":"AMB","display":"ambulatory"},"type":[{"coding":[{"system":"http://snomed.info/sct","version":"http://snomed.info/sct/731000124108/version/20240301","code":"185463005","display":"Visit out of hours (procedure)"}]}],"subject":{"reference":"Patient/4cb09359-02c1-46e5-9480-3e6048c81f7b"},"period":{"start":"2026-02-03T08:00:00.000+00:00","end":"2026-02-03T08:15:00.000+00:00"}},"request":{"method":"PUT","url":"Encounter/6ec86466-ce19-4b5f-b50c-a27cf0ef2f14"}},{"resource":{"resourceType":"Bundle","id":"54461646136131","type":"transaction","entry":[{"fullUrl":"https://madie.cms.gov/Patient/4cb09359-02c1-46e5-9480-3e6048c81f7b","resource":{"resourceType":"Patient","id":"4cb09359-02c1-46e5-9480-3e6048c81f7b","meta":{"profile":["http://hl7.org/fhir/us/qicore/StructureDefinition/qicore-patient"]},"extension":[{"url":"http://hl7.org/fhir/us/core/StructureDefinition/us-core-race","extension":[{"url":"ombCategory","valueCoding":{"system":"urn:oid:2.16.840.1.113883.6.238","code":"1002-5","display":"American Indian or Alaska Native"}},{"url":"text","valueString":"American Indian or Alaska Native"}]},{"url":"http://hl7.org/fhir/us/core/StructureDefinition/us-core-ethnicity","extension":[{"url":"ombCategory","valueCoding":{"system":"urn:oid:2.16.840.1.113883.6.238","code":"2135-2","display":"Hispanic or Latino"}},{"url":"text","valueString":"Hispanic or Latino"}]}],"identifier":[{"type":{"coding":[{"system":"http://terminology.hl7.org/CodeSystem/v2-0203","code":"MR"}]},"system":"https://bonnie-fhir.healthit.gov/","value":"3565161351315351"}],"name":[{"family":"DENEXCEPFail","given":["MedicalReasonAfter"]}],"gender":"male","birthDate":"1982-01-01"},"request":{"method":"PUT","url":"Patient/4cb09359-02c1-46e5-9480-3e6048c81f7b"}},{"fullUrl":"https://madie.cms.gov/Encounter/6ec86466-ce19-4b5f-b50c-a27cf0ef2f14","resource":{"resourceType":"Encounter","id":"6ec86466-ce19-4b5f-b50c-a27cf0ef2f14","meta":{"profile":["http://hl7.org/fhir/us/qicore/StructureDefinition/qicore-encounter"]},"status":"finished","class":{"system":"http://terminology.hl7.org/CodeSystem/v3-ActCode","code":"AMB","display":"ambulatory"},"type":[{"coding":[{"system":"http://snomed.info/sct","version":"http://snomed.info/sct/731000124108/version/20240301","code":"185463005","display":"Visit out of hours (procedure)"}]}],"subject":{"reference":"Patient/4cb09359-02c1-46e5-9480-3e6048c81f7b"},"period":{"start":"2026-02-03T08:00:00.000+00:00","end":"2026-02-03T08:15:00.000+00:00"}},"request":{"method":"PUT","url":"Encounter/6ec86466-ce19-4b5f-b50c-a27cf0ef2f14"}},{"fullUrl":"https://madie.cms.gov/Encounter/5b0d2c43-f237-4ef2-8376-175b6e1be729","resource":{"resourceType":"Encounter","id":"5b0d2c43-f237-4ef2-8376-175b6e1be729","meta":{"profile":["http://hl7.org/fhir/us/qicore/StructureDefinition/qicore-encounter"]},"status":"finished","class":{"system":"http://terminology.hl7.org/CodeSystem/v3-ActCode","code":"AMB","display":"ambulatory"},"type":[{"coding":[{"system":"http://snomed.info/sct","version":"http://snomed.info/sct/731000124108/version/20240301","code":"185463005","display":"Visit out of hours (procedure)"}]}],"subject":{"reference":"Patient/4cb09359-02c1-46e5-9480-3e6048c81f7b"},"period":{"start":"2026-03-01T08:00:00.000+00:00","end":"2026-03-01T08:15:00.000+00:00"}},"request":{"method":"PUT","url":"Encounter/5b0d2c43-f237-4ef2-8376-175b6e1be729"}},{"fullUrl":"https://madie.cms.gov/Condition/b07d4b83-2c60-4ae8-b11c-ef8afe59d674","resource":{"resourceType":"Condition","id":"b07d4b83-2c60-4ae8-b11c-ef8afe59d674","meta":{"profile":["http://hl7.org/fhir/us/qicore/StructureDefinition/qicore-condition-problems-health-concerns"]},"clinicalStatus":{"coding":[{"system":"http://terminology.hl7.org/CodeSystem/condition-clinical","code":"active","display":"Active"}]},"verificationStatus":{"coding":[{"system":"http://terminology.hl7.org/CodeSystem/condition-ver-status","code":"confirmed","display":"Confirmed"}]},"category":[{"coding":[{"system":"http://terminology.hl7.org/CodeSystem/condition-category","code":"problem-list-item","display":"Problem List Item"}]}],"code":{"coding":[{"system":"http://snomed.info/sct","version":"http://snomed.info/sct/731000124108/version/20240301","code":"10091002","display":"High output heart failure (disorder)"}]},"subject":{"reference":"Patient/4cb09359-02c1-46e5-9480-3e6048c81f7b"},"onsetPeriod":{"start":"2026-02-03T08:00:00.000+00:00","end":"2026-02-03T08:15:00.000+00:00"}},"request":{"method":"PUT","url":"Condition/b07d4b83-2c60-4ae8-b11c-ef8afe59d674"}},{"fullUrl":"https://madie.cms.gov/Condition/130878aa-d995-4e33-99d7-1991703b82cd","resource":{"resourceType":"Condition","id":"130878aa-d995-4e33-99d7-1991703b82cd","meta":{"profile":["http://hl7.org/fhir/us/qicore/StructureDefinition/qicore-condition-problems-health-concerns"]},"clinicalStatus":{"coding":[{"system":"http://terminology.hl7.org/CodeSystem/condition-clinical","code":"active","display":"Active"}]},"verificationStatus":{"coding":[{"system":"http://terminology.hl7.org/CodeSystem/condition-ver-status","code":"confirmed","display":"Confirmed"}]},"category":[{"coding":[{"system":"http://terminology.hl7.org/CodeSystem/condition-category","code":"problem-list-item","display":"Problem List Item"}]}],"severity":{"coding":[{"system":"http://snomed.info/sct","version":"http://snomed.info/sct/731000124108/version/20240301","code":"24484000","display":"Severe (severity modifier) (qualifier value)"}]},"code":{"coding":[{"system":"http://snomed.info/sct","version":"http://snomed.info/sct/731000124108/version/20240301","code":"134401001","display":"Left ventricular systolic dysfunction (disorder)"}]},"subject":{"reference":"Patient/4cb09359-02c1-46e5-9480-3e6048c81f7b"},"onsetPeriod":{"start":"2026-02-03T08:00:00.000+00:00","end":"2026-02-03T08:15:00.000+00:00"}},"request":{"method":"PUT","url":"Condition/130878aa-d995-4e33-99d7-1991703b82cd"}},{"fullUrl":"https://madie.cms.gov/MedicationRequest/b9f11556-981e-4b76-9208-ab9887b7646d","resource":{"resourceType":"MedicationRequest","id":"b9f11556-981e-4b76-9208-ab9887b7646d","meta":{"profile":["http://hl7.org/fhir/us/qicore/StructureDefinition/qicore-mednotrequested"]},"status":"completed","intent":"order","doNotPerform":true,"medicationCodeableConcept":{"coding":[{"system":"http://www.nlm.nih.gov/research/umls/rxnorm","version":"04012024","code":"1091652","display":"azilsartan medoxomil 80 MG Oral Tablet"}]},"subject":{"reference":"Patient/4cb09359-02c1-46e5-9480-3e6048c81f7b"},"authoredOn":"2026-03-03T08:00:00.000+00:00","requester":{"reference":"Practitioner/fcb16b22-e629-44b4-828a-42655bf55f49"},"reasonCode":[{"coding":[{"system":"http://snomed.info/sct","code":"183966005","display":"Drug treatment not indicated (situation)"}]}]},"request":{"method":"PUT","url":"MedicationRequest/b9f11556-981e-4b76-9208-ab9887b7646d"}},{"fullUrl":"https://madie.cms.gov/Practitioner/fcb16b22-e629-44b4-828a-42655bf55f49","resource":{"resourceType":"Practitioner","id":"fcb16b22-e629-44b4-828a-42655bf55f49","meta":{"profile":["http://hl7.org/fhir/us/qicore/StructureDefinition/qicore-practitioner"]},"identifier":[{"use":"temp","system":"urn:oid:2.16.840.1.113883.4.336","value":"Practitioner-23"}],"active":true,"name":[{"family":"Careful","given":["Adam"],"prefix":["Dr"]}],"address":[{"use":"home","line":["534 Erewhon St"],"city":"PleasantVille","state":"UT","postalCode":"84414"}],"qualification":[{"identifier":[{"system":"http://example.org/UniversityIdentifier","value":"12345"}],"code":{"coding":[{"system":"http://terminology.hl7.org/CodeSystem/v2-0360|2.7","code":"BS","display":"Bachelor of Science"}],"text":"Bachelor of Science"},"period":{"start":"1996"},"issuer":{"display":"Example University"}}]},"request":{"method":"PUT","url":"Practitioner/fcb16b22-e629-44b4-828a-42655bf55f49"}},{"fullUrl":"https://madie.cms.gov/MeasureReport/81116a16-f4cf-4dde-943a-56d4050b72ce","resource":{"resourceType":"MeasureReport","id":"81116a16-f4cf-4dde-943a-56d4050b72ce","meta":{"profile":["http://hl7.org/fhir/us/cqfmeasures/StructureDefinition/test-case-cqfm"]},"contained":[{"resourceType":"Parameters","id":"f193015b-5430-4238-8fe2-9b1f0a3b9c9c-parameters","parameter":[{"name":"subject","valueString":"4cb09359-02c1-46e5-9480-3e6048c81f7b"}]}],"extension":[{"url":"http://hl7.org/fhir/StructureDefinition/cqf-inputParameters","valueReference":{"reference":"#f193015b-5430-4238-8fe2-9b1f0a3b9c9c-parameters"}},{"url":"http://hl7.org/fhir/us/cqfmeasures/StructureDefinition/cqfm-testCaseDescription","valueMarkdown":"Patient with  HF encounters and LVSD not prescribed ACE/ARB with documented medical reason outside of required window."}],"modifierExtension":[{"url":"http://hl7.org/fhir/us/cqfmeasures/StructureDefinition/cqfm-isTestCase","valueBoolean":true}],"status":"complete","type":"individual","measure":"https://madie.cms.gov/Measure/CMS135FHIRHFACEIorARBorARNIforLVSD","period":{"start":"2026-01-01","end":"2026-12-31"},"group":[{"id":"Group_1","population":[{"id":"InitialPopulation_1","code":{"coding":[{"system":"http://terminology.hl7.org/CodeSystem/measure-population","code":"initial-population","display":"Initial Population"}]},"count":1},{"id":"Denominator_1","code":{"coding":[{"system":"http://terminology.hl7.org/CodeSystem/measure-population","code":"denominator","display":"Denominator"}]},"count":1},{"id":"DenominatorExclusion_1","code":{"coding":[{"system":"http://terminology.hl7.org/CodeSystem/measure-population","code":"denominator-exclusion","display":"Denominator Exclusion"}]},"count":0},{"id":"Numerator_1","code":{"coding":[{"system":"http://terminology.hl7.org/CodeSystem/measure-population","code":"numerator","display":"Numerator"}]},"count":0},{"id":"DenominatorException_1","code":{"coding":[{"system":"http://terminology.hl7.org/CodeSystem/measure-population","code":"denominator-exception","display":"Denominator Exception"}]},"count":0}],"measureScore":{"value":1.0}}],"evaluatedResource":[{"reference":"Patient/4cb09359-02c1-46e5-9480-3e6048c81f7b"},{"reference":"Encounter/6ec86466-ce19-4b5f-b50c-a27cf0ef2f14"},{"reference":"Encounter/5b0d2c43-f237-4ef2-8376-175b6e1be729"},{"reference":"Condition/b07d4b83-2c60-4ae8-b11c-ef8afe59d674"},{"reference":"Condition/130878aa-d995-4e33-99d7-1991703b82cd"},{"reference":"MedicationRequest/b9f11556-981e-4b76-9208-ab9887b7646d"},{"reference":"Practitioner/fcb16b22-e629-44b4-828a-42655bf55f49"}]},"request":{"method":"PUT","url":"MeasureReport/81116a16-f4cf-4dde-943a-56d4050b72ce"}}]},"request":{"method":"PUT","url":"Bundle/54461646136131"}},{"resource":{"resourceType":"Condition","id":"130878aa-d995-4e33-99d7-1991703b82cd","meta":{"profile":["http://hl7.org/fhir/us/qicore/StructureDefinition/qicore-condition-problems-health-concerns"]},"clinicalStatus":{"coding":[{"system":"http://terminology.hl7.org/CodeSystem/condition-clinical","code":"active","display":"Active"}]},"verificationStatus":{"coding":[{"system":"http://terminology.hl7.org/CodeSystem/condition-ver-status","code":"confirmed","display":"Confirmed"}]},"category":[{"coding":[{"system":"http://terminology.hl7.org/CodeSystem/condition-category","code":"problem-list-item","display":"Problem List Item"}]}],"severity":{"coding":[{"system":"http://snomed.info/sct","version":"http://snomed.info/sct/731000124108/version/20240301","code":"24484000","display":"Severe (severity modifier) (qualifier value)"}]},"code":{"coding":[{"system":"http://snomed.info/sct","version":"http://snomed.info/sct/731000124108/version/20240301","code":"134401001","display":"Left ventricular systolic dysfunction (disorder)"}]},"subject":{"reference":"Patient/4cb09359-02c1-46e5-9480-3e6048c81f7b"},"onsetPeriod":{"start":"2026-02-03T08:00:00.000+00:00","end":"2026-02-03T08:15:00.000+00:00"}},"request":{"method":"PUT","url":"Condition/130878aa-d995-4e33-99d7-1991703b82cd"}},{"resource":{"resourceType":"MedicationRequest","id":"b9f11556-981e-4b76-9208-ab9887b7646d","meta":{"profile":["http://hl7.org/fhir/us/qicore/StructureDefinition/qicore-mednotrequested"]},"status":"completed","intent":"order","doNotPerform":true,"medicationCodeableConcept":{"coding":[{"system":"http://www.nlm.nih.gov/research/umls/rxnorm","version":"04012024","code":"1091652","display":"azilsartan medoxomil 80 MG Oral Tablet"}]},"subject":{"reference":"Patient/4cb09359-02c1-46e5-9480-3e6048c81f7b"},"authoredOn":"2026-03-03T08:00:00.000+00:00","requester":{"reference":"Practitioner/fcb16b22-e629-44b4-828a-42655bf55f49"},"reasonCode":[{"coding":[{"system":"http://snomed.info/sct","code":"183966005","display":"Drug treatment not indicated (situation)"}]}]},"request":{"method":"PUT","url":"MedicationRequest/b9f11556-981e-4b76-9208-ab9887b7646d"}},{"resource":{"resourceType":"Encounter","id":"5b0d2c43-f237-4ef2-8376-175b6e1be729","meta":{"profile":["http://hl7.org/fhir/us/qicore/StructureDefinition/qicore-encounter"]},"status":"finished","class":{"system":"http://terminology.hl7.org/CodeSystem/v3-ActCode","code":"AMB","display":"ambulatory"},"type":[{"coding":[{"system":"http://snomed.info/sct","version":"http://snomed.info/sct/731000124108/version/20240301","code":"185463005","display":"Visit out of hours (procedure)"}]}],"subject":{"reference":"Patient/4cb09359-02c1-46e5-9480-3e6048c81f7b"},"period":{"start":"2026-03-01T08:00:00.000+00:00","end":"2026-03-01T08:15:00.000+00:00"}},"request":{"method":"PUT","url":"Encounter/5b0d2c43-f237-4ef2-8376-175b6e1be729"}},{"resource":{"resourceType":"Patient","id":"4cb09359-02c1-46e5-9480-3e6048c81f7b","meta":{"profile":["http://hl7.org/fhir/us/qicore/StructureDefinition/qicore-patient"]},"extension":[{"url":"http://hl7.org/fhir/us/core/StructureDefinition/us-core-race","extension":[{"url":"ombCategory","valueCoding":{"system":"urn:oid:2.16.840.1.113883.6.238","code":"1002-5","display":"American Indian or Alaska Native"}},{"url":"text","valueString":"American Indian or Alaska Native"}]},{"url":"http://hl7.org/fhir/us/core/StructureDefinition/us-core-ethnicity","extension":[{"url":"ombCategory","valueCoding":{"system":"urn:oid:2.16.840.1.113883.6.238","code":"2135-2","display":"Hispanic or Latino"}},{"url":"text","valueString":"Hispanic or Latino"}]}],"identifier":[{"type":{"coding":[{"system":"http://terminology.hl7.org/CodeSystem/v2-0203","code":"MR"}]},"system":"https://bonnie-fhir.healthit.gov/","value":"3565161351315351"}],"name":[{"family":"DENEXCEPFail","given":["MedicalReasonAfter"]}],"gender":"male","birthDate":"1982-01-01"},"request":{"method":"PUT","url":"Patient/4cb09359-02c1-46e5-9480-3e6048c81f7b"}},{"resource":{"resourceType":"MeasureReport","id":"81116a16-f4cf-4dde-943a-56d4050b72ce","meta":{"profile":["http://hl7.org/fhir/us/cqfmeasures/StructureDefinition/test-case-cqfm"]},"contained":[{"resourceType":"Parameters","id":"f193015b-5430-4238-8fe2-9b1f0a3b9c9c-parameters","parameter":[{"name":"subject","valueString":"4cb09359-02c1-46e5-9480-3e6048c81f7b"}]}],"extension":[{"url":"http://hl7.org/fhir/StructureDefinition/cqf-inputParameters","valueReference":{"reference":"#f193015b-5430-4238-8fe2-9b1f0a3b9c9c-parameters"}},{"url":"http://hl7.org/fhir/us/cqfmeasures/StructureDefinition/cqfm-testCaseDescription","valueMarkdown":"Patient with  HF encounters and LVSD not prescribed ACE/ARB with documented medical reason outside of required window."}],"modifierExtension":[{"url":"http://hl7.org/fhir/us/cqfmeasures/StructureDefinition/cqfm-isTestCase","valueBoolean":true}],"status":"complete","type":"individual","measure":"https://madie.cms.gov/Measure/CMS135FHIRHFACEIorARBorARNIforLVSD","period":{"start":"2026-01-01","end":"2026-12-31"},"group":[{"id":"Group_1","population":[{"id":"InitialPopulation_1","code":{"coding":[{"system":"http://terminology.hl7.org/CodeSystem/measure-population","code":"initial-population","display":"Initial Population"}]},"count":1},{"id":"Denominator_1","code":{"coding":[{"system":"http://terminology.hl7.org/CodeSystem/measure-population","code":"denominator","display":"Denominator"}]},"count":1},{"id":"DenominatorExclusion_1","code":{"coding":[{"system":"http://terminology.hl7.org/CodeSystem/measure-population","code":"denominator-exclusion","display":"Denominator Exclusion"}]},"count":0},{"id":"Numerator_1","code":{"coding":[{"system":"http://terminology.hl7.org/CodeSystem/measure-population","code":"numerator","display":"Numerator"}]},"count":0},{"id":"DenominatorException_1","code":{"coding":[{"system":"http://terminology.hl7.org/CodeSystem/measure-population","code":"denominator-exception","display":"Denominator Exception"}]},"count":0}],"measureScore":{"value":1.0}}],"evaluatedResource":[{"reference":"Patient/4cb09359-02c1-46e5-9480-3e6048c81f7b"},{"reference":"Encounter/6ec86466-ce19-4b5f-b50c-a27cf0ef2f14"},{"reference":"Encounter/5b0d2c43-f237-4ef2-8376-175b6e1be729"},{"reference":"Condition/b07d4b83-2c60-4ae8-b11c-ef8afe59d674"},{"reference":"Condition/130878aa-d995-4e33-99d7-1991703b82cd"},{"reference":"MedicationRequest/b9f11556-981e-4b76-9208-ab9887b7646d"},{"reference":"Practitioner/fcb16b22-e629-44b4-828a-42655bf55f49"}]},"request":{"method":"PUT","url":"MeasureReport/81116a16-f4cf-4dde-943a-56d4050b72ce"}},{"resource":{"resourceType":"Condition","id":"b07d4b83-2c60-4ae8-b11c-ef8afe59d674","meta":{"profile":["http://hl7.org/fhir/us/qicore/StructureDefinition/qicore-condition-problems-health-concerns"]},"clinicalStatus":{"coding":[{"system":"http://terminology.hl7.org/CodeSystem/condition-clinical","code":"active","display":"Active"}]},"verificationStatus":{"coding":[{"system":"http://terminology.hl7.org/CodeSystem/condition-ver-status","code":"confirmed","display":"Confirmed"}]},"category":[{"coding":[{"system":"http://terminology.hl7.org/CodeSystem/condition-category","code":"problem-list-item","display":"Problem List Item"}]}],"code":{"coding":[{"system":"http://snomed.info/sct","version":"http://snomed.info/sct/731000124108/version/20240301","code":"10091002","display":"High output heart failure (disorder)"}]},"subject":{"reference":"Patient/4cb09359-02c1-46e5-9480-3e6048c81f7b"},"onsetPeriod":{"start":"2026-02-03T08:00:00.000+00:00","end":"2026-02-03T08:15:00.000+00:00"}},"request":{"method":"PUT","url":"Condition/b07d4b83-2c60-4ae8-b11c-ef8afe59d674"}},{"resource":{"resourceType":"Practitioner","id":"fcb16b22-e629-44b4-828a-42655bf55f49","meta":{"profile":["http://hl7.org/fhir/us/qicore/StructureDefinition/qicore-practitioner"]},"identifier":[{"use":"temp","system":"urn:oid:2.16.840.1.113883.4.336","value":"Practitioner-23"}],"active":true,"name":[{"family":"Careful","given":["Adam"],"prefix":["Dr"]}],"address":[{"use":"home","line":["534 Erewhon St"],"city":"PleasantVille","state":"UT","postalCode":"84414"}],"qualification":[{"identifier":[{"system":"http://example.org/UniversityIdentifier","value":"12345"}],"code":{"coding":[{"system":"http://terminology.hl7.org/CodeSystem/v2-0360|2.7","code":"BS","display":"Bachelor of Science"}],"text":"Bachelor of Science"},"period":{"start":"1996"},"issuer":{"display":"Example University"}}]},"request":{"method":"PUT","url":"Practitioner/fcb16b22-e629-44b4-828a-42655bf55f49"}}]}