{"resourceType":"Bundle","id":"tests-2b0d7791-29b6-4f10-b72a-b6a50667770d-bundle","type":"transaction","entry":[{"fullUrl":"Condition/a35a8ff7-ed83-400a-95d9-44bd6ac9de51","resource":{"resourceType":"Condition","id":"a35a8ff7-ed83-400a-95d9-44bd6ac9de51","meta":{"profile":["http://hl7.org/fhir/us/qicore/StructureDefinition/qicore-condition-problems-health-concerns"]},"clinicalStatus":{"coding":[{"system":"http://terminology.hl7.org/CodeSystem/condition-clinical","code":"active","display":"active"}]},"verificationStatus":{"coding":[{"system":"http://terminology.hl7.org/CodeSystem/condition-ver-status","code":"confirmed","display":"Confirmed"}]},"category":[{"coding":[{"system":"http://terminology.hl7.org/CodeSystem/condition-category","code":"problem-list-item","display":"Problem List Item"}]}],"code":{"coding":[{"system":"http://snomed.info/sct","version":"http://snomed.info/sct/731000124108/version/20240301","code":"10091002","display":"High output heart failure (disorder)"}]},"subject":{"reference":"Patient/2b0d7791-29b6-4f10-b72a-b6a50667770d"},"onsetPeriod":{"start":"2025-05-17T10:00:00.000+00:00"}},"request":{"method":"PUT","url":"Condition/a35a8ff7-ed83-400a-95d9-44bd6ac9de51"}},{"fullUrl":"Encounter/05b17d68-e019-42f4-adfb-4e1d282a87dd","resource":{"resourceType":"Encounter","id":"05b17d68-e019-42f4-adfb-4e1d282a87dd","meta":{"profile":["http://hl7.org/fhir/us/qicore/StructureDefinition/qicore-encounter"]},"status":"finished","class":{"system":"http://terminology.hl7.org/CodeSystem/v3-ActCode","code":"AMB","display":"ambulatory"},"type":[{"coding":[{"system":"http://snomed.info/sct","version":"http://snomed.info/sct/731000124108/version/20240301","code":"18170008","display":"Subsequent nursing facility visit (procedure)"}]}],"subject":{"reference":"Patient/2b0d7791-29b6-4f10-b72a-b6a50667770d"},"period":{"start":"2026-03-31T14:40:00.000+00:00","end":"2026-03-31T14:40:00.000+00:00"}},"request":{"method":"PUT","url":"Encounter/05b17d68-e019-42f4-adfb-4e1d282a87dd"}},{"fullUrl":"MeasureReport/37be151e-0356-4cb2-a279-95d50585794f","resource":{"resourceType":"MeasureReport","id":"37be151e-0356-4cb2-a279-95d50585794f","meta":{"profile":["http://hl7.org/fhir/us/cqfmeasures/StructureDefinition/test-case-cqfm"]},"contained":[{"resourceType":"Parameters","id":"d96e0a42-ba86-4e34-8a58-57d890f33109-parameters","parameter":[{"name":"subject","valueString":"2b0d7791-29b6-4f10-b72a-b6a50667770d"}]}],"extension":[{"url":"http://hl7.org/fhir/StructureDefinition/cqf-inputParameters","valueReference":{"reference":"#d96e0a42-ba86-4e34-8a58-57d890f33109-parameters"}},{"url":"http://hl7.org/fhir/us/cqfmeasures/StructureDefinition/cqfm-testCaseDescription","valueMarkdown":"Patient with HF and LVSD encounters not prescribed ACE/ARB medication qualifies for denominator exclusion with Heart Transplant Complication history (using Onset)."}],"modifierExtension":[{"url":"http://hl7.org/fhir/us/cqfmeasures/StructureDefinition/cqfm-isTestCase","valueBoolean":true}],"status":"complete","type":"individual","measure":"https://madie.cms.gov/Measure/CMS135FHIRHFACEIorARBorARNIforLVSD","period":{"start":"2026-01-01","end":"2026-12-31"},"group":[{"id":"Group_1","population":[{"id":"InitialPopulation_1","code":{"coding":[{"system":"http://terminology.hl7.org/CodeSystem/measure-population","code":"initial-population","display":"Initial Population"}]},"count":1},{"id":"Denominator_1","code":{"coding":[{"system":"http://terminology.hl7.org/CodeSystem/measure-population","code":"denominator","display":"Denominator"}]},"count":1},{"id":"DenominatorExclusion_1","code":{"coding":[{"system":"http://terminology.hl7.org/CodeSystem/measure-population","code":"denominator-exclusion","display":"Denominator Exclusion"}]},"count":1},{"id":"Numerator_1","code":{"coding":[{"system":"http://terminology.hl7.org/CodeSystem/measure-population","code":"numerator","display":"Numerator"}]},"count":0},{"id":"DenominatorException_1","code":{"coding":[{"system":"http://terminology.hl7.org/CodeSystem/measure-population","code":"denominator-exception","display":"Denominator Exception"}]},"count":0}],"measureScore":{"value":1.0}}],"evaluatedResource":[{"reference":"Patient/2b0d7791-29b6-4f10-b72a-b6a50667770d"},{"reference":"Encounter/05b17d68-e019-42f4-adfb-4e1d282a87dd"},{"reference":"Encounter/a6ca7e62-5289-49b2-8999-f10daf2fb7a6"},{"reference":"Condition/a35a8ff7-ed83-400a-95d9-44bd6ac9de51"},{"reference":"Condition/96d9b82c-9a3e-4e81-a564-591075dcceca"},{"reference":"Condition/e1a90599-6936-4e9e-8def-47251275860a"}]},"request":{"method":"PUT","url":"MeasureReport/37be151e-0356-4cb2-a279-95d50585794f"}},{"fullUrl":"Condition/96d9b82c-9a3e-4e81-a564-591075dcceca","resource":{"resourceType":"Condition","id":"96d9b82c-9a3e-4e81-a564-591075dcceca","meta":{"profile":["http://hl7.org/fhir/us/qicore/StructureDefinition/qicore-condition-problems-health-concerns"]},"clinicalStatus":{"coding":[{"system":"http://terminology.hl7.org/CodeSystem/condition-clinical","code":"active","display":"Active"}]},"verificationStatus":{"coding":[{"system":"http://terminology.hl7.org/CodeSystem/condition-ver-status","code":"confirmed","display":"Confirmed"}]},"category":[{"coding":[{"system":"http://terminology.hl7.org/CodeSystem/condition-category","code":"problem-list-item","display":"Problem List Item"}]}],"code":{"coding":[{"system":"http://snomed.info/sct","version":"http://snomed.info/sct/731000124108/version/20240301","code":"991000124109","display":"Severe left ventricular systolic dysfunction (disorder)"}]},"subject":{"reference":"Patient/2b0d7791-29b6-4f10-b72a-b6a50667770d"},"onsetPeriod":{"start":"2026-03-25T16:00:00.000+00:00","end":"2026-03-30T16:00:00.000+00:00"}},"request":{"method":"PUT","url":"Condition/96d9b82c-9a3e-4e81-a564-591075dcceca"}},{"fullUrl":"Encounter/a6ca7e62-5289-49b2-8999-f10daf2fb7a6","resource":{"resourceType":"Encounter","id":"a6ca7e62-5289-49b2-8999-f10daf2fb7a6","meta":{"profile":["http://hl7.org/fhir/us/qicore/StructureDefinition/qicore-encounter"]},"status":"finished","class":{"system":"http://terminology.hl7.org/CodeSystem/v3-ActCode","code":"AMB","display":"ambulatory"},"type":[{"coding":[{"system":"http://snomed.info/sct","version":"http://snomed.info/sct/731000124108/version/20240301","code":"185466002","display":"Home visit for urgent condition (procedure)"}]}],"subject":{"reference":"Patient/2b0d7791-29b6-4f10-b72a-b6a50667770d"},"period":{"start":"2026-05-15T11:50:00.000+00:00","end":"2026-05-15T11:50:00.000+00:00"}},"request":{"method":"PUT","url":"Encounter/a6ca7e62-5289-49b2-8999-f10daf2fb7a6"}},{"fullUrl":"Condition/e1a90599-6936-4e9e-8def-47251275860a","resource":{"resourceType":"Condition","id":"e1a90599-6936-4e9e-8def-47251275860a","meta":{"profile":["http://hl7.org/fhir/us/qicore/StructureDefinition/qicore-condition-encounter-diagnosis"]},"clinicalStatus":{"coding":[{"system":"http://terminology.hl7.org/CodeSystem/condition-clinical","code":"active","display":"Active"}]},"verificationStatus":{"coding":[{"system":"http://terminology.hl7.org/CodeSystem/condition-ver-status","code":"confirmed","display":"Confirmed"}]},"category":[{"coding":[{"system":"http://terminology.hl7.org/CodeSystem/condition-category","code":"encounter-diagnosis","display":"Encounter Diagnosis"}]}],"code":{"coding":[{"system":"http://snomed.info/sct","version":"http://snomed.info/sct/731000124108/version/20240301","code":"429257001","display":"Disorder of transplanted heart (disorder)"}]},"subject":{"reference":"Patient/2b0d7791-29b6-4f10-b72a-b6a50667770d"},"onsetDateTime":"2025-09-25T16:00:00.000+00:00"},"request":{"method":"PUT","url":"Condition/e1a90599-6936-4e9e-8def-47251275860a"}},{"fullUrl":"Patient/2b0d7791-29b6-4f10-b72a-b6a50667770d","resource":{"resourceType":"Patient","id":"2b0d7791-29b6-4f10-b72a-b6a50667770d","meta":{"profile":["http://hl7.org/fhir/us/qicore/StructureDefinition/qicore-patient"]},"extension":[{"url":"http://hl7.org/fhir/us/core/StructureDefinition/us-core-race","extension":[{"url":"ombCategory","valueCoding":{"system":"urn:oid:2.16.840.1.113883.6.238","code":"1002-5","display":"American Indian or Alaska Native"}},{"url":"text","valueString":"American Indian or Alaska Native"}]},{"url":"http://hl7.org/fhir/us/core/StructureDefinition/us-core-ethnicity","extension":[{"url":"ombCategory","valueCoding":{"system":"urn:oid:2.16.840.1.113883.6.238","code":"2186-5","display":"Not Hispanic or Latino"}},{"url":"text","valueString":"Not Hispanic or Latino"}]}],"identifier":[{"type":{"coding":[{"system":"http://terminology.hl7.org/CodeSystem/v2-0203","code":"MR"}]},"system":"https://bonnie-fhir.healthit.gov/","value":"431385494631"}],"name":[{"family":"DENEXPass","given":["HrtTransplComplictnsInterval"]}],"gender":"male","birthDate":"1969-06-14"},"request":{"method":"PUT","url":"Patient/2b0d7791-29b6-4f10-b72a-b6a50667770d"}},{"fullUrl":"Bundle/646135468498435135131","resource":{"resourceType":"Bundle","id":"646135468498435135131","type":"transaction","entry":[{"fullUrl":"https://madie.cms.gov/Patient/2b0d7791-29b6-4f10-b72a-b6a50667770d","resource":{"resourceType":"Patient","id":"2b0d7791-29b6-4f10-b72a-b6a50667770d","meta":{"profile":["http://hl7.org/fhir/us/qicore/StructureDefinition/qicore-patient"]},"extension":[{"url":"http://hl7.org/fhir/us/core/StructureDefinition/us-core-race","extension":[{"url":"ombCategory","valueCoding":{"system":"urn:oid:2.16.840.1.113883.6.238","code":"1002-5","display":"American Indian or Alaska Native"}},{"url":"text","valueString":"American Indian or Alaska Native"}]},{"url":"http://hl7.org/fhir/us/core/StructureDefinition/us-core-ethnicity","extension":[{"url":"ombCategory","valueCoding":{"system":"urn:oid:2.16.840.1.113883.6.238","code":"2186-5","display":"Not Hispanic or Latino"}},{"url":"text","valueString":"Not Hispanic or Latino"}]}],"identifier":[{"type":{"coding":[{"system":"http://terminology.hl7.org/CodeSystem/v2-0203","code":"MR"}]},"system":"https://bonnie-fhir.healthit.gov/","value":"431385494631"}],"name":[{"family":"DENEXPass","given":["HrtTransplComplictnsInterval"]}],"gender":"male","birthDate":"1969-06-14"},"request":{"method":"PUT","url":"Patient/2b0d7791-29b6-4f10-b72a-b6a50667770d"}},{"fullUrl":"https://madie.cms.gov/Encounter/05b17d68-e019-42f4-adfb-4e1d282a87dd","resource":{"resourceType":"Encounter","id":"05b17d68-e019-42f4-adfb-4e1d282a87dd","meta":{"profile":["http://hl7.org/fhir/us/qicore/StructureDefinition/qicore-encounter"]},"status":"finished","class":{"system":"http://terminology.hl7.org/CodeSystem/v3-ActCode","code":"AMB","display":"ambulatory"},"type":[{"coding":[{"system":"http://snomed.info/sct","version":"http://snomed.info/sct/731000124108/version/20240301","code":"18170008","display":"Subsequent nursing facility visit (procedure)"}]}],"subject":{"reference":"Patient/2b0d7791-29b6-4f10-b72a-b6a50667770d"},"period":{"start":"2026-03-31T14:40:00.000+00:00","end":"2026-03-31T14:40:00.000+00:00"}},"request":{"method":"PUT","url":"Encounter/05b17d68-e019-42f4-adfb-4e1d282a87dd"}},{"fullUrl":"https://madie.cms.gov/Encounter/a6ca7e62-5289-49b2-8999-f10daf2fb7a6","resource":{"resourceType":"Encounter","id":"a6ca7e62-5289-49b2-8999-f10daf2fb7a6","meta":{"profile":["http://hl7.org/fhir/us/qicore/StructureDefinition/qicore-encounter"]},"status":"finished","class":{"system":"http://terminology.hl7.org/CodeSystem/v3-ActCode","code":"AMB","display":"ambulatory"},"type":[{"coding":[{"system":"http://snomed.info/sct","version":"http://snomed.info/sct/731000124108/version/20240301","code":"185466002","display":"Home visit for urgent condition (procedure)"}]}],"subject":{"reference":"Patient/2b0d7791-29b6-4f10-b72a-b6a50667770d"},"period":{"start":"2026-05-15T11:50:00.000+00:00","end":"2026-05-15T11:50:00.000+00:00"}},"request":{"method":"PUT","url":"Encounter/a6ca7e62-5289-49b2-8999-f10daf2fb7a6"}},{"fullUrl":"https://madie.cms.gov/Condition/a35a8ff7-ed83-400a-95d9-44bd6ac9de51","resource":{"resourceType":"Condition","id":"a35a8ff7-ed83-400a-95d9-44bd6ac9de51","meta":{"profile":["http://hl7.org/fhir/us/qicore/StructureDefinition/qicore-condition-problems-health-concerns"]},"clinicalStatus":{"coding":[{"system":"http://terminology.hl7.org/CodeSystem/condition-clinical","code":"active","display":"active"}]},"verificationStatus":{"coding":[{"system":"http://terminology.hl7.org/CodeSystem/condition-ver-status","code":"confirmed","display":"Confirmed"}]},"category":[{"coding":[{"system":"http://terminology.hl7.org/CodeSystem/condition-category","code":"problem-list-item","display":"Problem List Item"}]}],"code":{"coding":[{"system":"http://snomed.info/sct","version":"http://snomed.info/sct/731000124108/version/20240301","code":"10091002","display":"High output heart failure (disorder)"}]},"subject":{"reference":"Patient/2b0d7791-29b6-4f10-b72a-b6a50667770d"},"onsetPeriod":{"start":"2025-05-17T10:00:00.000+00:00"}},"request":{"method":"PUT","url":"Condition/a35a8ff7-ed83-400a-95d9-44bd6ac9de51"}},{"fullUrl":"https://madie.cms.gov/Condition/96d9b82c-9a3e-4e81-a564-591075dcceca","resource":{"resourceType":"Condition","id":"96d9b82c-9a3e-4e81-a564-591075dcceca","meta":{"profile":["http://hl7.org/fhir/us/qicore/StructureDefinition/qicore-condition-problems-health-concerns"]},"clinicalStatus":{"coding":[{"system":"http://terminology.hl7.org/CodeSystem/condition-clinical","code":"active","display":"Active"}]},"verificationStatus":{"coding":[{"system":"http://terminology.hl7.org/CodeSystem/condition-ver-status","code":"confirmed","display":"Confirmed"}]},"category":[{"coding":[{"system":"http://terminology.hl7.org/CodeSystem/condition-category","code":"problem-list-item","display":"Problem List Item"}]}],"code":{"coding":[{"system":"http://snomed.info/sct","version":"http://snomed.info/sct/731000124108/version/20240301","code":"991000124109","display":"Severe left ventricular systolic dysfunction (disorder)"}]},"subject":{"reference":"Patient/2b0d7791-29b6-4f10-b72a-b6a50667770d"},"onsetPeriod":{"start":"2026-03-25T16:00:00.000+00:00","end":"2026-03-30T16:00:00.000+00:00"}},"request":{"method":"PUT","url":"Condition/96d9b82c-9a3e-4e81-a564-591075dcceca"}},{"fullUrl":"https://madie.cms.gov/Condition/e1a90599-6936-4e9e-8def-47251275860a","resource":{"resourceType":"Condition","id":"e1a90599-6936-4e9e-8def-47251275860a","meta":{"profile":["http://hl7.org/fhir/us/qicore/StructureDefinition/qicore-condition-encounter-diagnosis"]},"clinicalStatus":{"coding":[{"system":"http://terminology.hl7.org/CodeSystem/condition-clinical","code":"active","display":"Active"}]},"verificationStatus":{"coding":[{"system":"http://terminology.hl7.org/CodeSystem/condition-ver-status","code":"confirmed","display":"Confirmed"}]},"category":[{"coding":[{"system":"http://terminology.hl7.org/CodeSystem/condition-category","code":"encounter-diagnosis","display":"Encounter Diagnosis"}]}],"code":{"coding":[{"system":"http://snomed.info/sct","version":"http://snomed.info/sct/731000124108/version/20240301","code":"429257001","display":"Disorder of transplanted heart (disorder)"}]},"subject":{"reference":"Patient/2b0d7791-29b6-4f10-b72a-b6a50667770d"},"onsetDateTime":"2025-09-25T16:00:00.000+00:00"},"request":{"method":"PUT","url":"Condition/e1a90599-6936-4e9e-8def-47251275860a"}},{"fullUrl":"https://madie.cms.gov/MeasureReport/37be151e-0356-4cb2-a279-95d50585794f","resource":{"resourceType":"MeasureReport","id":"37be151e-0356-4cb2-a279-95d50585794f","meta":{"profile":["http://hl7.org/fhir/us/cqfmeasures/StructureDefinition/test-case-cqfm"]},"contained":[{"resourceType":"Parameters","id":"d96e0a42-ba86-4e34-8a58-57d890f33109-parameters","parameter":[{"name":"subject","valueString":"2b0d7791-29b6-4f10-b72a-b6a50667770d"}]}],"extension":[{"url":"http://hl7.org/fhir/StructureDefinition/cqf-inputParameters","valueReference":{"reference":"#d96e0a42-ba86-4e34-8a58-57d890f33109-parameters"}},{"url":"http://hl7.org/fhir/us/cqfmeasures/StructureDefinition/cqfm-testCaseDescription","valueMarkdown":"Patient with HF and LVSD encounters not prescribed ACE/ARB medication qualifies for denominator exclusion with Heart Transplant Complication history (using Onset)."}],"modifierExtension":[{"url":"http://hl7.org/fhir/us/cqfmeasures/StructureDefinition/cqfm-isTestCase","valueBoolean":true}],"status":"complete","type":"individual","measure":"https://madie.cms.gov/Measure/CMS135FHIRHFACEIorARBorARNIforLVSD","period":{"start":"2026-01-01","end":"2026-12-31"},"group":[{"id":"Group_1","population":[{"id":"InitialPopulation_1","code":{"coding":[{"system":"http://terminology.hl7.org/CodeSystem/measure-population","code":"initial-population","display":"Initial Population"}]},"count":1},{"id":"Denominator_1","code":{"coding":[{"system":"http://terminology.hl7.org/CodeSystem/measure-population","code":"denominator","display":"Denominator"}]},"count":1},{"id":"DenominatorExclusion_1","code":{"coding":[{"system":"http://terminology.hl7.org/CodeSystem/measure-population","code":"denominator-exclusion","display":"Denominator Exclusion"}]},"count":1},{"id":"Numerator_1","code":{"coding":[{"system":"http://terminology.hl7.org/CodeSystem/measure-population","code":"numerator","display":"Numerator"}]},"count":0},{"id":"DenominatorException_1","code":{"coding":[{"system":"http://terminology.hl7.org/CodeSystem/measure-population","code":"denominator-exception","display":"Denominator Exception"}]},"count":0}],"measureScore":{"value":1.0}}],"evaluatedResource":[{"reference":"Patient/2b0d7791-29b6-4f10-b72a-b6a50667770d"},{"reference":"Encounter/05b17d68-e019-42f4-adfb-4e1d282a87dd"},{"reference":"Encounter/a6ca7e62-5289-49b2-8999-f10daf2fb7a6"},{"reference":"Condition/a35a8ff7-ed83-400a-95d9-44bd6ac9de51"},{"reference":"Condition/96d9b82c-9a3e-4e81-a564-591075dcceca"},{"reference":"Condition/e1a90599-6936-4e9e-8def-47251275860a"}]},"request":{"method":"PUT","url":"MeasureReport/37be151e-0356-4cb2-a279-95d50585794f"}}]},"request":{"method":"PUT","url":"Bundle/646135468498435135131"}}]}