{"resourceType":"Bundle","id":"tests-ab7f5ace-9ac6-4077-bee9-444abeac4f51-bundle","type":"transaction","entry":[{"fullUrl":"AllergyIntolerance/c7fb137a-ee11-4bed-a30c-a98a5ce084f9","resource":{"resourceType":"AllergyIntolerance","id":"c7fb137a-ee11-4bed-a30c-a98a5ce084f9","meta":{"profile":["http://hl7.org/fhir/us/qicore/StructureDefinition/qicore-allergyintolerance"]},"clinicalStatus":{"coding":[{"system":"http://terminology.hl7.org/CodeSystem/allergyintolerance-clinical","code":"active","display":"Active"}]},"verificationStatus":{"coding":[{"system":"http://terminology.hl7.org/CodeSystem/allergyintolerance-verification","code":"confirmed","display":"Confirmed"}]},"type":"allergy","category":["medication"],"criticality":"high","code":{"coding":[{"system":"http://www.nlm.nih.gov/research/umls/rxnorm","version":"04012024","code":"1091643","display":"azilsartan"}]},"patient":{"reference":"Patient/ab7f5ace-9ac6-4077-bee9-444abeac4f51"},"onsetDateTime":"2005","recordedDate":"2025-09-25T16:00:00.000+00:00"},"request":{"method":"PUT","url":"AllergyIntolerance/c7fb137a-ee11-4bed-a30c-a98a5ce084f9"}},{"fullUrl":"Encounter/66848a1a-57c5-48e5-a700-aff75b571456","resource":{"resourceType":"Encounter","id":"66848a1a-57c5-48e5-a700-aff75b571456","meta":{"profile":["http://hl7.org/fhir/us/qicore/StructureDefinition/qicore-encounter"]},"status":"finished","class":{"system":"http://terminology.hl7.org/CodeSystem/v3-ActCode","code":"AMB","display":"ambulatory"},"type":[{"coding":[{"system":"http://snomed.info/sct","version":"http://snomed.info/sct/731000124108/version/20240301","code":"185466002","display":"Home visit for urgent condition (procedure)"}]}],"subject":{"reference":"Patient/ab7f5ace-9ac6-4077-bee9-444abeac4f51"},"period":{"start":"2026-05-15T11:50:00.000+00:00","end":"2026-05-15T11:50:00.000+00:00"}},"request":{"method":"PUT","url":"Encounter/66848a1a-57c5-48e5-a700-aff75b571456"}},{"fullUrl":"Patient/ab7f5ace-9ac6-4077-bee9-444abeac4f51","resource":{"resourceType":"Patient","id":"ab7f5ace-9ac6-4077-bee9-444abeac4f51","meta":{"profile":["http://hl7.org/fhir/us/qicore/StructureDefinition/qicore-patient"]},"extension":[{"url":"http://hl7.org/fhir/us/core/StructureDefinition/us-core-race","extension":[{"url":"ombCategory","valueCoding":{"system":"urn:oid:2.16.840.1.113883.6.238","code":"1002-5","display":"American Indian or Alaska Native"}},{"url":"text","valueString":"American Indian or Alaska Native"}]},{"url":"http://hl7.org/fhir/us/core/StructureDefinition/us-core-ethnicity","extension":[{"url":"ombCategory","valueCoding":{"system":"urn:oid:2.16.840.1.113883.6.238","code":"2186-5","display":"Not Hispanic or Latino"}},{"url":"text","valueString":"Not Hispanic or Latino"}]},{"url":"http://hl7.org/fhir/us/core/StructureDefinition/us-core-sex","valueCode":"248152002"}],"identifier":[{"type":{"coding":[{"system":"http://terminology.hl7.org/CodeSystem/v2-0203","code":"MR"}]},"system":"https://bonnie-fhir.healthit.gov/","value":"431385494631"}],"name":[{"family":"DENEXCEPPass","given":["AllergyToARBIngrdnt"]}],"gender":"female","birthDate":"1969-06-14"},"request":{"method":"PUT","url":"Patient/ab7f5ace-9ac6-4077-bee9-444abeac4f51"}},{"fullUrl":"Condition/b199dccb-b5fe-47e5-8fd4-bc87649868a2","resource":{"resourceType":"Condition","id":"b199dccb-b5fe-47e5-8fd4-bc87649868a2","meta":{"profile":["http://hl7.org/fhir/us/qicore/StructureDefinition/qicore-condition-problems-health-concerns"]},"clinicalStatus":{"coding":[{"system":"http://terminology.hl7.org/CodeSystem/condition-clinical","code":"active","display":"Active"}]},"verificationStatus":{"coding":[{"system":"http://terminology.hl7.org/CodeSystem/condition-ver-status","code":"confirmed","display":"Confirmed"}]},"category":[{"coding":[{"system":"http://terminology.hl7.org/CodeSystem/condition-category","code":"problem-list-item","display":"Problem List Item"}]}],"code":{"coding":[{"system":"http://snomed.info/sct","version":"http://snomed.info/sct/731000124108/version/20240301","code":"991000124109","display":"Severe left ventricular systolic dysfunction (disorder)"}]},"subject":{"reference":"Patient/ab7f5ace-9ac6-4077-bee9-444abeac4f51"},"onsetPeriod":{"start":"2026-03-25T16:00:00.000+00:00","end":"2026-03-30T16:00:00.000+00:00"}},"request":{"method":"PUT","url":"Condition/b199dccb-b5fe-47e5-8fd4-bc87649868a2"}},{"fullUrl":"MeasureReport/8ccc0787-15ec-45ff-9f9e-6c846dae589b","resource":{"resourceType":"MeasureReport","id":"8ccc0787-15ec-45ff-9f9e-6c846dae589b","meta":{"profile":["http://hl7.org/fhir/us/cqfmeasures/StructureDefinition/test-case-cqfm"]},"contained":[{"resourceType":"Parameters","id":"cdfd59f4-85c1-481c-98bf-d306cfad8cc3-parameters","parameter":[{"name":"subject","valueString":"ab7f5ace-9ac6-4077-bee9-444abeac4f51"}]}],"extension":[{"url":"http://hl7.org/fhir/StructureDefinition/cqf-inputParameters","valueReference":{"reference":"#cdfd59f4-85c1-481c-98bf-d306cfad8cc3-parameters"}},{"url":"http://hl7.org/fhir/us/cqfmeasures/StructureDefinition/cqfm-testCaseDescription","valueMarkdown":"Patient has 2 ambulatory encounters, HF diagnosis and LVSD and meets denominator exception with confirmed allergy to ARB ingredient"}],"modifierExtension":[{"url":"http://hl7.org/fhir/us/cqfmeasures/StructureDefinition/cqfm-isTestCase","valueBoolean":true}],"status":"complete","type":"individual","measure":"https://madie.cms.gov/Measure/CMS135FHIRHFACEIorARBorARNIforLVSD","period":{"start":"2026-01-01","end":"2026-12-31"},"group":[{"id":"Group_1","population":[{"id":"InitialPopulation_1","code":{"coding":[{"system":"http://terminology.hl7.org/CodeSystem/measure-population","code":"initial-population","display":"Initial Population"}]},"count":1},{"id":"Denominator_1","code":{"coding":[{"system":"http://terminology.hl7.org/CodeSystem/measure-population","code":"denominator","display":"Denominator"}]},"count":1},{"id":"DenominatorExclusion_1","code":{"coding":[{"system":"http://terminology.hl7.org/CodeSystem/measure-population","code":"denominator-exclusion","display":"Denominator Exclusion"}]},"count":0},{"id":"Numerator_1","code":{"coding":[{"system":"http://terminology.hl7.org/CodeSystem/measure-population","code":"numerator","display":"Numerator"}]},"count":0},{"id":"DenominatorException_1","code":{"coding":[{"system":"http://terminology.hl7.org/CodeSystem/measure-population","code":"denominator-exception","display":"Denominator Exception"}]},"count":1}],"measureScore":{"value":1.0}}],"evaluatedResource":[{"reference":"Patient/ab7f5ace-9ac6-4077-bee9-444abeac4f51"},{"reference":"Encounter/dd757eb1-9d77-4c25-b897-85b56d3b7e4b"},{"reference":"Encounter/66848a1a-57c5-48e5-a700-aff75b571456"},{"reference":"Condition/a3ec794d-02b6-4762-9f56-db8884a6fdc5"},{"reference":"Condition/b199dccb-b5fe-47e5-8fd4-bc87649868a2"},{"reference":"AllergyIntolerance/c7fb137a-ee11-4bed-a30c-a98a5ce084f9"}]},"request":{"method":"PUT","url":"MeasureReport/8ccc0787-15ec-45ff-9f9e-6c846dae589b"}},{"fullUrl":"Condition/a3ec794d-02b6-4762-9f56-db8884a6fdc5","resource":{"resourceType":"Condition","id":"a3ec794d-02b6-4762-9f56-db8884a6fdc5","meta":{"profile":["http://hl7.org/fhir/us/qicore/StructureDefinition/qicore-condition-problems-health-concerns"]},"clinicalStatus":{"coding":[{"system":"http://terminology.hl7.org/CodeSystem/condition-clinical","code":"active","display":"active"}]},"verificationStatus":{"coding":[{"system":"http://terminology.hl7.org/CodeSystem/condition-ver-status","code":"confirmed","display":"Confirmed"}]},"category":[{"coding":[{"system":"http://terminology.hl7.org/CodeSystem/condition-category","code":"problem-list-item","display":"Problem List Item"}]}],"code":{"coding":[{"system":"http://snomed.info/sct","version":"http://snomed.info/sct/731000124108/version/20240301","code":"10091002","display":"High output heart failure (disorder)"}]},"subject":{"reference":"Patient/ab7f5ace-9ac6-4077-bee9-444abeac4f51"},"onsetPeriod":{"start":"2025-05-17T10:00:00.000+00:00"}},"request":{"method":"PUT","url":"Condition/a3ec794d-02b6-4762-9f56-db8884a6fdc5"}},{"fullUrl":"Encounter/dd757eb1-9d77-4c25-b897-85b56d3b7e4b","resource":{"resourceType":"Encounter","id":"dd757eb1-9d77-4c25-b897-85b56d3b7e4b","meta":{"profile":["http://hl7.org/fhir/us/qicore/StructureDefinition/qicore-encounter"]},"status":"finished","class":{"system":"http://terminology.hl7.org/CodeSystem/v3-ActCode","code":"AMB","display":"ambulatory"},"type":[{"coding":[{"system":"http://snomed.info/sct","version":"http://snomed.info/sct/731000124108/version/20240301","code":"18170008","display":"Subsequent nursing facility visit (procedure)"}]}],"subject":{"reference":"Patient/ab7f5ace-9ac6-4077-bee9-444abeac4f51"},"period":{"start":"2026-03-31T14:40:00.000+00:00","end":"2026-03-31T14:40:00.000+00:00"}},"request":{"method":"PUT","url":"Encounter/dd757eb1-9d77-4c25-b897-85b56d3b7e4b"}},{"fullUrl":"Bundle/16846435145131487496","resource":{"resourceType":"Bundle","id":"16846435145131487496","type":"transaction","entry":[{"fullUrl":"https://madie.cms.gov/Patient/ab7f5ace-9ac6-4077-bee9-444abeac4f51","resource":{"resourceType":"Patient","id":"ab7f5ace-9ac6-4077-bee9-444abeac4f51","meta":{"profile":["http://hl7.org/fhir/us/qicore/StructureDefinition/qicore-patient"]},"extension":[{"url":"http://hl7.org/fhir/us/core/StructureDefinition/us-core-race","extension":[{"url":"ombCategory","valueCoding":{"system":"urn:oid:2.16.840.1.113883.6.238","code":"1002-5","display":"American Indian or Alaska Native"}},{"url":"text","valueString":"American Indian or Alaska Native"}]},{"url":"http://hl7.org/fhir/us/core/StructureDefinition/us-core-ethnicity","extension":[{"url":"ombCategory","valueCoding":{"system":"urn:oid:2.16.840.1.113883.6.238","code":"2186-5","display":"Not Hispanic or Latino"}},{"url":"text","valueString":"Not Hispanic or Latino"}]},{"url":"http://hl7.org/fhir/us/core/StructureDefinition/us-core-sex","valueCode":"248152002"}],"identifier":[{"type":{"coding":[{"system":"http://terminology.hl7.org/CodeSystem/v2-0203","code":"MR"}]},"system":"https://bonnie-fhir.healthit.gov/","value":"431385494631"}],"name":[{"family":"DENEXCEPPass","given":["AllergyToARBIngrdnt"]}],"gender":"female","birthDate":"1969-06-14"},"request":{"method":"PUT","url":"Patient/ab7f5ace-9ac6-4077-bee9-444abeac4f51"}},{"fullUrl":"https://madie.cms.gov/Encounter/dd757eb1-9d77-4c25-b897-85b56d3b7e4b","resource":{"resourceType":"Encounter","id":"dd757eb1-9d77-4c25-b897-85b56d3b7e4b","meta":{"profile":["http://hl7.org/fhir/us/qicore/StructureDefinition/qicore-encounter"]},"status":"finished","class":{"system":"http://terminology.hl7.org/CodeSystem/v3-ActCode","code":"AMB","display":"ambulatory"},"type":[{"coding":[{"system":"http://snomed.info/sct","version":"http://snomed.info/sct/731000124108/version/20240301","code":"18170008","display":"Subsequent nursing facility visit (procedure)"}]}],"subject":{"reference":"Patient/ab7f5ace-9ac6-4077-bee9-444abeac4f51"},"period":{"start":"2026-03-31T14:40:00.000+00:00","end":"2026-03-31T14:40:00.000+00:00"}},"request":{"method":"PUT","url":"Encounter/dd757eb1-9d77-4c25-b897-85b56d3b7e4b"}},{"fullUrl":"https://madie.cms.gov/Encounter/66848a1a-57c5-48e5-a700-aff75b571456","resource":{"resourceType":"Encounter","id":"66848a1a-57c5-48e5-a700-aff75b571456","meta":{"profile":["http://hl7.org/fhir/us/qicore/StructureDefinition/qicore-encounter"]},"status":"finished","class":{"system":"http://terminology.hl7.org/CodeSystem/v3-ActCode","code":"AMB","display":"ambulatory"},"type":[{"coding":[{"system":"http://snomed.info/sct","version":"http://snomed.info/sct/731000124108/version/20240301","code":"185466002","display":"Home visit for urgent condition (procedure)"}]}],"subject":{"reference":"Patient/ab7f5ace-9ac6-4077-bee9-444abeac4f51"},"period":{"start":"2026-05-15T11:50:00.000+00:00","end":"2026-05-15T11:50:00.000+00:00"}},"request":{"method":"PUT","url":"Encounter/66848a1a-57c5-48e5-a700-aff75b571456"}},{"fullUrl":"https://madie.cms.gov/Condition/a3ec794d-02b6-4762-9f56-db8884a6fdc5","resource":{"resourceType":"Condition","id":"a3ec794d-02b6-4762-9f56-db8884a6fdc5","meta":{"profile":["http://hl7.org/fhir/us/qicore/StructureDefinition/qicore-condition-problems-health-concerns"]},"clinicalStatus":{"coding":[{"system":"http://terminology.hl7.org/CodeSystem/condition-clinical","code":"active","display":"active"}]},"verificationStatus":{"coding":[{"system":"http://terminology.hl7.org/CodeSystem/condition-ver-status","code":"confirmed","display":"Confirmed"}]},"category":[{"coding":[{"system":"http://terminology.hl7.org/CodeSystem/condition-category","code":"problem-list-item","display":"Problem List Item"}]}],"code":{"coding":[{"system":"http://snomed.info/sct","version":"http://snomed.info/sct/731000124108/version/20240301","code":"10091002","display":"High output heart failure (disorder)"}]},"subject":{"reference":"Patient/ab7f5ace-9ac6-4077-bee9-444abeac4f51"},"onsetPeriod":{"start":"2025-05-17T10:00:00.000+00:00"}},"request":{"method":"PUT","url":"Condition/a3ec794d-02b6-4762-9f56-db8884a6fdc5"}},{"fullUrl":"https://madie.cms.gov/Condition/b199dccb-b5fe-47e5-8fd4-bc87649868a2","resource":{"resourceType":"Condition","id":"b199dccb-b5fe-47e5-8fd4-bc87649868a2","meta":{"profile":["http://hl7.org/fhir/us/qicore/StructureDefinition/qicore-condition-problems-health-concerns"]},"clinicalStatus":{"coding":[{"system":"http://terminology.hl7.org/CodeSystem/condition-clinical","code":"active","display":"Active"}]},"verificationStatus":{"coding":[{"system":"http://terminology.hl7.org/CodeSystem/condition-ver-status","code":"confirmed","display":"Confirmed"}]},"category":[{"coding":[{"system":"http://terminology.hl7.org/CodeSystem/condition-category","code":"problem-list-item","display":"Problem List Item"}]}],"code":{"coding":[{"system":"http://snomed.info/sct","version":"http://snomed.info/sct/731000124108/version/20240301","code":"991000124109","display":"Severe left ventricular systolic dysfunction (disorder)"}]},"subject":{"reference":"Patient/ab7f5ace-9ac6-4077-bee9-444abeac4f51"},"onsetPeriod":{"start":"2026-03-25T16:00:00.000+00:00","end":"2026-03-30T16:00:00.000+00:00"}},"request":{"method":"PUT","url":"Condition/b199dccb-b5fe-47e5-8fd4-bc87649868a2"}},{"fullUrl":"https://madie.cms.gov/AllergyIntolerance/c7fb137a-ee11-4bed-a30c-a98a5ce084f9","resource":{"resourceType":"AllergyIntolerance","id":"c7fb137a-ee11-4bed-a30c-a98a5ce084f9","meta":{"profile":["http://hl7.org/fhir/us/qicore/StructureDefinition/qicore-allergyintolerance"]},"clinicalStatus":{"coding":[{"system":"http://terminology.hl7.org/CodeSystem/allergyintolerance-clinical","code":"active","display":"Active"}]},"verificationStatus":{"coding":[{"system":"http://terminology.hl7.org/CodeSystem/allergyintolerance-verification","code":"confirmed","display":"Confirmed"}]},"type":"allergy","category":["medication"],"criticality":"high","code":{"coding":[{"system":"http://www.nlm.nih.gov/research/umls/rxnorm","version":"04012024","code":"1091643","display":"azilsartan"}]},"patient":{"reference":"Patient/ab7f5ace-9ac6-4077-bee9-444abeac4f51"},"onsetDateTime":"2005","recordedDate":"2025-09-25T16:00:00.000+00:00"},"request":{"method":"PUT","url":"AllergyIntolerance/c7fb137a-ee11-4bed-a30c-a98a5ce084f9"}},{"fullUrl":"https://madie.cms.gov/MeasureReport/8ccc0787-15ec-45ff-9f9e-6c846dae589b","resource":{"resourceType":"MeasureReport","id":"8ccc0787-15ec-45ff-9f9e-6c846dae589b","meta":{"profile":["http://hl7.org/fhir/us/cqfmeasures/StructureDefinition/test-case-cqfm"]},"contained":[{"resourceType":"Parameters","id":"cdfd59f4-85c1-481c-98bf-d306cfad8cc3-parameters","parameter":[{"name":"subject","valueString":"ab7f5ace-9ac6-4077-bee9-444abeac4f51"}]}],"extension":[{"url":"http://hl7.org/fhir/StructureDefinition/cqf-inputParameters","valueReference":{"reference":"#cdfd59f4-85c1-481c-98bf-d306cfad8cc3-parameters"}},{"url":"http://hl7.org/fhir/us/cqfmeasures/StructureDefinition/cqfm-testCaseDescription","valueMarkdown":"Patient has 2 ambulatory encounters, HF diagnosis and LVSD and meets denominator exception with confirmed allergy to ARB ingredient"}],"modifierExtension":[{"url":"http://hl7.org/fhir/us/cqfmeasures/StructureDefinition/cqfm-isTestCase","valueBoolean":true}],"status":"complete","type":"individual","measure":"https://madie.cms.gov/Measure/CMS135FHIRHFACEIorARBorARNIforLVSD","period":{"start":"2026-01-01","end":"2026-12-31"},"group":[{"id":"Group_1","population":[{"id":"InitialPopulation_1","code":{"coding":[{"system":"http://terminology.hl7.org/CodeSystem/measure-population","code":"initial-population","display":"Initial Population"}]},"count":1},{"id":"Denominator_1","code":{"coding":[{"system":"http://terminology.hl7.org/CodeSystem/measure-population","code":"denominator","display":"Denominator"}]},"count":1},{"id":"DenominatorExclusion_1","code":{"coding":[{"system":"http://terminology.hl7.org/CodeSystem/measure-population","code":"denominator-exclusion","display":"Denominator Exclusion"}]},"count":0},{"id":"Numerator_1","code":{"coding":[{"system":"http://terminology.hl7.org/CodeSystem/measure-population","code":"numerator","display":"Numerator"}]},"count":0},{"id":"DenominatorException_1","code":{"coding":[{"system":"http://terminology.hl7.org/CodeSystem/measure-population","code":"denominator-exception","display":"Denominator Exception"}]},"count":1}],"measureScore":{"value":1.0}}],"evaluatedResource":[{"reference":"Patient/ab7f5ace-9ac6-4077-bee9-444abeac4f51"},{"reference":"Encounter/dd757eb1-9d77-4c25-b897-85b56d3b7e4b"},{"reference":"Encounter/66848a1a-57c5-48e5-a700-aff75b571456"},{"reference":"Condition/a3ec794d-02b6-4762-9f56-db8884a6fdc5"},{"reference":"Condition/b199dccb-b5fe-47e5-8fd4-bc87649868a2"},{"reference":"AllergyIntolerance/c7fb137a-ee11-4bed-a30c-a98a5ce084f9"}]},"request":{"method":"PUT","url":"MeasureReport/8ccc0787-15ec-45ff-9f9e-6c846dae589b"}}]},"request":{"method":"PUT","url":"Bundle/16846435145131487496"}}]}