{"resourceType":"Bundle","id":"tests-e1182b17-1292-4473-bd9e-c70e3846ca0b-bundle","type":"transaction","entry":[{"fullUrl":"Condition/75fb697f-5858-4031-afc8-03ca9cba47e1","resource":{"resourceType":"Condition","id":"75fb697f-5858-4031-afc8-03ca9cba47e1","meta":{"profile":["http://hl7.org/fhir/us/qicore/StructureDefinition/qicore-condition-problems-health-concerns"]},"clinicalStatus":{"coding":[{"system":"http://terminology.hl7.org/CodeSystem/condition-clinical","code":"active","display":"Active"}]},"verificationStatus":{"coding":[{"system":"http://terminology.hl7.org/CodeSystem/condition-ver-status","code":"confirmed","display":"Confirmed"}]},"category":[{"coding":[{"system":"http://terminology.hl7.org/CodeSystem/condition-category","code":"problem-list-item","display":"Problem List Item"}]}],"code":{"coding":[{"system":"http://snomed.info/sct","version":"http://snomed.info/sct/731000124108/version/20240301","code":"991000124109","display":"Severe left ventricular systolic dysfunction (disorder)"}]},"subject":{"reference":"Patient/e1182b17-1292-4473-bd9e-c70e3846ca0b"},"onsetPeriod":{"start":"2026-03-25T16:00:00.000+00:00","end":"2026-03-30T16:00:00.000+00:00"}},"request":{"method":"PUT","url":"Condition/75fb697f-5858-4031-afc8-03ca9cba47e1"}},{"fullUrl":"Bundle/16519416165135165161","resource":{"resourceType":"Bundle","id":"16519416165135165161","type":"transaction","entry":[{"fullUrl":"https://madie.cms.gov/Patient/e1182b17-1292-4473-bd9e-c70e3846ca0b","resource":{"resourceType":"Patient","id":"e1182b17-1292-4473-bd9e-c70e3846ca0b","meta":{"profile":["http://hl7.org/fhir/us/qicore/StructureDefinition/qicore-patient"]},"extension":[{"url":"http://hl7.org/fhir/us/core/StructureDefinition/us-core-race","extension":[{"url":"ombCategory","valueCoding":{"system":"urn:oid:2.16.840.1.113883.6.238","code":"1002-5","display":"American Indian or Alaska Native"}},{"url":"text","valueString":"American Indian or Alaska Native"}]},{"url":"http://hl7.org/fhir/us/core/StructureDefinition/us-core-ethnicity","extension":[{"url":"ombCategory","valueCoding":{"system":"urn:oid:2.16.840.1.113883.6.238","code":"2186-5","display":"Not Hispanic or Latino"}},{"url":"text","valueString":"Not Hispanic or Latino"}]}],"identifier":[{"type":{"coding":[{"system":"http://terminology.hl7.org/CodeSystem/v2-0203","code":"MR"}]},"system":"https://bonnie-fhir.healthit.gov/","value":"431385494631"}],"name":[{"family":"DENEXPass","given":["LVADCmplictnsRecorded"]}],"gender":"male","birthDate":"1969-06-14"},"request":{"method":"PUT","url":"Patient/e1182b17-1292-4473-bd9e-c70e3846ca0b"}},{"fullUrl":"https://madie.cms.gov/Encounter/7ce46fba-6b7e-43dd-9266-e3d7621156f1","resource":{"resourceType":"Encounter","id":"7ce46fba-6b7e-43dd-9266-e3d7621156f1","meta":{"profile":["http://hl7.org/fhir/us/qicore/StructureDefinition/qicore-encounter"]},"status":"finished","class":{"system":"http://terminology.hl7.org/CodeSystem/v3-ActCode","code":"AMB","display":"ambulatory"},"type":[{"coding":[{"system":"http://snomed.info/sct","version":"http://snomed.info/sct/731000124108/version/20240301","code":"281036007","display":"Follow-up consultation (procedure)"}]}],"subject":{"reference":"Patient/e1182b17-1292-4473-bd9e-c70e3846ca0b"},"period":{"start":"2026-03-31T14:40:00.000+00:00","end":"2026-03-31T14:40:00.000+00:00"}},"request":{"method":"PUT","url":"Encounter/7ce46fba-6b7e-43dd-9266-e3d7621156f1"}},{"fullUrl":"https://madie.cms.gov/Encounter/b527350a-decf-4dc0-8148-6994505b3ba7","resource":{"resourceType":"Encounter","id":"b527350a-decf-4dc0-8148-6994505b3ba7","meta":{"profile":["http://hl7.org/fhir/us/qicore/StructureDefinition/qicore-encounter"]},"status":"finished","class":{"system":"http://terminology.hl7.org/CodeSystem/v3-ActCode","code":"AMB","display":"ambulatory"},"type":[{"coding":[{"system":"http://snomed.info/sct","version":"http://snomed.info/sct/731000124108/version/20240301","code":"281036007","display":"Follow-up consultation (procedure)"}]}],"subject":{"reference":"Patient/e1182b17-1292-4473-bd9e-c70e3846ca0b"},"period":{"start":"2026-05-15T11:50:00.000+00:00","end":"2026-05-15T11:50:00.000+00:00"}},"request":{"method":"PUT","url":"Encounter/b527350a-decf-4dc0-8148-6994505b3ba7"}},{"fullUrl":"https://madie.cms.gov/Condition/ac2a825a-4de2-432a-a2c0-0cfa75a3872c","resource":{"resourceType":"Condition","id":"ac2a825a-4de2-432a-a2c0-0cfa75a3872c","meta":{"profile":["http://hl7.org/fhir/us/qicore/StructureDefinition/qicore-condition-problems-health-concerns"]},"clinicalStatus":{"coding":[{"system":"http://terminology.hl7.org/CodeSystem/condition-clinical","code":"active","display":"active"}]},"verificationStatus":{"coding":[{"system":"http://terminology.hl7.org/CodeSystem/condition-ver-status","code":"confirmed","display":"Confirmed"}]},"category":[{"coding":[{"system":"http://terminology.hl7.org/CodeSystem/condition-category","code":"problem-list-item","display":"Problem List Item"}]}],"code":{"coding":[{"system":"http://snomed.info/sct","version":"http://snomed.info/sct/731000124108/version/20240301","code":"10091002","display":"High output heart failure (disorder)"}]},"subject":{"reference":"Patient/e1182b17-1292-4473-bd9e-c70e3846ca0b"},"onsetPeriod":{"start":"2025-05-17T10:00:00.000+00:00"}},"request":{"method":"PUT","url":"Condition/ac2a825a-4de2-432a-a2c0-0cfa75a3872c"}},{"fullUrl":"https://madie.cms.gov/Condition/75fb697f-5858-4031-afc8-03ca9cba47e1","resource":{"resourceType":"Condition","id":"75fb697f-5858-4031-afc8-03ca9cba47e1","meta":{"profile":["http://hl7.org/fhir/us/qicore/StructureDefinition/qicore-condition-problems-health-concerns"]},"clinicalStatus":{"coding":[{"system":"http://terminology.hl7.org/CodeSystem/condition-clinical","code":"active","display":"Active"}]},"verificationStatus":{"coding":[{"system":"http://terminology.hl7.org/CodeSystem/condition-ver-status","code":"confirmed","display":"Confirmed"}]},"category":[{"coding":[{"system":"http://terminology.hl7.org/CodeSystem/condition-category","code":"problem-list-item","display":"Problem List Item"}]}],"code":{"coding":[{"system":"http://snomed.info/sct","version":"http://snomed.info/sct/731000124108/version/20240301","code":"991000124109","display":"Severe left ventricular systolic dysfunction (disorder)"}]},"subject":{"reference":"Patient/e1182b17-1292-4473-bd9e-c70e3846ca0b"},"onsetPeriod":{"start":"2026-03-25T16:00:00.000+00:00","end":"2026-03-30T16:00:00.000+00:00"}},"request":{"method":"PUT","url":"Condition/75fb697f-5858-4031-afc8-03ca9cba47e1"}},{"fullUrl":"https://madie.cms.gov/Procedure/c5a7074d-1c7c-45ad-8464-b30ecb95a4b7","resource":{"resourceType":"Procedure","id":"c5a7074d-1c7c-45ad-8464-b30ecb95a4b7","meta":{"profile":["http://hl7.org/fhir/us/qicore/StructureDefinition/qicore-procedure"]},"extension":[{"url":"http://hl7.org/fhir/us/qicore/StructureDefinition/qicore-recorded","valueDateTime":"2025-09-25T13:00:00.000+00:00"}],"status":"completed","code":{"coding":[{"system":"http://www.ama-assn.org/go/cpt","version":"2024","code":"33976","display":"Insertion of ventricular assist device; extracorporeal, biventricular"}]},"subject":{"reference":"Patient/e1182b17-1292-4473-bd9e-c70e3846ca0b"},"performedPeriod":{"start":"2025-09-25T11:00:00.000+00:00","end":"2025-09-25T12:00:00.000+00:00"}},"request":{"method":"PUT","url":"Procedure/c5a7074d-1c7c-45ad-8464-b30ecb95a4b7"}},{"fullUrl":"https://madie.cms.gov/Condition/571aa52d-ac33-4180-bd19-4cf0d2c39dbb","resource":{"resourceType":"Condition","id":"571aa52d-ac33-4180-bd19-4cf0d2c39dbb","meta":{"profile":["http://hl7.org/fhir/us/qicore/StructureDefinition/qicore-condition-encounter-diagnosis"]},"clinicalStatus":{"coding":[{"system":"http://terminology.hl7.org/CodeSystem/condition-clinical","code":"active","display":"Active"}]},"verificationStatus":{"coding":[{"system":"http://terminology.hl7.org/CodeSystem/condition-ver-status","code":"confirmed","display":"Confirmed"}]},"category":[{"coding":[{"system":"http://terminology.hl7.org/CodeSystem/condition-category","code":"encounter-diagnosis","display":"Encounter Diagnosis"}]}],"code":{"coding":[{"system":"http://snomed.info/sct","version":"http://snomed.info/sct/731000124108/version/20240301","code":"764680009","display":"Infection of left ventricular assist device driveline (disorder)"}]},"subject":{"reference":"Patient/e1182b17-1292-4473-bd9e-c70e3846ca0b"},"recordedDate":"2026-01-14T16:00:00.000+00:00"},"request":{"method":"PUT","url":"Condition/571aa52d-ac33-4180-bd19-4cf0d2c39dbb"}},{"fullUrl":"https://madie.cms.gov/MeasureReport/51f45551-4ce9-4cca-8bf2-7bda26919b57","resource":{"resourceType":"MeasureReport","id":"51f45551-4ce9-4cca-8bf2-7bda26919b57","meta":{"profile":["http://hl7.org/fhir/us/cqfmeasures/StructureDefinition/test-case-cqfm"]},"contained":[{"resourceType":"Parameters","id":"e550eaf7-2aea-4473-a9e1-bc282446cfa5-parameters","parameter":[{"name":"subject","valueString":"e1182b17-1292-4473-bd9e-c70e3846ca0b"}]}],"extension":[{"url":"http://hl7.org/fhir/StructureDefinition/cqf-inputParameters","valueReference":{"reference":"#e550eaf7-2aea-4473-a9e1-bc282446cfa5-parameters"}},{"url":"http://hl7.org/fhir/us/cqfmeasures/StructureDefinition/cqfm-testCaseDescription","valueMarkdown":"Patient has 2 ambulatory encounters, HF diagnosis and LVSD and meets denominator exclusion with history of LVAD complications using recorded time"}],"modifierExtension":[{"url":"http://hl7.org/fhir/us/cqfmeasures/StructureDefinition/cqfm-isTestCase","valueBoolean":true}],"status":"complete","type":"individual","measure":"https://madie.cms.gov/Measure/CMS135FHIRHFACEIorARBorARNIforLVSD","period":{"start":"2026-01-01","end":"2026-12-31"},"group":[{"id":"Group_1","population":[{"id":"InitialPopulation_1","code":{"coding":[{"system":"http://terminology.hl7.org/CodeSystem/measure-population","code":"initial-population","display":"Initial Population"}]},"count":1},{"id":"Denominator_1","code":{"coding":[{"system":"http://terminology.hl7.org/CodeSystem/measure-population","code":"denominator","display":"Denominator"}]},"count":1},{"id":"DenominatorExclusion_1","code":{"coding":[{"system":"http://terminology.hl7.org/CodeSystem/measure-population","code":"denominator-exclusion","display":"Denominator Exclusion"}]},"count":1},{"id":"Numerator_1","code":{"coding":[{"system":"http://terminology.hl7.org/CodeSystem/measure-population","code":"numerator","display":"Numerator"}]},"count":0},{"id":"DenominatorException_1","code":{"coding":[{"system":"http://terminology.hl7.org/CodeSystem/measure-population","code":"denominator-exception","display":"Denominator Exception"}]},"count":0}],"measureScore":{"value":1.0}}],"evaluatedResource":[{"reference":"Patient/e1182b17-1292-4473-bd9e-c70e3846ca0b"},{"reference":"Encounter/7ce46fba-6b7e-43dd-9266-e3d7621156f1"},{"reference":"Encounter/b527350a-decf-4dc0-8148-6994505b3ba7"},{"reference":"Condition/ac2a825a-4de2-432a-a2c0-0cfa75a3872c"},{"reference":"Condition/75fb697f-5858-4031-afc8-03ca9cba47e1"},{"reference":"Procedure/c5a7074d-1c7c-45ad-8464-b30ecb95a4b7"},{"reference":"Condition/571aa52d-ac33-4180-bd19-4cf0d2c39dbb"}]},"request":{"method":"PUT","url":"MeasureReport/51f45551-4ce9-4cca-8bf2-7bda26919b57"}}]},"request":{"method":"PUT","url":"Bundle/16519416165135165161"}},{"fullUrl":"Condition/ac2a825a-4de2-432a-a2c0-0cfa75a3872c","resource":{"resourceType":"Condition","id":"ac2a825a-4de2-432a-a2c0-0cfa75a3872c","meta":{"profile":["http://hl7.org/fhir/us/qicore/StructureDefinition/qicore-condition-problems-health-concerns"]},"clinicalStatus":{"coding":[{"system":"http://terminology.hl7.org/CodeSystem/condition-clinical","code":"active","display":"active"}]},"verificationStatus":{"coding":[{"system":"http://terminology.hl7.org/CodeSystem/condition-ver-status","code":"confirmed","display":"Confirmed"}]},"category":[{"coding":[{"system":"http://terminology.hl7.org/CodeSystem/condition-category","code":"problem-list-item","display":"Problem List Item"}]}],"code":{"coding":[{"system":"http://snomed.info/sct","version":"http://snomed.info/sct/731000124108/version/20240301","code":"10091002","display":"High output heart failure (disorder)"}]},"subject":{"reference":"Patient/e1182b17-1292-4473-bd9e-c70e3846ca0b"},"onsetPeriod":{"start":"2025-05-17T10:00:00.000+00:00"}},"request":{"method":"PUT","url":"Condition/ac2a825a-4de2-432a-a2c0-0cfa75a3872c"}},{"fullUrl":"Patient/e1182b17-1292-4473-bd9e-c70e3846ca0b","resource":{"resourceType":"Patient","id":"e1182b17-1292-4473-bd9e-c70e3846ca0b","meta":{"profile":["http://hl7.org/fhir/us/qicore/StructureDefinition/qicore-patient"]},"extension":[{"url":"http://hl7.org/fhir/us/core/StructureDefinition/us-core-race","extension":[{"url":"ombCategory","valueCoding":{"system":"urn:oid:2.16.840.1.113883.6.238","code":"1002-5","display":"American Indian or Alaska Native"}},{"url":"text","valueString":"American Indian or Alaska Native"}]},{"url":"http://hl7.org/fhir/us/core/StructureDefinition/us-core-ethnicity","extension":[{"url":"ombCategory","valueCoding":{"system":"urn:oid:2.16.840.1.113883.6.238","code":"2186-5","display":"Not Hispanic or Latino"}},{"url":"text","valueString":"Not Hispanic or Latino"}]}],"identifier":[{"type":{"coding":[{"system":"http://terminology.hl7.org/CodeSystem/v2-0203","code":"MR"}]},"system":"https://bonnie-fhir.healthit.gov/","value":"431385494631"}],"name":[{"family":"DENEXPass","given":["LVADCmplictnsRecorded"]}],"gender":"male","birthDate":"1969-06-14"},"request":{"method":"PUT","url":"Patient/e1182b17-1292-4473-bd9e-c70e3846ca0b"}},{"fullUrl":"MeasureReport/51f45551-4ce9-4cca-8bf2-7bda26919b57","resource":{"resourceType":"MeasureReport","id":"51f45551-4ce9-4cca-8bf2-7bda26919b57","meta":{"profile":["http://hl7.org/fhir/us/cqfmeasures/StructureDefinition/test-case-cqfm"]},"contained":[{"resourceType":"Parameters","id":"e550eaf7-2aea-4473-a9e1-bc282446cfa5-parameters","parameter":[{"name":"subject","valueString":"e1182b17-1292-4473-bd9e-c70e3846ca0b"}]}],"extension":[{"url":"http://hl7.org/fhir/StructureDefinition/cqf-inputParameters","valueReference":{"reference":"#e550eaf7-2aea-4473-a9e1-bc282446cfa5-parameters"}},{"url":"http://hl7.org/fhir/us/cqfmeasures/StructureDefinition/cqfm-testCaseDescription","valueMarkdown":"Patient has 2 ambulatory encounters, HF diagnosis and LVSD and meets denominator exclusion with history of LVAD complications using recorded time"}],"modifierExtension":[{"url":"http://hl7.org/fhir/us/cqfmeasures/StructureDefinition/cqfm-isTestCase","valueBoolean":true}],"status":"complete","type":"individual","measure":"https://madie.cms.gov/Measure/CMS135FHIRHFACEIorARBorARNIforLVSD","period":{"start":"2026-01-01","end":"2026-12-31"},"group":[{"id":"Group_1","population":[{"id":"InitialPopulation_1","code":{"coding":[{"system":"http://terminology.hl7.org/CodeSystem/measure-population","code":"initial-population","display":"Initial Population"}]},"count":1},{"id":"Denominator_1","code":{"coding":[{"system":"http://terminology.hl7.org/CodeSystem/measure-population","code":"denominator","display":"Denominator"}]},"count":1},{"id":"DenominatorExclusion_1","code":{"coding":[{"system":"http://terminology.hl7.org/CodeSystem/measure-population","code":"denominator-exclusion","display":"Denominator Exclusion"}]},"count":1},{"id":"Numerator_1","code":{"coding":[{"system":"http://terminology.hl7.org/CodeSystem/measure-population","code":"numerator","display":"Numerator"}]},"count":0},{"id":"DenominatorException_1","code":{"coding":[{"system":"http://terminology.hl7.org/CodeSystem/measure-population","code":"denominator-exception","display":"Denominator Exception"}]},"count":0}],"measureScore":{"value":1.0}}],"evaluatedResource":[{"reference":"Patient/e1182b17-1292-4473-bd9e-c70e3846ca0b"},{"reference":"Encounter/7ce46fba-6b7e-43dd-9266-e3d7621156f1"},{"reference":"Encounter/b527350a-decf-4dc0-8148-6994505b3ba7"},{"reference":"Condition/ac2a825a-4de2-432a-a2c0-0cfa75a3872c"},{"reference":"Condition/75fb697f-5858-4031-afc8-03ca9cba47e1"},{"reference":"Procedure/c5a7074d-1c7c-45ad-8464-b30ecb95a4b7"},{"reference":"Condition/571aa52d-ac33-4180-bd19-4cf0d2c39dbb"}]},"request":{"method":"PUT","url":"MeasureReport/51f45551-4ce9-4cca-8bf2-7bda26919b57"}},{"fullUrl":"Encounter/b527350a-decf-4dc0-8148-6994505b3ba7","resource":{"resourceType":"Encounter","id":"b527350a-decf-4dc0-8148-6994505b3ba7","meta":{"profile":["http://hl7.org/fhir/us/qicore/StructureDefinition/qicore-encounter"]},"status":"finished","class":{"system":"http://terminology.hl7.org/CodeSystem/v3-ActCode","code":"AMB","display":"ambulatory"},"type":[{"coding":[{"system":"http://snomed.info/sct","version":"http://snomed.info/sct/731000124108/version/20240301","code":"281036007","display":"Follow-up consultation (procedure)"}]}],"subject":{"reference":"Patient/e1182b17-1292-4473-bd9e-c70e3846ca0b"},"period":{"start":"2026-05-15T11:50:00.000+00:00","end":"2026-05-15T11:50:00.000+00:00"}},"request":{"method":"PUT","url":"Encounter/b527350a-decf-4dc0-8148-6994505b3ba7"}},{"fullUrl":"Procedure/c5a7074d-1c7c-45ad-8464-b30ecb95a4b7","resource":{"resourceType":"Procedure","id":"c5a7074d-1c7c-45ad-8464-b30ecb95a4b7","meta":{"profile":["http://hl7.org/fhir/us/qicore/StructureDefinition/qicore-procedure"]},"extension":[{"url":"http://hl7.org/fhir/us/qicore/StructureDefinition/qicore-recorded","valueDateTime":"2025-09-25T13:00:00.000+00:00"}],"status":"completed","code":{"coding":[{"system":"http://www.ama-assn.org/go/cpt","version":"2024","code":"33976","display":"Insertion of ventricular assist device; extracorporeal, biventricular"}]},"subject":{"reference":"Patient/e1182b17-1292-4473-bd9e-c70e3846ca0b"},"performedPeriod":{"start":"2025-09-25T11:00:00.000+00:00","end":"2025-09-25T12:00:00.000+00:00"}},"request":{"method":"PUT","url":"Procedure/c5a7074d-1c7c-45ad-8464-b30ecb95a4b7"}},{"fullUrl":"Condition/571aa52d-ac33-4180-bd19-4cf0d2c39dbb","resource":{"resourceType":"Condition","id":"571aa52d-ac33-4180-bd19-4cf0d2c39dbb","meta":{"profile":["http://hl7.org/fhir/us/qicore/StructureDefinition/qicore-condition-encounter-diagnosis"]},"clinicalStatus":{"coding":[{"system":"http://terminology.hl7.org/CodeSystem/condition-clinical","code":"active","display":"Active"}]},"verificationStatus":{"coding":[{"system":"http://terminology.hl7.org/CodeSystem/condition-ver-status","code":"confirmed","display":"Confirmed"}]},"category":[{"coding":[{"system":"http://terminology.hl7.org/CodeSystem/condition-category","code":"encounter-diagnosis","display":"Encounter Diagnosis"}]}],"code":{"coding":[{"system":"http://snomed.info/sct","version":"http://snomed.info/sct/731000124108/version/20240301","code":"764680009","display":"Infection of left ventricular assist device driveline (disorder)"}]},"subject":{"reference":"Patient/e1182b17-1292-4473-bd9e-c70e3846ca0b"},"recordedDate":"2026-01-14T16:00:00.000+00:00"},"request":{"method":"PUT","url":"Condition/571aa52d-ac33-4180-bd19-4cf0d2c39dbb"}},{"fullUrl":"Encounter/7ce46fba-6b7e-43dd-9266-e3d7621156f1","resource":{"resourceType":"Encounter","id":"7ce46fba-6b7e-43dd-9266-e3d7621156f1","meta":{"profile":["http://hl7.org/fhir/us/qicore/StructureDefinition/qicore-encounter"]},"status":"finished","class":{"system":"http://terminology.hl7.org/CodeSystem/v3-ActCode","code":"AMB","display":"ambulatory"},"type":[{"coding":[{"system":"http://snomed.info/sct","version":"http://snomed.info/sct/731000124108/version/20240301","code":"281036007","display":"Follow-up consultation (procedure)"}]}],"subject":{"reference":"Patient/e1182b17-1292-4473-bd9e-c70e3846ca0b"},"period":{"start":"2026-03-31T14:40:00.000+00:00","end":"2026-03-31T14:40:00.000+00:00"}},"request":{"method":"PUT","url":"Encounter/7ce46fba-6b7e-43dd-9266-e3d7621156f1"}}]}