{"resourceType":"Bundle","id":"tests-3a4004a0-b352-488d-8c18-8fd023308646-bundle","type":"transaction","entry":[{"resource":{"resourceType":"Condition","id":"33a86ba4-fef9-40bb-9875-b77f3f2120b8","meta":{"profile":["http://hl7.org/fhir/us/qicore/StructureDefinition/qicore-condition-problems-health-concerns"]},"clinicalStatus":{"coding":[{"system":"http://terminology.hl7.org/CodeSystem/condition-clinical","code":"active","display":"active"}]},"verificationStatus":{"coding":[{"system":"http://terminology.hl7.org/CodeSystem/condition-ver-status","code":"confirmed","display":"Confirmed"}]},"category":[{"coding":[{"system":"http://terminology.hl7.org/CodeSystem/condition-category","code":"problem-list-item","display":"Problem List Item"}]}],"code":{"coding":[{"system":"http://snomed.info/sct","version":"http://snomed.info/sct/731000124108/version/20240301","code":"10091002","display":"High output heart failure (disorder)"}]},"subject":{"reference":"Patient/3a4004a0-b352-488d-8c18-8fd023308646"},"onsetPeriod":{"start":"2025-05-17T10:00:00.000+00:00"}},"request":{"method":"PUT","url":"Condition/33a86ba4-fef9-40bb-9875-b77f3f2120b8"}},{"resource":{"resourceType":"Condition","id":"5477f165-d971-443a-ad09-11474ba0e1ad","meta":{"profile":["http://hl7.org/fhir/us/qicore/StructureDefinition/qicore-condition-problems-health-concerns"]},"clinicalStatus":{"coding":[{"system":"http://terminology.hl7.org/CodeSystem/condition-clinical","code":"active","display":"Active"}]},"verificationStatus":{"coding":[{"system":"http://terminology.hl7.org/CodeSystem/condition-ver-status","code":"confirmed","display":"Confirmed"}]},"category":[{"coding":[{"system":"http://terminology.hl7.org/CodeSystem/condition-category","code":"problem-list-item","display":"Problem List Item"}]}],"code":{"coding":[{"system":"http://snomed.info/sct","version":"http://snomed.info/sct/731000124108/version/20240301","code":"429257001","display":"Disorder of transplanted heart (disorder)"}]},"subject":{"reference":"Patient/3a4004a0-b352-488d-8c18-8fd023308646"},"recordedDate":"2025-09-25T16:00:00.000+00:00"},"request":{"method":"PUT","url":"Condition/5477f165-d971-443a-ad09-11474ba0e1ad"}},{"resource":{"resourceType":"Encounter","id":"b837a0e5-469b-45cc-8b02-c10228755b84","meta":{"profile":["http://hl7.org/fhir/us/qicore/StructureDefinition/qicore-encounter"]},"status":"finished","class":{"system":"http://terminology.hl7.org/CodeSystem/v3-ActCode","code":"AMB","display":"ambulatory"},"type":[{"coding":[{"system":"http://snomed.info/sct","version":"http://snomed.info/sct/731000124108/version/20240301","code":"18170008","display":"Subsequent nursing facility visit (procedure)"}]}],"subject":{"reference":"Patient/3a4004a0-b352-488d-8c18-8fd023308646"},"period":{"start":"2026-03-31T14:40:00.000+00:00","end":"2026-03-31T14:40:00.000+00:00"}},"request":{"method":"PUT","url":"Encounter/b837a0e5-469b-45cc-8b02-c10228755b84"}},{"resource":{"resourceType":"Patient","id":"3a4004a0-b352-488d-8c18-8fd023308646","meta":{"profile":["http://hl7.org/fhir/us/qicore/StructureDefinition/qicore-patient"]},"extension":[{"url":"http://hl7.org/fhir/us/core/StructureDefinition/us-core-race","extension":[{"url":"ombCategory","valueCoding":{"system":"urn:oid:2.16.840.1.113883.6.238","code":"1002-5","display":"American Indian or Alaska Native"}},{"url":"text","valueString":"American Indian or Alaska Native"}]},{"url":"http://hl7.org/fhir/us/core/StructureDefinition/us-core-ethnicity","extension":[{"url":"ombCategory","valueCoding":{"system":"urn:oid:2.16.840.1.113883.6.238","code":"2186-5","display":"Not Hispanic or Latino"}},{"url":"text","valueString":"Not Hispanic or Latino"}]},{"url":"http://hl7.org/fhir/us/core/StructureDefinition/us-core-sex","valueCode":"248153007"}],"identifier":[{"type":{"coding":[{"system":"http://terminology.hl7.org/CodeSystem/v2-0203","code":"MR"}]},"system":"https://bonnie-fhir.healthit.gov/","value":"431385494631"}],"name":[{"family":"DENEXPass","given":["HrtTransplComplictnsRecorded"]}],"gender":"male","birthDate":"1969-06-14"},"request":{"method":"PUT","url":"Patient/3a4004a0-b352-488d-8c18-8fd023308646"}},{"resource":{"resourceType":"Condition","id":"3dae5e7d-4766-4668-b6ce-6154bcf3a5c4","meta":{"profile":["http://hl7.org/fhir/us/qicore/StructureDefinition/qicore-condition-problems-health-concerns"]},"clinicalStatus":{"coding":[{"system":"http://terminology.hl7.org/CodeSystem/condition-clinical","code":"active","display":"Active"}]},"verificationStatus":{"coding":[{"system":"http://terminology.hl7.org/CodeSystem/condition-ver-status","code":"confirmed","display":"Confirmed"}]},"category":[{"coding":[{"system":"http://terminology.hl7.org/CodeSystem/condition-category","code":"problem-list-item","display":"Problem List Item"}]}],"code":{"coding":[{"system":"http://snomed.info/sct","version":"http://snomed.info/sct/731000124108/version/20240301","code":"991000124109","display":"Severe left ventricular systolic dysfunction (disorder)"}]},"subject":{"reference":"Patient/3a4004a0-b352-488d-8c18-8fd023308646"},"onsetPeriod":{"start":"2026-03-25T16:00:00.000+00:00","end":"2026-03-30T16:00:00.000+00:00"}},"request":{"method":"PUT","url":"Condition/3dae5e7d-4766-4668-b6ce-6154bcf3a5c4"}},{"resource":{"resourceType":"Encounter","id":"5b5f4312-f067-4d95-a774-bbda769e146b","meta":{"profile":["http://hl7.org/fhir/us/qicore/StructureDefinition/qicore-encounter"]},"status":"finished","class":{"system":"http://terminology.hl7.org/CodeSystem/v3-ActCode","code":"AMB","display":"ambulatory"},"type":[{"coding":[{"system":"http://snomed.info/sct","version":"http://snomed.info/sct/731000124108/version/20240301","code":"185466002","display":"Home visit for urgent condition (procedure)"}]}],"subject":{"reference":"Patient/3a4004a0-b352-488d-8c18-8fd023308646"},"period":{"start":"2026-05-15T11:50:00.000+00:00","end":"2026-05-15T11:50:00.000+00:00"}},"request":{"method":"PUT","url":"Encounter/5b5f4312-f067-4d95-a774-bbda769e146b"}},{"resource":{"resourceType":"MeasureReport","id":"3ece9527-9650-45cb-b581-5e05ffb9343a","meta":{"profile":["http://hl7.org/fhir/us/cqfmeasures/StructureDefinition/test-case-cqfm"]},"contained":[{"resourceType":"Parameters","id":"b390946c-9bc8-4646-bf1f-2284376ae312-parameters","parameter":[{"name":"subject","valueString":"3a4004a0-b352-488d-8c18-8fd023308646"}]}],"extension":[{"url":"http://hl7.org/fhir/StructureDefinition/cqf-inputParameters","valueReference":{"reference":"#b390946c-9bc8-4646-bf1f-2284376ae312-parameters"}},{"url":"http://hl7.org/fhir/us/cqfmeasures/StructureDefinition/cqfm-testCaseDescription","valueMarkdown":"Patient with HF and LVSD encounters not prescribed ACE/ARB medication qualifies for denominator exclusion with Heart Transplant Complication history (using recorded time)."}],"modifierExtension":[{"url":"http://hl7.org/fhir/us/cqfmeasures/StructureDefinition/cqfm-isTestCase","valueBoolean":true}],"status":"complete","type":"individual","measure":"https://madie.cms.gov/Measure/CMS135FHIRHFACEIorARBorARNIforLVSD","period":{"start":"2026-01-01","end":"2026-12-31"},"group":[{"id":"Group_1","population":[{"id":"InitialPopulation_1","code":{"coding":[{"system":"http://terminology.hl7.org/CodeSystem/measure-population","code":"initial-population","display":"Initial Population"}]},"count":1},{"id":"Denominator_1","code":{"coding":[{"system":"http://terminology.hl7.org/CodeSystem/measure-population","code":"denominator","display":"Denominator"}]},"count":1},{"id":"DenominatorExclusion_1","code":{"coding":[{"system":"http://terminology.hl7.org/CodeSystem/measure-population","code":"denominator-exclusion","display":"Denominator Exclusion"}]},"count":1},{"id":"Numerator_1","code":{"coding":[{"system":"http://terminology.hl7.org/CodeSystem/measure-population","code":"numerator","display":"Numerator"}]},"count":0},{"id":"DenominatorException_1","code":{"coding":[{"system":"http://terminology.hl7.org/CodeSystem/measure-population","code":"denominator-exception","display":"Denominator Exception"}]},"count":0}],"measureScore":{"value":1.0}}],"evaluatedResource":[{"reference":"Patient/3a4004a0-b352-488d-8c18-8fd023308646"},{"reference":"Encounter/b837a0e5-469b-45cc-8b02-c10228755b84"},{"reference":"Encounter/5b5f4312-f067-4d95-a774-bbda769e146b"},{"reference":"Condition/33a86ba4-fef9-40bb-9875-b77f3f2120b8"},{"reference":"Condition/3dae5e7d-4766-4668-b6ce-6154bcf3a5c4"},{"reference":"Condition/5477f165-d971-443a-ad09-11474ba0e1ad"}]},"request":{"method":"PUT","url":"MeasureReport/3ece9527-9650-45cb-b581-5e05ffb9343a"}},{"resource":{"resourceType":"Bundle","id":"13546816516131315","type":"transaction","entry":[{"fullUrl":"https://madie.cms.gov/Patient/3a4004a0-b352-488d-8c18-8fd023308646","resource":{"resourceType":"Patient","id":"3a4004a0-b352-488d-8c18-8fd023308646","meta":{"profile":["http://hl7.org/fhir/us/qicore/StructureDefinition/qicore-patient"]},"extension":[{"url":"http://hl7.org/fhir/us/core/StructureDefinition/us-core-race","extension":[{"url":"ombCategory","valueCoding":{"system":"urn:oid:2.16.840.1.113883.6.238","code":"1002-5","display":"American Indian or Alaska Native"}},{"url":"text","valueString":"American Indian or Alaska Native"}]},{"url":"http://hl7.org/fhir/us/core/StructureDefinition/us-core-ethnicity","extension":[{"url":"ombCategory","valueCoding":{"system":"urn:oid:2.16.840.1.113883.6.238","code":"2186-5","display":"Not Hispanic or Latino"}},{"url":"text","valueString":"Not Hispanic or Latino"}]},{"url":"http://hl7.org/fhir/us/core/StructureDefinition/us-core-sex","valueCode":"248153007"}],"identifier":[{"type":{"coding":[{"system":"http://terminology.hl7.org/CodeSystem/v2-0203","code":"MR"}]},"system":"https://bonnie-fhir.healthit.gov/","value":"431385494631"}],"name":[{"family":"DENEXPass","given":["HrtTransplComplictnsRecorded"]}],"gender":"male","birthDate":"1969-06-14"},"request":{"method":"PUT","url":"Patient/3a4004a0-b352-488d-8c18-8fd023308646"}},{"fullUrl":"https://madie.cms.gov/Encounter/b837a0e5-469b-45cc-8b02-c10228755b84","resource":{"resourceType":"Encounter","id":"b837a0e5-469b-45cc-8b02-c10228755b84","meta":{"profile":["http://hl7.org/fhir/us/qicore/StructureDefinition/qicore-encounter"]},"status":"finished","class":{"system":"http://terminology.hl7.org/CodeSystem/v3-ActCode","code":"AMB","display":"ambulatory"},"type":[{"coding":[{"system":"http://snomed.info/sct","version":"http://snomed.info/sct/731000124108/version/20240301","code":"18170008","display":"Subsequent nursing facility visit (procedure)"}]}],"subject":{"reference":"Patient/3a4004a0-b352-488d-8c18-8fd023308646"},"period":{"start":"2026-03-31T14:40:00.000+00:00","end":"2026-03-31T14:40:00.000+00:00"}},"request":{"method":"PUT","url":"Encounter/b837a0e5-469b-45cc-8b02-c10228755b84"}},{"fullUrl":"https://madie.cms.gov/Encounter/5b5f4312-f067-4d95-a774-bbda769e146b","resource":{"resourceType":"Encounter","id":"5b5f4312-f067-4d95-a774-bbda769e146b","meta":{"profile":["http://hl7.org/fhir/us/qicore/StructureDefinition/qicore-encounter"]},"status":"finished","class":{"system":"http://terminology.hl7.org/CodeSystem/v3-ActCode","code":"AMB","display":"ambulatory"},"type":[{"coding":[{"system":"http://snomed.info/sct","version":"http://snomed.info/sct/731000124108/version/20240301","code":"185466002","display":"Home visit for urgent condition (procedure)"}]}],"subject":{"reference":"Patient/3a4004a0-b352-488d-8c18-8fd023308646"},"period":{"start":"2026-05-15T11:50:00.000+00:00","end":"2026-05-15T11:50:00.000+00:00"}},"request":{"method":"PUT","url":"Encounter/5b5f4312-f067-4d95-a774-bbda769e146b"}},{"fullUrl":"https://madie.cms.gov/Condition/33a86ba4-fef9-40bb-9875-b77f3f2120b8","resource":{"resourceType":"Condition","id":"33a86ba4-fef9-40bb-9875-b77f3f2120b8","meta":{"profile":["http://hl7.org/fhir/us/qicore/StructureDefinition/qicore-condition-problems-health-concerns"]},"clinicalStatus":{"coding":[{"system":"http://terminology.hl7.org/CodeSystem/condition-clinical","code":"active","display":"active"}]},"verificationStatus":{"coding":[{"system":"http://terminology.hl7.org/CodeSystem/condition-ver-status","code":"confirmed","display":"Confirmed"}]},"category":[{"coding":[{"system":"http://terminology.hl7.org/CodeSystem/condition-category","code":"problem-list-item","display":"Problem List Item"}]}],"code":{"coding":[{"system":"http://snomed.info/sct","version":"http://snomed.info/sct/731000124108/version/20240301","code":"10091002","display":"High output heart failure (disorder)"}]},"subject":{"reference":"Patient/3a4004a0-b352-488d-8c18-8fd023308646"},"onsetPeriod":{"start":"2025-05-17T10:00:00.000+00:00"}},"request":{"method":"PUT","url":"Condition/33a86ba4-fef9-40bb-9875-b77f3f2120b8"}},{"fullUrl":"https://madie.cms.gov/Condition/3dae5e7d-4766-4668-b6ce-6154bcf3a5c4","resource":{"resourceType":"Condition","id":"3dae5e7d-4766-4668-b6ce-6154bcf3a5c4","meta":{"profile":["http://hl7.org/fhir/us/qicore/StructureDefinition/qicore-condition-problems-health-concerns"]},"clinicalStatus":{"coding":[{"system":"http://terminology.hl7.org/CodeSystem/condition-clinical","code":"active","display":"Active"}]},"verificationStatus":{"coding":[{"system":"http://terminology.hl7.org/CodeSystem/condition-ver-status","code":"confirmed","display":"Confirmed"}]},"category":[{"coding":[{"system":"http://terminology.hl7.org/CodeSystem/condition-category","code":"problem-list-item","display":"Problem List Item"}]}],"code":{"coding":[{"system":"http://snomed.info/sct","version":"http://snomed.info/sct/731000124108/version/20240301","code":"991000124109","display":"Severe left ventricular systolic dysfunction (disorder)"}]},"subject":{"reference":"Patient/3a4004a0-b352-488d-8c18-8fd023308646"},"onsetPeriod":{"start":"2026-03-25T16:00:00.000+00:00","end":"2026-03-30T16:00:00.000+00:00"}},"request":{"method":"PUT","url":"Condition/3dae5e7d-4766-4668-b6ce-6154bcf3a5c4"}},{"fullUrl":"https://madie.cms.gov/Condition/5477f165-d971-443a-ad09-11474ba0e1ad","resource":{"resourceType":"Condition","id":"5477f165-d971-443a-ad09-11474ba0e1ad","meta":{"profile":["http://hl7.org/fhir/us/qicore/StructureDefinition/qicore-condition-problems-health-concerns"]},"clinicalStatus":{"coding":[{"system":"http://terminology.hl7.org/CodeSystem/condition-clinical","code":"active","display":"Active"}]},"verificationStatus":{"coding":[{"system":"http://terminology.hl7.org/CodeSystem/condition-ver-status","code":"confirmed","display":"Confirmed"}]},"category":[{"coding":[{"system":"http://terminology.hl7.org/CodeSystem/condition-category","code":"problem-list-item","display":"Problem List Item"}]}],"code":{"coding":[{"system":"http://snomed.info/sct","version":"http://snomed.info/sct/731000124108/version/20240301","code":"429257001","display":"Disorder of transplanted heart (disorder)"}]},"subject":{"reference":"Patient/3a4004a0-b352-488d-8c18-8fd023308646"},"recordedDate":"2025-09-25T16:00:00.000+00:00"},"request":{"method":"PUT","url":"Condition/5477f165-d971-443a-ad09-11474ba0e1ad"}},{"fullUrl":"https://madie.cms.gov/MeasureReport/3ece9527-9650-45cb-b581-5e05ffb9343a","resource":{"resourceType":"MeasureReport","id":"3ece9527-9650-45cb-b581-5e05ffb9343a","meta":{"profile":["http://hl7.org/fhir/us/cqfmeasures/StructureDefinition/test-case-cqfm"]},"contained":[{"resourceType":"Parameters","id":"b390946c-9bc8-4646-bf1f-2284376ae312-parameters","parameter":[{"name":"subject","valueString":"3a4004a0-b352-488d-8c18-8fd023308646"}]}],"extension":[{"url":"http://hl7.org/fhir/StructureDefinition/cqf-inputParameters","valueReference":{"reference":"#b390946c-9bc8-4646-bf1f-2284376ae312-parameters"}},{"url":"http://hl7.org/fhir/us/cqfmeasures/StructureDefinition/cqfm-testCaseDescription","valueMarkdown":"Patient with HF and LVSD encounters not prescribed ACE/ARB medication qualifies for denominator exclusion with Heart Transplant Complication history (using recorded time)."}],"modifierExtension":[{"url":"http://hl7.org/fhir/us/cqfmeasures/StructureDefinition/cqfm-isTestCase","valueBoolean":true}],"status":"complete","type":"individual","measure":"https://madie.cms.gov/Measure/CMS135FHIRHFACEIorARBorARNIforLVSD","period":{"start":"2026-01-01","end":"2026-12-31"},"group":[{"id":"Group_1","population":[{"id":"InitialPopulation_1","code":{"coding":[{"system":"http://terminology.hl7.org/CodeSystem/measure-population","code":"initial-population","display":"Initial Population"}]},"count":1},{"id":"Denominator_1","code":{"coding":[{"system":"http://terminology.hl7.org/CodeSystem/measure-population","code":"denominator","display":"Denominator"}]},"count":1},{"id":"DenominatorExclusion_1","code":{"coding":[{"system":"http://terminology.hl7.org/CodeSystem/measure-population","code":"denominator-exclusion","display":"Denominator Exclusion"}]},"count":1},{"id":"Numerator_1","code":{"coding":[{"system":"http://terminology.hl7.org/CodeSystem/measure-population","code":"numerator","display":"Numerator"}]},"count":0},{"id":"DenominatorException_1","code":{"coding":[{"system":"http://terminology.hl7.org/CodeSystem/measure-population","code":"denominator-exception","display":"Denominator Exception"}]},"count":0}],"measureScore":{"value":1.0}}],"evaluatedResource":[{"reference":"Patient/3a4004a0-b352-488d-8c18-8fd023308646"},{"reference":"Encounter/b837a0e5-469b-45cc-8b02-c10228755b84"},{"reference":"Encounter/5b5f4312-f067-4d95-a774-bbda769e146b"},{"reference":"Condition/33a86ba4-fef9-40bb-9875-b77f3f2120b8"},{"reference":"Condition/3dae5e7d-4766-4668-b6ce-6154bcf3a5c4"},{"reference":"Condition/5477f165-d971-443a-ad09-11474ba0e1ad"}]},"request":{"method":"PUT","url":"MeasureReport/3ece9527-9650-45cb-b581-5e05ffb9343a"}}]},"request":{"method":"PUT","url":"Bundle/13546816516131315"}}]}