{"resourceType":"Bundle","id":"tests-64e76766-9760-4385-a977-cbe8136ce425-bundle","type":"transaction","entry":[{"fullUrl":"Encounter/31e6f48c-c41d-4b6a-84e2-77b7ab9833e9","resource":{"resourceType":"Encounter","id":"31e6f48c-c41d-4b6a-84e2-77b7ab9833e9","meta":{"profile":["http://hl7.org/fhir/us/qicore/StructureDefinition/qicore-encounter"]},"status":"finished","class":{"system":"http://terminology.hl7.org/CodeSystem/v3-ActCode","code":"AMB","display":"ambulatory"},"type":[{"coding":[{"system":"http://snomed.info/sct","version":"http://snomed.info/sct/731000124108/version/20240301","code":"185463005","display":"Visit out of hours (procedure)"}]}],"subject":{"reference":"Patient/64e76766-9760-4385-a977-cbe8136ce425"},"period":{"start":"2026-03-01T08:00:00.000+00:00","end":"2026-03-01T08:15:00.000+00:00"}},"request":{"method":"PUT","url":"Encounter/31e6f48c-c41d-4b6a-84e2-77b7ab9833e9"}},{"fullUrl":"Condition/925654c8-8d05-4439-b25c-9d50c96fb331","resource":{"resourceType":"Condition","id":"925654c8-8d05-4439-b25c-9d50c96fb331","meta":{"profile":["http://hl7.org/fhir/us/qicore/StructureDefinition/qicore-condition-problems-health-concerns"]},"clinicalStatus":{"coding":[{"system":"http://terminology.hl7.org/CodeSystem/condition-clinical","code":"active","display":"Active"}]},"verificationStatus":{"coding":[{"system":"http://terminology.hl7.org/CodeSystem/condition-ver-status","code":"confirmed","display":"Confirmed"}]},"category":[{"coding":[{"system":"http://terminology.hl7.org/CodeSystem/condition-category","code":"problem-list-item","display":"Problem List Item"}]}],"severity":{"coding":[{"system":"http://snomed.info/sct","version":"http://snomed.info/sct/731000124108/version/20240301","code":"24484000","display":"Severe (severity modifier) (qualifier value)"}]},"code":{"coding":[{"system":"http://snomed.info/sct","version":"http://snomed.info/sct/731000124108/version/20240301","code":"134401001","display":"Left ventricular systolic dysfunction (disorder)"}]},"subject":{"reference":"Patient/64e76766-9760-4385-a977-cbe8136ce425"},"onsetPeriod":{"start":"2026-02-03T08:00:00.000+00:00","end":"2026-02-03T08:15:00.000+00:00"}},"request":{"method":"PUT","url":"Condition/925654c8-8d05-4439-b25c-9d50c96fb331"}},{"fullUrl":"Patient/64e76766-9760-4385-a977-cbe8136ce425","resource":{"resourceType":"Patient","id":"64e76766-9760-4385-a977-cbe8136ce425","meta":{"profile":["http://hl7.org/fhir/us/qicore/StructureDefinition/qicore-patient"]},"extension":[{"url":"http://hl7.org/fhir/us/core/StructureDefinition/us-core-race","extension":[{"url":"ombCategory","valueCoding":{"system":"urn:oid:2.16.840.1.113883.6.238","code":"1002-5","display":"American Indian or Alaska Native"}},{"url":"text","valueString":"American Indian or Alaska Native"}]},{"url":"http://hl7.org/fhir/us/core/StructureDefinition/us-core-ethnicity","extension":[{"url":"ombCategory","valueCoding":{"system":"urn:oid:2.16.840.1.113883.6.238","code":"2135-2","display":"Hispanic or Latino"}},{"url":"text","valueString":"Hispanic or Latino"}]}],"identifier":[{"type":{"coding":[{"system":"http://terminology.hl7.org/CodeSystem/v2-0203","code":"MR"}]},"system":"https://bonnie-fhir.healthit.gov/","value":"684613134613"}],"name":[{"family":"DENEXCEPPass","given":["PatientDeclinedAceArb"]}],"gender":"male","birthDate":"1982-01-01"},"request":{"method":"PUT","url":"Patient/64e76766-9760-4385-a977-cbe8136ce425"}},{"fullUrl":"Bundle/84646413549681387135165","resource":{"resourceType":"Bundle","id":"84646413549681387135165","type":"transaction","entry":[{"fullUrl":"https://madie.cms.gov/Patient/64e76766-9760-4385-a977-cbe8136ce425","resource":{"resourceType":"Patient","id":"64e76766-9760-4385-a977-cbe8136ce425","meta":{"profile":["http://hl7.org/fhir/us/qicore/StructureDefinition/qicore-patient"]},"extension":[{"url":"http://hl7.org/fhir/us/core/StructureDefinition/us-core-race","extension":[{"url":"ombCategory","valueCoding":{"system":"urn:oid:2.16.840.1.113883.6.238","code":"1002-5","display":"American Indian or Alaska Native"}},{"url":"text","valueString":"American Indian or Alaska Native"}]},{"url":"http://hl7.org/fhir/us/core/StructureDefinition/us-core-ethnicity","extension":[{"url":"ombCategory","valueCoding":{"system":"urn:oid:2.16.840.1.113883.6.238","code":"2135-2","display":"Hispanic or Latino"}},{"url":"text","valueString":"Hispanic or Latino"}]}],"identifier":[{"type":{"coding":[{"system":"http://terminology.hl7.org/CodeSystem/v2-0203","code":"MR"}]},"system":"https://bonnie-fhir.healthit.gov/","value":"684613134613"}],"name":[{"family":"DENEXCEPPass","given":["PatientDeclinedAceArb"]}],"gender":"male","birthDate":"1982-01-01"},"request":{"method":"PUT","url":"Patient/64e76766-9760-4385-a977-cbe8136ce425"}},{"fullUrl":"https://madie.cms.gov/Encounter/d0aeddf8-4f57-4409-866a-d62d905b7c63","resource":{"resourceType":"Encounter","id":"d0aeddf8-4f57-4409-866a-d62d905b7c63","meta":{"profile":["http://hl7.org/fhir/us/qicore/StructureDefinition/qicore-encounter"]},"status":"finished","class":{"system":"http://terminology.hl7.org/CodeSystem/v3-ActCode","code":"AMB","display":"ambulatory"},"type":[{"coding":[{"system":"http://snomed.info/sct","version":"http://snomed.info/sct/731000124108/version/20240301","code":"185463005","display":"Visit out of hours (procedure)"}]}],"subject":{"reference":"Patient/64e76766-9760-4385-a977-cbe8136ce425"},"period":{"start":"2026-02-03T08:00:00.000+00:00","end":"2026-02-03T08:15:00.000+00:00"}},"request":{"method":"PUT","url":"Encounter/d0aeddf8-4f57-4409-866a-d62d905b7c63"}},{"fullUrl":"https://madie.cms.gov/Encounter/31e6f48c-c41d-4b6a-84e2-77b7ab9833e9","resource":{"resourceType":"Encounter","id":"31e6f48c-c41d-4b6a-84e2-77b7ab9833e9","meta":{"profile":["http://hl7.org/fhir/us/qicore/StructureDefinition/qicore-encounter"]},"status":"finished","class":{"system":"http://terminology.hl7.org/CodeSystem/v3-ActCode","code":"AMB","display":"ambulatory"},"type":[{"coding":[{"system":"http://snomed.info/sct","version":"http://snomed.info/sct/731000124108/version/20240301","code":"185463005","display":"Visit out of hours (procedure)"}]}],"subject":{"reference":"Patient/64e76766-9760-4385-a977-cbe8136ce425"},"period":{"start":"2026-03-01T08:00:00.000+00:00","end":"2026-03-01T08:15:00.000+00:00"}},"request":{"method":"PUT","url":"Encounter/31e6f48c-c41d-4b6a-84e2-77b7ab9833e9"}},{"fullUrl":"https://madie.cms.gov/Condition/9e4ee8b6-27c9-49c7-bd15-a5a179078f89","resource":{"resourceType":"Condition","id":"9e4ee8b6-27c9-49c7-bd15-a5a179078f89","meta":{"profile":["http://hl7.org/fhir/us/qicore/StructureDefinition/qicore-condition-problems-health-concerns"]},"clinicalStatus":{"coding":[{"system":"http://terminology.hl7.org/CodeSystem/condition-clinical","code":"active","display":"Active"}]},"verificationStatus":{"coding":[{"system":"http://terminology.hl7.org/CodeSystem/condition-ver-status","code":"confirmed","display":"Confirmed"}]},"category":[{"coding":[{"system":"http://terminology.hl7.org/CodeSystem/condition-category","code":"problem-list-item","display":"Problem List Item"}]}],"code":{"coding":[{"system":"http://snomed.info/sct","version":"http://snomed.info/sct/731000124108/version/20240301","code":"10091002","display":"High output heart failure (disorder)"}]},"subject":{"reference":"Patient/64e76766-9760-4385-a977-cbe8136ce425"},"onsetPeriod":{"start":"2026-02-03T08:00:00.000+00:00","end":"2026-02-03T08:15:00.000+00:00"}},"request":{"method":"PUT","url":"Condition/9e4ee8b6-27c9-49c7-bd15-a5a179078f89"}},{"fullUrl":"https://madie.cms.gov/Condition/925654c8-8d05-4439-b25c-9d50c96fb331","resource":{"resourceType":"Condition","id":"925654c8-8d05-4439-b25c-9d50c96fb331","meta":{"profile":["http://hl7.org/fhir/us/qicore/StructureDefinition/qicore-condition-problems-health-concerns"]},"clinicalStatus":{"coding":[{"system":"http://terminology.hl7.org/CodeSystem/condition-clinical","code":"active","display":"Active"}]},"verificationStatus":{"coding":[{"system":"http://terminology.hl7.org/CodeSystem/condition-ver-status","code":"confirmed","display":"Confirmed"}]},"category":[{"coding":[{"system":"http://terminology.hl7.org/CodeSystem/condition-category","code":"problem-list-item","display":"Problem List Item"}]}],"severity":{"coding":[{"system":"http://snomed.info/sct","version":"http://snomed.info/sct/731000124108/version/20240301","code":"24484000","display":"Severe (severity modifier) (qualifier value)"}]},"code":{"coding":[{"system":"http://snomed.info/sct","version":"http://snomed.info/sct/731000124108/version/20240301","code":"134401001","display":"Left ventricular systolic dysfunction (disorder)"}]},"subject":{"reference":"Patient/64e76766-9760-4385-a977-cbe8136ce425"},"onsetPeriod":{"start":"2026-02-03T08:00:00.000+00:00","end":"2026-02-03T08:15:00.000+00:00"}},"request":{"method":"PUT","url":"Condition/925654c8-8d05-4439-b25c-9d50c96fb331"}},{"fullUrl":"https://madie.cms.gov/MedicationRequest/275edb1b-ceaf-4c0e-a48e-32a903d869a3","resource":{"resourceType":"MedicationRequest","id":"275edb1b-ceaf-4c0e-a48e-32a903d869a3","meta":{"profile":["http://hl7.org/fhir/us/qicore/StructureDefinition/qicore-mednotrequested"]},"status":"completed","intent":"order","doNotPerform":true,"medicationCodeableConcept":{"coding":[{"system":"http://www.nlm.nih.gov/research/umls/rxnorm","version":"04012024","code":"1091652","display":"azilsartan medoxomil 80 MG Oral Tablet"}]},"subject":{"reference":"Patient/64e76766-9760-4385-a977-cbe8136ce425"},"authoredOn":"2026-02-03T08:00:00.000+00:00","requester":{"reference":"Practitioner/167f1d3f-e2d2-4709-936a-e466572e36ee"},"reasonCode":[{"coding":[{"system":"http://snomed.info/sct","version":"http://snomed.info/sct/731000124108/version/20230901","code":"134397009","display":"Angiotensin converting enzyme inhibitor declined (situation)"}]}]},"request":{"method":"PUT","url":"MedicationRequest/275edb1b-ceaf-4c0e-a48e-32a903d869a3"}},{"fullUrl":"https://madie.cms.gov/Practitioner/167f1d3f-e2d2-4709-936a-e466572e36ee","resource":{"resourceType":"Practitioner","id":"167f1d3f-e2d2-4709-936a-e466572e36ee","meta":{"profile":["http://hl7.org/fhir/us/qicore/StructureDefinition/qicore-practitioner"]},"identifier":[{"use":"temp","system":"urn:oid:2.16.840.1.113883.4.336","value":"Practitioner-23"}],"active":true,"name":[{"family":"Careful","given":["Adam"],"prefix":["Dr"]}],"address":[{"use":"home","line":["534 Erewhon St"],"city":"PleasantVille","state":"UT","postalCode":"84414"}],"qualification":[{"identifier":[{"system":"http://example.org/UniversityIdentifier","value":"12345"}],"code":{"coding":[{"system":"http://terminology.hl7.org/CodeSystem/v2-0360|2.7","code":"BS","display":"Bachelor of Science"}],"text":"Bachelor of Science"},"period":{"start":"1996"},"issuer":{"display":"Example University"}}]},"request":{"method":"PUT","url":"Practitioner/167f1d3f-e2d2-4709-936a-e466572e36ee"}},{"fullUrl":"https://madie.cms.gov/MeasureReport/fdfad332-382b-442d-ab2d-741d647c4fa2","resource":{"resourceType":"MeasureReport","id":"fdfad332-382b-442d-ab2d-741d647c4fa2","meta":{"profile":["http://hl7.org/fhir/us/cqfmeasures/StructureDefinition/test-case-cqfm"]},"contained":[{"resourceType":"Parameters","id":"2df1a0aa-905d-4450-ab6b-afd7ac7ef522-parameters","parameter":[{"name":"subject","valueString":"64e76766-9760-4385-a977-cbe8136ce425"}]}],"extension":[{"url":"http://hl7.org/fhir/StructureDefinition/cqf-inputParameters","valueReference":{"reference":"#2df1a0aa-905d-4450-ab6b-afd7ac7ef522-parameters"}},{"url":"http://hl7.org/fhir/us/cqfmeasures/StructureDefinition/cqfm-testCaseDescription","valueMarkdown":"Patient GE 18years old with two ambulatory encounters, HF diagnosis, and LVEF <= 40%. Patient declined ACE/ARB medication prescription. Note: Denominator Exception deselected due to negation issue."}],"modifierExtension":[{"url":"http://hl7.org/fhir/us/cqfmeasures/StructureDefinition/cqfm-isTestCase","valueBoolean":true}],"status":"complete","type":"individual","measure":"https://madie.cms.gov/Measure/CMS135FHIRHFACEIorARBorARNIforLVSD","period":{"start":"2026-01-01","end":"2026-12-31"},"group":[{"id":"Group_1","population":[{"id":"InitialPopulation_1","code":{"coding":[{"system":"http://terminology.hl7.org/CodeSystem/measure-population","code":"initial-population","display":"Initial Population"}]},"count":1},{"id":"Denominator_1","code":{"coding":[{"system":"http://terminology.hl7.org/CodeSystem/measure-population","code":"denominator","display":"Denominator"}]},"count":1},{"id":"DenominatorExclusion_1","code":{"coding":[{"system":"http://terminology.hl7.org/CodeSystem/measure-population","code":"denominator-exclusion","display":"Denominator Exclusion"}]},"count":0},{"id":"Numerator_1","code":{"coding":[{"system":"http://terminology.hl7.org/CodeSystem/measure-population","code":"numerator","display":"Numerator"}]},"count":0},{"id":"DenominatorException_1","code":{"coding":[{"system":"http://terminology.hl7.org/CodeSystem/measure-population","code":"denominator-exception","display":"Denominator Exception"}]},"count":0}],"measureScore":{"value":1.0}}],"evaluatedResource":[{"reference":"Patient/64e76766-9760-4385-a977-cbe8136ce425"},{"reference":"Encounter/d0aeddf8-4f57-4409-866a-d62d905b7c63"},{"reference":"Encounter/31e6f48c-c41d-4b6a-84e2-77b7ab9833e9"},{"reference":"Condition/9e4ee8b6-27c9-49c7-bd15-a5a179078f89"},{"reference":"Condition/925654c8-8d05-4439-b25c-9d50c96fb331"},{"reference":"MedicationRequest/275edb1b-ceaf-4c0e-a48e-32a903d869a3"},{"reference":"Practitioner/167f1d3f-e2d2-4709-936a-e466572e36ee"}]},"request":{"method":"PUT","url":"MeasureReport/fdfad332-382b-442d-ab2d-741d647c4fa2"}}]},"request":{"method":"PUT","url":"Bundle/84646413549681387135165"}},{"fullUrl":"Encounter/d0aeddf8-4f57-4409-866a-d62d905b7c63","resource":{"resourceType":"Encounter","id":"d0aeddf8-4f57-4409-866a-d62d905b7c63","meta":{"profile":["http://hl7.org/fhir/us/qicore/StructureDefinition/qicore-encounter"]},"status":"finished","class":{"system":"http://terminology.hl7.org/CodeSystem/v3-ActCode","code":"AMB","display":"ambulatory"},"type":[{"coding":[{"system":"http://snomed.info/sct","version":"http://snomed.info/sct/731000124108/version/20240301","code":"185463005","display":"Visit out of hours (procedure)"}]}],"subject":{"reference":"Patient/64e76766-9760-4385-a977-cbe8136ce425"},"period":{"start":"2026-02-03T08:00:00.000+00:00","end":"2026-02-03T08:15:00.000+00:00"}},"request":{"method":"PUT","url":"Encounter/d0aeddf8-4f57-4409-866a-d62d905b7c63"}},{"fullUrl":"MedicationRequest/275edb1b-ceaf-4c0e-a48e-32a903d869a3","resource":{"resourceType":"MedicationRequest","id":"275edb1b-ceaf-4c0e-a48e-32a903d869a3","meta":{"profile":["http://hl7.org/fhir/us/qicore/StructureDefinition/qicore-mednotrequested"]},"status":"completed","intent":"order","doNotPerform":true,"medicationCodeableConcept":{"coding":[{"system":"http://www.nlm.nih.gov/research/umls/rxnorm","version":"04012024","code":"1091652","display":"azilsartan medoxomil 80 MG Oral Tablet"}]},"subject":{"reference":"Patient/64e76766-9760-4385-a977-cbe8136ce425"},"authoredOn":"2026-02-03T08:00:00.000+00:00","requester":{"reference":"Practitioner/167f1d3f-e2d2-4709-936a-e466572e36ee"},"reasonCode":[{"coding":[{"system":"http://snomed.info/sct","version":"http://snomed.info/sct/731000124108/version/20230901","code":"134397009","display":"Angiotensin converting enzyme inhibitor declined (situation)"}]}]},"request":{"method":"PUT","url":"MedicationRequest/275edb1b-ceaf-4c0e-a48e-32a903d869a3"}},{"fullUrl":"MeasureReport/fdfad332-382b-442d-ab2d-741d647c4fa2","resource":{"resourceType":"MeasureReport","id":"fdfad332-382b-442d-ab2d-741d647c4fa2","meta":{"profile":["http://hl7.org/fhir/us/cqfmeasures/StructureDefinition/test-case-cqfm"]},"contained":[{"resourceType":"Parameters","id":"2df1a0aa-905d-4450-ab6b-afd7ac7ef522-parameters","parameter":[{"name":"subject","valueString":"64e76766-9760-4385-a977-cbe8136ce425"}]}],"extension":[{"url":"http://hl7.org/fhir/StructureDefinition/cqf-inputParameters","valueReference":{"reference":"#2df1a0aa-905d-4450-ab6b-afd7ac7ef522-parameters"}},{"url":"http://hl7.org/fhir/us/cqfmeasures/StructureDefinition/cqfm-testCaseDescription","valueMarkdown":"Patient GE 18years old with two ambulatory encounters, HF diagnosis, and LVEF <= 40%. Patient declined ACE/ARB medication prescription. Note: Denominator Exception deselected due to negation issue."}],"modifierExtension":[{"url":"http://hl7.org/fhir/us/cqfmeasures/StructureDefinition/cqfm-isTestCase","valueBoolean":true}],"status":"complete","type":"individual","measure":"https://madie.cms.gov/Measure/CMS135FHIRHFACEIorARBorARNIforLVSD","period":{"start":"2026-01-01","end":"2026-12-31"},"group":[{"id":"Group_1","population":[{"id":"InitialPopulation_1","code":{"coding":[{"system":"http://terminology.hl7.org/CodeSystem/measure-population","code":"initial-population","display":"Initial Population"}]},"count":1},{"id":"Denominator_1","code":{"coding":[{"system":"http://terminology.hl7.org/CodeSystem/measure-population","code":"denominator","display":"Denominator"}]},"count":1},{"id":"DenominatorExclusion_1","code":{"coding":[{"system":"http://terminology.hl7.org/CodeSystem/measure-population","code":"denominator-exclusion","display":"Denominator Exclusion"}]},"count":0},{"id":"Numerator_1","code":{"coding":[{"system":"http://terminology.hl7.org/CodeSystem/measure-population","code":"numerator","display":"Numerator"}]},"count":0},{"id":"DenominatorException_1","code":{"coding":[{"system":"http://terminology.hl7.org/CodeSystem/measure-population","code":"denominator-exception","display":"Denominator Exception"}]},"count":0}],"measureScore":{"value":1.0}}],"evaluatedResource":[{"reference":"Patient/64e76766-9760-4385-a977-cbe8136ce425"},{"reference":"Encounter/d0aeddf8-4f57-4409-866a-d62d905b7c63"},{"reference":"Encounter/31e6f48c-c41d-4b6a-84e2-77b7ab9833e9"},{"reference":"Condition/9e4ee8b6-27c9-49c7-bd15-a5a179078f89"},{"reference":"Condition/925654c8-8d05-4439-b25c-9d50c96fb331"},{"reference":"MedicationRequest/275edb1b-ceaf-4c0e-a48e-32a903d869a3"},{"reference":"Practitioner/167f1d3f-e2d2-4709-936a-e466572e36ee"}]},"request":{"method":"PUT","url":"MeasureReport/fdfad332-382b-442d-ab2d-741d647c4fa2"}},{"fullUrl":"Practitioner/167f1d3f-e2d2-4709-936a-e466572e36ee","resource":{"resourceType":"Practitioner","id":"167f1d3f-e2d2-4709-936a-e466572e36ee","meta":{"profile":["http://hl7.org/fhir/us/qicore/StructureDefinition/qicore-practitioner"]},"identifier":[{"use":"temp","system":"urn:oid:2.16.840.1.113883.4.336","value":"Practitioner-23"}],"active":true,"name":[{"family":"Careful","given":["Adam"],"prefix":["Dr"]}],"address":[{"use":"home","line":["534 Erewhon St"],"city":"PleasantVille","state":"UT","postalCode":"84414"}],"qualification":[{"identifier":[{"system":"http://example.org/UniversityIdentifier","value":"12345"}],"code":{"coding":[{"system":"http://terminology.hl7.org/CodeSystem/v2-0360|2.7","code":"BS","display":"Bachelor of Science"}],"text":"Bachelor of Science"},"period":{"start":"1996"},"issuer":{"display":"Example University"}}]},"request":{"method":"PUT","url":"Practitioner/167f1d3f-e2d2-4709-936a-e466572e36ee"}},{"fullUrl":"Condition/9e4ee8b6-27c9-49c7-bd15-a5a179078f89","resource":{"resourceType":"Condition","id":"9e4ee8b6-27c9-49c7-bd15-a5a179078f89","meta":{"profile":["http://hl7.org/fhir/us/qicore/StructureDefinition/qicore-condition-problems-health-concerns"]},"clinicalStatus":{"coding":[{"system":"http://terminology.hl7.org/CodeSystem/condition-clinical","code":"active","display":"Active"}]},"verificationStatus":{"coding":[{"system":"http://terminology.hl7.org/CodeSystem/condition-ver-status","code":"confirmed","display":"Confirmed"}]},"category":[{"coding":[{"system":"http://terminology.hl7.org/CodeSystem/condition-category","code":"problem-list-item","display":"Problem List Item"}]}],"code":{"coding":[{"system":"http://snomed.info/sct","version":"http://snomed.info/sct/731000124108/version/20240301","code":"10091002","display":"High output heart failure (disorder)"}]},"subject":{"reference":"Patient/64e76766-9760-4385-a977-cbe8136ce425"},"onsetPeriod":{"start":"2026-02-03T08:00:00.000+00:00","end":"2026-02-03T08:15:00.000+00:00"}},"request":{"method":"PUT","url":"Condition/9e4ee8b6-27c9-49c7-bd15-a5a179078f89"}}]}