{"resourceType":"Bundle","id":"tests-d4cafe6e-4358-4688-90f5-6a6588512cae-bundle","type":"transaction","entry":[{"fullUrl":"Bundle/13165431313131354","resource":{"resourceType":"Bundle","id":"13165431313131354","type":"transaction","entry":[{"fullUrl":"https://madie.cms.gov/Patient/d4cafe6e-4358-4688-90f5-6a6588512cae","resource":{"resourceType":"Patient","id":"d4cafe6e-4358-4688-90f5-6a6588512cae","meta":{"profile":["http://hl7.org/fhir/us/qicore/StructureDefinition/qicore-patient"]},"extension":[{"url":"http://hl7.org/fhir/us/core/StructureDefinition/us-core-race","extension":[{"url":"ombCategory","valueCoding":{"system":"urn:oid:2.16.840.1.113883.6.238","code":"2028-9","display":"Asian","userSelected":true}},{"url":"text","valueString":"Asian"}]},{"url":"http://hl7.org/fhir/us/core/StructureDefinition/us-core-ethnicity","extension":[{"url":"ombCategory","valueCoding":{"system":"urn:oid:2.16.840.1.113883.6.238","code":"2186-5","display":"Not Hispanic or Latino","userSelected":true}},{"url":"text","valueString":"Not Hispanic or Latino"}]}],"identifier":[{"type":{"coding":[{"system":"http://terminology.hl7.org/CodeSystem/v2-0203","code":"MR"}]},"system":"https://bonnie-fhir.healthit.gov/","value":"464631315435131"}],"name":[{"family":"IPFail","given":["AgeLessThan18"]}],"gender":"female","birthDate":"2008-01-02"},"request":{"method":"PUT","url":"Patient/d4cafe6e-4358-4688-90f5-6a6588512cae"}},{"fullUrl":"https://madie.cms.gov/Encounter/7df57506-53e9-4b10-91b2-ad372ef69471","resource":{"resourceType":"Encounter","id":"7df57506-53e9-4b10-91b2-ad372ef69471","meta":{"profile":["http://hl7.org/fhir/us/qicore/StructureDefinition/qicore-encounter"]},"status":"finished","class":{"system":"http://terminology.hl7.org/CodeSystem/v3-ActCode","code":"AMB","display":"ambulatory"},"type":[{"coding":[{"system":"http://snomed.info/sct","version":"http://snomed.info/sct/731000124108/version/20240301","code":"185463005","display":"Visit out of hours (procedure)"}]}],"subject":{"reference":"Patient/d4cafe6e-4358-4688-90f5-6a6588512cae"},"period":{"start":"2026-03-31T08:00:00.000+00:00","end":"2026-03-31T08:15:00.000+00:00"}},"request":{"method":"PUT","url":"Encounter/7df57506-53e9-4b10-91b2-ad372ef69471"}},{"fullUrl":"https://madie.cms.gov/Encounter/8910437c-d00a-443b-a467-f7952d9df0f0","resource":{"resourceType":"Encounter","id":"8910437c-d00a-443b-a467-f7952d9df0f0","meta":{"profile":["http://hl7.org/fhir/us/qicore/StructureDefinition/qicore-encounter"]},"status":"finished","class":{"system":"http://terminology.hl7.org/CodeSystem/v3-ActCode","code":"AMB","display":"ambulatory"},"type":[{"coding":[{"system":"http://snomed.info/sct","version":"http://snomed.info/sct/731000124108/version/20240301","code":"185463005","display":"Visit out of hours (procedure)"}]}],"subject":{"reference":"Patient/d4cafe6e-4358-4688-90f5-6a6588512cae"},"period":{"start":"2026-05-15T08:00:00.000+00:00","end":"2026-05-15T08:15:00.000+00:00"}},"request":{"method":"PUT","url":"Encounter/8910437c-d00a-443b-a467-f7952d9df0f0"}},{"fullUrl":"https://madie.cms.gov/Condition/ec2c9490-2044-42e0-9b1f-531d751b76d6","resource":{"resourceType":"Condition","id":"ec2c9490-2044-42e0-9b1f-531d751b76d6","meta":{"profile":["http://hl7.org/fhir/us/qicore/StructureDefinition/qicore-condition-problems-health-concerns"]},"clinicalStatus":{"coding":[{"system":"http://terminology.hl7.org/CodeSystem/condition-clinical","code":"active","display":"active"}]},"verificationStatus":{"coding":[{"system":"http://terminology.hl7.org/CodeSystem/condition-ver-status","code":"confirmed","display":"Confirmed"}]},"category":[{"coding":[{"system":"http://terminology.hl7.org/CodeSystem/condition-category","code":"problem-list-item","display":"Problem List Item"}]}],"code":{"coding":[{"system":"http://snomed.info/sct","version":"http://snomed.info/sct/731000124108/version/20240301","code":"10091002","display":"High output heart failure (disorder)"}]},"subject":{"reference":"Patient/d4cafe6e-4358-4688-90f5-6a6588512cae"},"onsetPeriod":{"start":"2025-05-17T08:00:00.000+00:00"}},"request":{"method":"PUT","url":"Condition/ec2c9490-2044-42e0-9b1f-531d751b76d6"}},{"fullUrl":"https://madie.cms.gov/Condition/5653a8bd-0500-4df4-827d-57ef9c77f03f","resource":{"resourceType":"Condition","id":"5653a8bd-0500-4df4-827d-57ef9c77f03f","meta":{"profile":["http://hl7.org/fhir/us/qicore/StructureDefinition/qicore-condition-problems-health-concerns"]},"clinicalStatus":{"coding":[{"system":"http://terminology.hl7.org/CodeSystem/condition-clinical","code":"active","display":"Active"}]},"verificationStatus":{"coding":[{"system":"http://terminology.hl7.org/CodeSystem/condition-ver-status","code":"confirmed","display":"Confirmed"}]},"category":[{"coding":[{"system":"http://terminology.hl7.org/CodeSystem/condition-category","code":"problem-list-item","display":"Problem List Item"}]}],"code":{"coding":[{"system":"http://snomed.info/sct","version":"http://snomed.info/sct/731000124108/version/20240301","code":"981000124106","display":"Moderate left ventricular systolic dysfunction (disorder)"}]},"subject":{"reference":"Patient/d4cafe6e-4358-4688-90f5-6a6588512cae"},"onsetPeriod":{"start":"2026-03-25T08:00:00.000+00:00","end":"2026-03-30T08:15:00.000+00:00"}},"request":{"method":"PUT","url":"Condition/5653a8bd-0500-4df4-827d-57ef9c77f03f"}},{"fullUrl":"https://madie.cms.gov/MeasureReport/082a4d17-a1ee-4ecc-a2ff-3009c077b633","resource":{"resourceType":"MeasureReport","id":"082a4d17-a1ee-4ecc-a2ff-3009c077b633","meta":{"profile":["http://hl7.org/fhir/us/cqfmeasures/StructureDefinition/test-case-cqfm"]},"contained":[{"resourceType":"Parameters","id":"5a18bb2c-85c1-4454-9811-3c184c1f38e9-parameters","parameter":[{"name":"subject","valueString":"d4cafe6e-4358-4688-90f5-6a6588512cae"}]}],"extension":[{"url":"http://hl7.org/fhir/StructureDefinition/cqf-inputParameters","valueReference":{"reference":"#5a18bb2c-85c1-4454-9811-3c184c1f38e9-parameters"}},{"url":"http://hl7.org/fhir/us/cqfmeasures/StructureDefinition/cqfm-testCaseDescription","valueMarkdown":"Patient with 2 ambulatory encounters and HF diagnosis but fails Initial Population criteria of patient age being 18 and older"}],"modifierExtension":[{"url":"http://hl7.org/fhir/us/cqfmeasures/StructureDefinition/cqfm-isTestCase","valueBoolean":true}],"status":"complete","type":"individual","measure":"https://madie.cms.gov/Measure/CMS135FHIRHFACEIorARBorARNIforLVSD","period":{"start":"2026-01-01","end":"2026-12-31"},"group":[{"id":"Group_1","population":[{"id":"InitialPopulation_1","code":{"coding":[{"system":"http://terminology.hl7.org/CodeSystem/measure-population","code":"initial-population","display":"Initial Population"}]},"count":0},{"id":"Denominator_1","code":{"coding":[{"system":"http://terminology.hl7.org/CodeSystem/measure-population","code":"denominator","display":"Denominator"}]},"count":0},{"id":"DenominatorExclusion_1","code":{"coding":[{"system":"http://terminology.hl7.org/CodeSystem/measure-population","code":"denominator-exclusion","display":"Denominator Exclusion"}]},"count":0},{"id":"Numerator_1","code":{"coding":[{"system":"http://terminology.hl7.org/CodeSystem/measure-population","code":"numerator","display":"Numerator"}]},"count":0},{"id":"DenominatorException_1","code":{"coding":[{"system":"http://terminology.hl7.org/CodeSystem/measure-population","code":"denominator-exception","display":"Denominator Exception"}]},"count":0}],"measureScore":{"value":1.0}}],"evaluatedResource":[{"reference":"Patient/d4cafe6e-4358-4688-90f5-6a6588512cae"},{"reference":"Encounter/7df57506-53e9-4b10-91b2-ad372ef69471"},{"reference":"Encounter/8910437c-d00a-443b-a467-f7952d9df0f0"},{"reference":"Condition/ec2c9490-2044-42e0-9b1f-531d751b76d6"},{"reference":"Condition/5653a8bd-0500-4df4-827d-57ef9c77f03f"}]},"request":{"method":"PUT","url":"MeasureReport/082a4d17-a1ee-4ecc-a2ff-3009c077b633"}}]},"request":{"method":"PUT","url":"Bundle/13165431313131354"}},{"fullUrl":"MeasureReport/082a4d17-a1ee-4ecc-a2ff-3009c077b633","resource":{"resourceType":"MeasureReport","id":"082a4d17-a1ee-4ecc-a2ff-3009c077b633","meta":{"profile":["http://hl7.org/fhir/us/cqfmeasures/StructureDefinition/test-case-cqfm"]},"contained":[{"resourceType":"Parameters","id":"5a18bb2c-85c1-4454-9811-3c184c1f38e9-parameters","parameter":[{"name":"subject","valueString":"d4cafe6e-4358-4688-90f5-6a6588512cae"}]}],"extension":[{"url":"http://hl7.org/fhir/StructureDefinition/cqf-inputParameters","valueReference":{"reference":"#5a18bb2c-85c1-4454-9811-3c184c1f38e9-parameters"}},{"url":"http://hl7.org/fhir/us/cqfmeasures/StructureDefinition/cqfm-testCaseDescription","valueMarkdown":"Patient with 2 ambulatory encounters and HF diagnosis but fails Initial Population criteria of patient age being 18 and older"}],"modifierExtension":[{"url":"http://hl7.org/fhir/us/cqfmeasures/StructureDefinition/cqfm-isTestCase","valueBoolean":true}],"status":"complete","type":"individual","measure":"https://madie.cms.gov/Measure/CMS135FHIRHFACEIorARBorARNIforLVSD","period":{"start":"2026-01-01","end":"2026-12-31"},"group":[{"id":"Group_1","population":[{"id":"InitialPopulation_1","code":{"coding":[{"system":"http://terminology.hl7.org/CodeSystem/measure-population","code":"initial-population","display":"Initial Population"}]},"count":0},{"id":"Denominator_1","code":{"coding":[{"system":"http://terminology.hl7.org/CodeSystem/measure-population","code":"denominator","display":"Denominator"}]},"count":0},{"id":"DenominatorExclusion_1","code":{"coding":[{"system":"http://terminology.hl7.org/CodeSystem/measure-population","code":"denominator-exclusion","display":"Denominator Exclusion"}]},"count":0},{"id":"Numerator_1","code":{"coding":[{"system":"http://terminology.hl7.org/CodeSystem/measure-population","code":"numerator","display":"Numerator"}]},"count":0},{"id":"DenominatorException_1","code":{"coding":[{"system":"http://terminology.hl7.org/CodeSystem/measure-population","code":"denominator-exception","display":"Denominator Exception"}]},"count":0}],"measureScore":{"value":1.0}}],"evaluatedResource":[{"reference":"Patient/d4cafe6e-4358-4688-90f5-6a6588512cae"},{"reference":"Encounter/7df57506-53e9-4b10-91b2-ad372ef69471"},{"reference":"Encounter/8910437c-d00a-443b-a467-f7952d9df0f0"},{"reference":"Condition/ec2c9490-2044-42e0-9b1f-531d751b76d6"},{"reference":"Condition/5653a8bd-0500-4df4-827d-57ef9c77f03f"}]},"request":{"method":"PUT","url":"MeasureReport/082a4d17-a1ee-4ecc-a2ff-3009c077b633"}},{"fullUrl":"Condition/5653a8bd-0500-4df4-827d-57ef9c77f03f","resource":{"resourceType":"Condition","id":"5653a8bd-0500-4df4-827d-57ef9c77f03f","meta":{"profile":["http://hl7.org/fhir/us/qicore/StructureDefinition/qicore-condition-problems-health-concerns"]},"clinicalStatus":{"coding":[{"system":"http://terminology.hl7.org/CodeSystem/condition-clinical","code":"active","display":"Active"}]},"verificationStatus":{"coding":[{"system":"http://terminology.hl7.org/CodeSystem/condition-ver-status","code":"confirmed","display":"Confirmed"}]},"category":[{"coding":[{"system":"http://terminology.hl7.org/CodeSystem/condition-category","code":"problem-list-item","display":"Problem List Item"}]}],"code":{"coding":[{"system":"http://snomed.info/sct","version":"http://snomed.info/sct/731000124108/version/20240301","code":"981000124106","display":"Moderate left ventricular systolic dysfunction (disorder)"}]},"subject":{"reference":"Patient/d4cafe6e-4358-4688-90f5-6a6588512cae"},"onsetPeriod":{"start":"2026-03-25T08:00:00.000+00:00","end":"2026-03-30T08:15:00.000+00:00"}},"request":{"method":"PUT","url":"Condition/5653a8bd-0500-4df4-827d-57ef9c77f03f"}},{"fullUrl":"Condition/ec2c9490-2044-42e0-9b1f-531d751b76d6","resource":{"resourceType":"Condition","id":"ec2c9490-2044-42e0-9b1f-531d751b76d6","meta":{"profile":["http://hl7.org/fhir/us/qicore/StructureDefinition/qicore-condition-problems-health-concerns"]},"clinicalStatus":{"coding":[{"system":"http://terminology.hl7.org/CodeSystem/condition-clinical","code":"active","display":"active"}]},"verificationStatus":{"coding":[{"system":"http://terminology.hl7.org/CodeSystem/condition-ver-status","code":"confirmed","display":"Confirmed"}]},"category":[{"coding":[{"system":"http://terminology.hl7.org/CodeSystem/condition-category","code":"problem-list-item","display":"Problem List Item"}]}],"code":{"coding":[{"system":"http://snomed.info/sct","version":"http://snomed.info/sct/731000124108/version/20240301","code":"10091002","display":"High output heart failure (disorder)"}]},"subject":{"reference":"Patient/d4cafe6e-4358-4688-90f5-6a6588512cae"},"onsetPeriod":{"start":"2025-05-17T08:00:00.000+00:00"}},"request":{"method":"PUT","url":"Condition/ec2c9490-2044-42e0-9b1f-531d751b76d6"}},{"fullUrl":"Encounter/8910437c-d00a-443b-a467-f7952d9df0f0","resource":{"resourceType":"Encounter","id":"8910437c-d00a-443b-a467-f7952d9df0f0","meta":{"profile":["http://hl7.org/fhir/us/qicore/StructureDefinition/qicore-encounter"]},"status":"finished","class":{"system":"http://terminology.hl7.org/CodeSystem/v3-ActCode","code":"AMB","display":"ambulatory"},"type":[{"coding":[{"system":"http://snomed.info/sct","version":"http://snomed.info/sct/731000124108/version/20240301","code":"185463005","display":"Visit out of hours (procedure)"}]}],"subject":{"reference":"Patient/d4cafe6e-4358-4688-90f5-6a6588512cae"},"period":{"start":"2026-05-15T08:00:00.000+00:00","end":"2026-05-15T08:15:00.000+00:00"}},"request":{"method":"PUT","url":"Encounter/8910437c-d00a-443b-a467-f7952d9df0f0"}},{"fullUrl":"Patient/d4cafe6e-4358-4688-90f5-6a6588512cae","resource":{"resourceType":"Patient","id":"d4cafe6e-4358-4688-90f5-6a6588512cae","meta":{"profile":["http://hl7.org/fhir/us/qicore/StructureDefinition/qicore-patient"]},"extension":[{"url":"http://hl7.org/fhir/us/core/StructureDefinition/us-core-race","extension":[{"url":"ombCategory","valueCoding":{"system":"urn:oid:2.16.840.1.113883.6.238","code":"2028-9","display":"Asian","userSelected":true}},{"url":"text","valueString":"Asian"}]},{"url":"http://hl7.org/fhir/us/core/StructureDefinition/us-core-ethnicity","extension":[{"url":"ombCategory","valueCoding":{"system":"urn:oid:2.16.840.1.113883.6.238","code":"2186-5","display":"Not Hispanic or Latino","userSelected":true}},{"url":"text","valueString":"Not Hispanic or Latino"}]}],"identifier":[{"type":{"coding":[{"system":"http://terminology.hl7.org/CodeSystem/v2-0203","code":"MR"}]},"system":"https://bonnie-fhir.healthit.gov/","value":"464631315435131"}],"name":[{"family":"IPFail","given":["AgeLessThan18"]}],"gender":"female","birthDate":"2008-01-02"},"request":{"method":"PUT","url":"Patient/d4cafe6e-4358-4688-90f5-6a6588512cae"}},{"fullUrl":"Encounter/7df57506-53e9-4b10-91b2-ad372ef69471","resource":{"resourceType":"Encounter","id":"7df57506-53e9-4b10-91b2-ad372ef69471","meta":{"profile":["http://hl7.org/fhir/us/qicore/StructureDefinition/qicore-encounter"]},"status":"finished","class":{"system":"http://terminology.hl7.org/CodeSystem/v3-ActCode","code":"AMB","display":"ambulatory"},"type":[{"coding":[{"system":"http://snomed.info/sct","version":"http://snomed.info/sct/731000124108/version/20240301","code":"185463005","display":"Visit out of hours (procedure)"}]}],"subject":{"reference":"Patient/d4cafe6e-4358-4688-90f5-6a6588512cae"},"period":{"start":"2026-03-31T08:00:00.000+00:00","end":"2026-03-31T08:15:00.000+00:00"}},"request":{"method":"PUT","url":"Encounter/7df57506-53e9-4b10-91b2-ad372ef69471"}}]}