{"resourceType":"Bundle","id":"tests-a40966e2-5640-409f-9596-65c03db31424-bundle","type":"transaction","entry":[{"resource":{"resourceType":"Patient","id":"a40966e2-5640-409f-9596-65c03db31424","meta":{"profile":["http://hl7.org/fhir/us/qicore/StructureDefinition/qicore-patient"]},"extension":[{"url":"http://hl7.org/fhir/us/core/StructureDefinition/us-core-race","extension":[{"url":"ombCategory","valueCoding":{"system":"urn:oid:2.16.840.1.113883.6.238","code":"2028-9","display":"Asian"}},{"url":"text","valueString":"Asian"}]},{"url":"http://hl7.org/fhir/us/core/StructureDefinition/us-core-ethnicity","extension":[{"url":"ombCategory","valueCoding":{"system":"urn:oid:2.16.840.1.113883.6.238","code":"2135-2","display":"Hispanic or Latino"}},{"url":"text","valueString":"Hispanic or Latino"}]}],"identifier":[{"type":{"coding":[{"system":"http://terminology.hl7.org/CodeSystem/v2-0203","code":"MR"}]},"system":"https://bonnie-fhir.healthit.gov/","value":"643510313413131"}],"name":[{"family":"DENEXCEPFail","given":["RenalFailDxGTLVSDEncEdge"]}],"gender":"female","birthDate":"1975-09-02"},"request":{"method":"PUT","url":"Patient/a40966e2-5640-409f-9596-65c03db31424"}},{"resource":{"resourceType":"Observation","id":"bdddac0b-bbfd-4240-9f65-7e46595fddf9","meta":{"profile":["http://hl7.org/fhir/us/qicore/StructureDefinition/qicore-observation-clinical-result"]},"status":"final","category":[{"coding":[{"system":"http://terminology.hl7.org/CodeSystem/observation-category","code":"imaging","display":"Imaging"}],"text":"Imaging"}],"code":{"coding":[{"system":"http://loinc.org","version":"2.76","code":"10230-1","display":"Left ventricular Ejection fraction"}]},"subject":{"reference":"Patient/a40966e2-5640-409f-9596-65c03db31424"},"effectiveDateTime":"2026-02-17T08:00:00.000+00:00","valueQuantity":{"value":35,"unit":"%","system":"http://unitsofmeasure.org","code":"%"}},"request":{"method":"PUT","url":"Observation/bdddac0b-bbfd-4240-9f65-7e46595fddf9"}},{"resource":{"resourceType":"Encounter","id":"4fbedeaa-0f33-4376-93bb-a82f788f0195","meta":{"profile":["http://hl7.org/fhir/us/qicore/StructureDefinition/qicore-encounter"]},"status":"finished","class":{"system":"http://terminology.hl7.org/CodeSystem/v3-ActCode","code":"AMB","display":"ambulatory"},"type":[{"coding":[{"system":"http://snomed.info/sct","version":"http://snomed.info/sct/731000124108/version/20240301","code":"185316007","display":"Indirect encounter (procedure)"}]}],"subject":{"reference":"Patient/a40966e2-5640-409f-9596-65c03db31424"},"period":{"start":"2026-12-30T08:00:00.000+00:00","end":"2026-12-30T08:15:00.000+00:00"}},"request":{"method":"PUT","url":"Encounter/4fbedeaa-0f33-4376-93bb-a82f788f0195"}},{"resource":{"resourceType":"Encounter","id":"214c24c7-3ac8-4859-b492-b9218a8147c7","meta":{"profile":["http://hl7.org/fhir/us/qicore/StructureDefinition/qicore-encounter"]},"status":"finished","class":{"system":"http://terminology.hl7.org/CodeSystem/v3-ActCode","code":"AMB","display":"ambulatory"},"type":[{"coding":[{"system":"http://snomed.info/sct","version":"http://snomed.info/sct/731000124108/version/20240301","code":"185463005","display":"Visit out of hours (procedure)"}]}],"subject":{"reference":"Patient/a40966e2-5640-409f-9596-65c03db31424"},"period":{"start":"2026-02-17T08:00:00.000+00:00","end":"2026-02-17T08:15:00.000+00:00"}},"request":{"method":"PUT","url":"Encounter/214c24c7-3ac8-4859-b492-b9218a8147c7"}},{"resource":{"resourceType":"MeasureReport","id":"0172dda5-736d-45a3-9f29-638be167307d","meta":{"profile":["http://hl7.org/fhir/us/cqfmeasures/StructureDefinition/test-case-cqfm"]},"contained":[{"resourceType":"Parameters","id":"ef07f6d6-ac84-4747-8948-3431d02d059d-parameters","parameter":[{"name":"subject","valueString":"a40966e2-5640-409f-9596-65c03db31424"}]}],"extension":[{"url":"http://hl7.org/fhir/StructureDefinition/cqf-inputParameters","valueReference":{"reference":"#ef07f6d6-ac84-4747-8948-3431d02d059d-parameters"}},{"url":"http://hl7.org/fhir/us/cqfmeasures/StructureDefinition/cqfm-testCaseDescription","valueMarkdown":"Patient has diagnosis of Renal Failure caused by ACEARB where onset is 1 day after LVSDHF Encounter"}],"modifierExtension":[{"url":"http://hl7.org/fhir/us/cqfmeasures/StructureDefinition/cqfm-isTestCase","valueBoolean":true}],"status":"complete","type":"individual","measure":"https://madie.cms.gov/Measure/CMS135FHIRHFACEIorARBorARNIforLVSD","period":{"start":"2026-01-01","end":"2026-12-31"},"group":[{"id":"Group_1","population":[{"id":"InitialPopulation_1","code":{"coding":[{"system":"http://terminology.hl7.org/CodeSystem/measure-population","code":"initial-population","display":"Initial Population"}]},"count":1},{"id":"Denominator_1","code":{"coding":[{"system":"http://terminology.hl7.org/CodeSystem/measure-population","code":"denominator","display":"Denominator"}]},"count":1},{"id":"DenominatorExclusion_1","code":{"coding":[{"system":"http://terminology.hl7.org/CodeSystem/measure-population","code":"denominator-exclusion","display":"Denominator Exclusion"}]},"count":0},{"id":"Numerator_1","code":{"coding":[{"system":"http://terminology.hl7.org/CodeSystem/measure-population","code":"numerator","display":"Numerator"}]},"count":0},{"id":"DenominatorException_1","code":{"coding":[{"system":"http://terminology.hl7.org/CodeSystem/measure-population","code":"denominator-exception","display":"Denominator Exception"}]},"count":0}],"measureScore":{"value":1.0}}],"evaluatedResource":[{"reference":"Patient/a40966e2-5640-409f-9596-65c03db31424"},{"reference":"Encounter/214c24c7-3ac8-4859-b492-b9218a8147c7"},{"reference":"Encounter/4fbedeaa-0f33-4376-93bb-a82f788f0195"},{"reference":"Condition/62849d78-76ae-4972-b117-db815578b1fb"},{"reference":"Observation/bdddac0b-bbfd-4240-9f65-7e46595fddf9"},{"reference":"Condition/aabc0807-1264-4af4-9a53-22d38c5f1c5d"}]},"request":{"method":"PUT","url":"MeasureReport/0172dda5-736d-45a3-9f29-638be167307d"}},{"resource":{"resourceType":"Condition","id":"aabc0807-1264-4af4-9a53-22d38c5f1c5d","meta":{"profile":["http://hl7.org/fhir/us/qicore/StructureDefinition/qicore-condition-problems-health-concerns"]},"clinicalStatus":{"coding":[{"system":"http://terminology.hl7.org/CodeSystem/condition-clinical","code":"active","display":"Active"}]},"verificationStatus":{"coding":[{"system":"http://terminology.hl7.org/CodeSystem/condition-ver-status","code":"confirmed","display":"confirmed"}]},"category":[{"coding":[{"system":"http://terminology.hl7.org/CodeSystem/condition-category","code":"problem-list-item","display":"Problem List Item"}]}],"code":{"coding":[{"system":"http://snomed.info/sct","version":"http://snomed.info/sct/731000124108/version/20240301","code":"422593004","display":"Acute renal failure caused by angiotensin-converting-enzyme inhibitor (disorder)"}]},"subject":{"reference":"Patient/a40966e2-5640-409f-9596-65c03db31424"},"onsetPeriod":{"start":"2026-02-18T08:16:00.000+00:00"}},"request":{"method":"PUT","url":"Condition/aabc0807-1264-4af4-9a53-22d38c5f1c5d"}},{"resource":{"resourceType":"Condition","id":"62849d78-76ae-4972-b117-db815578b1fb","meta":{"profile":["http://hl7.org/fhir/us/qicore/StructureDefinition/qicore-condition-problems-health-concerns"]},"clinicalStatus":{"coding":[{"system":"http://terminology.hl7.org/CodeSystem/condition-clinical","code":"active","display":"Active"}]},"verificationStatus":{"coding":[{"system":"http://terminology.hl7.org/CodeSystem/condition-ver-status","code":"confirmed","display":"Confirmed"}]},"category":[{"coding":[{"system":"http://terminology.hl7.org/CodeSystem/condition-category","code":"problem-list-item","display":"Problem List Item"}]}],"code":{"coding":[{"system":"http://snomed.info/sct","version":"http://snomed.info/sct/731000124108/version/20240301","code":"10091002","display":"High output heart failure (disorder)"}]},"subject":{"reference":"Patient/a40966e2-5640-409f-9596-65c03db31424"},"onsetPeriod":{"start":"2026-02-17T08:00:00.000+00:00"}},"request":{"method":"PUT","url":"Condition/62849d78-76ae-4972-b117-db815578b1fb"}},{"resource":{"resourceType":"Bundle","id":"68468414568746513","type":"transaction","entry":[{"fullUrl":"https://madie.cms.gov/Patient/a40966e2-5640-409f-9596-65c03db31424","resource":{"resourceType":"Patient","id":"a40966e2-5640-409f-9596-65c03db31424","meta":{"profile":["http://hl7.org/fhir/us/qicore/StructureDefinition/qicore-patient"]},"extension":[{"url":"http://hl7.org/fhir/us/core/StructureDefinition/us-core-race","extension":[{"url":"ombCategory","valueCoding":{"system":"urn:oid:2.16.840.1.113883.6.238","code":"2028-9","display":"Asian"}},{"url":"text","valueString":"Asian"}]},{"url":"http://hl7.org/fhir/us/core/StructureDefinition/us-core-ethnicity","extension":[{"url":"ombCategory","valueCoding":{"system":"urn:oid:2.16.840.1.113883.6.238","code":"2135-2","display":"Hispanic or Latino"}},{"url":"text","valueString":"Hispanic or Latino"}]}],"identifier":[{"type":{"coding":[{"system":"http://terminology.hl7.org/CodeSystem/v2-0203","code":"MR"}]},"system":"https://bonnie-fhir.healthit.gov/","value":"643510313413131"}],"name":[{"family":"DENEXCEPFail","given":["RenalFailDxGTLVSDEncEdge"]}],"gender":"female","birthDate":"1975-09-02"},"request":{"method":"PUT","url":"Patient/a40966e2-5640-409f-9596-65c03db31424"}},{"fullUrl":"https://madie.cms.gov/Encounter/214c24c7-3ac8-4859-b492-b9218a8147c7","resource":{"resourceType":"Encounter","id":"214c24c7-3ac8-4859-b492-b9218a8147c7","meta":{"profile":["http://hl7.org/fhir/us/qicore/StructureDefinition/qicore-encounter"]},"status":"finished","class":{"system":"http://terminology.hl7.org/CodeSystem/v3-ActCode","code":"AMB","display":"ambulatory"},"type":[{"coding":[{"system":"http://snomed.info/sct","version":"http://snomed.info/sct/731000124108/version/20240301","code":"185463005","display":"Visit out of hours (procedure)"}]}],"subject":{"reference":"Patient/a40966e2-5640-409f-9596-65c03db31424"},"period":{"start":"2026-02-17T08:00:00.000+00:00","end":"2026-02-17T08:15:00.000+00:00"}},"request":{"method":"PUT","url":"Encounter/214c24c7-3ac8-4859-b492-b9218a8147c7"}},{"fullUrl":"https://madie.cms.gov/Encounter/4fbedeaa-0f33-4376-93bb-a82f788f0195","resource":{"resourceType":"Encounter","id":"4fbedeaa-0f33-4376-93bb-a82f788f0195","meta":{"profile":["http://hl7.org/fhir/us/qicore/StructureDefinition/qicore-encounter"]},"status":"finished","class":{"system":"http://terminology.hl7.org/CodeSystem/v3-ActCode","code":"AMB","display":"ambulatory"},"type":[{"coding":[{"system":"http://snomed.info/sct","version":"http://snomed.info/sct/731000124108/version/20240301","code":"185316007","display":"Indirect encounter (procedure)"}]}],"subject":{"reference":"Patient/a40966e2-5640-409f-9596-65c03db31424"},"period":{"start":"2026-12-30T08:00:00.000+00:00","end":"2026-12-30T08:15:00.000+00:00"}},"request":{"method":"PUT","url":"Encounter/4fbedeaa-0f33-4376-93bb-a82f788f0195"}},{"fullUrl":"https://madie.cms.gov/Condition/62849d78-76ae-4972-b117-db815578b1fb","resource":{"resourceType":"Condition","id":"62849d78-76ae-4972-b117-db815578b1fb","meta":{"profile":["http://hl7.org/fhir/us/qicore/StructureDefinition/qicore-condition-problems-health-concerns"]},"clinicalStatus":{"coding":[{"system":"http://terminology.hl7.org/CodeSystem/condition-clinical","code":"active","display":"Active"}]},"verificationStatus":{"coding":[{"system":"http://terminology.hl7.org/CodeSystem/condition-ver-status","code":"confirmed","display":"Confirmed"}]},"category":[{"coding":[{"system":"http://terminology.hl7.org/CodeSystem/condition-category","code":"problem-list-item","display":"Problem List Item"}]}],"code":{"coding":[{"system":"http://snomed.info/sct","version":"http://snomed.info/sct/731000124108/version/20240301","code":"10091002","display":"High output heart failure (disorder)"}]},"subject":{"reference":"Patient/a40966e2-5640-409f-9596-65c03db31424"},"onsetPeriod":{"start":"2026-02-17T08:00:00.000+00:00"}},"request":{"method":"PUT","url":"Condition/62849d78-76ae-4972-b117-db815578b1fb"}},{"fullUrl":"https://madie.cms.gov/Observation/bdddac0b-bbfd-4240-9f65-7e46595fddf9","resource":{"resourceType":"Observation","id":"bdddac0b-bbfd-4240-9f65-7e46595fddf9","meta":{"profile":["http://hl7.org/fhir/us/qicore/StructureDefinition/qicore-observation-clinical-result"]},"status":"final","category":[{"coding":[{"system":"http://terminology.hl7.org/CodeSystem/observation-category","code":"imaging","display":"Imaging"}],"text":"Imaging"}],"code":{"coding":[{"system":"http://loinc.org","version":"2.76","code":"10230-1","display":"Left ventricular Ejection fraction"}]},"subject":{"reference":"Patient/a40966e2-5640-409f-9596-65c03db31424"},"effectiveDateTime":"2026-02-17T08:00:00.000+00:00","valueQuantity":{"value":35,"unit":"%","system":"http://unitsofmeasure.org","code":"%"}},"request":{"method":"PUT","url":"Observation/bdddac0b-bbfd-4240-9f65-7e46595fddf9"}},{"fullUrl":"https://madie.cms.gov/Condition/aabc0807-1264-4af4-9a53-22d38c5f1c5d","resource":{"resourceType":"Condition","id":"aabc0807-1264-4af4-9a53-22d38c5f1c5d","meta":{"profile":["http://hl7.org/fhir/us/qicore/StructureDefinition/qicore-condition-problems-health-concerns"]},"clinicalStatus":{"coding":[{"system":"http://terminology.hl7.org/CodeSystem/condition-clinical","code":"active","display":"Active"}]},"verificationStatus":{"coding":[{"system":"http://terminology.hl7.org/CodeSystem/condition-ver-status","code":"confirmed","display":"confirmed"}]},"category":[{"coding":[{"system":"http://terminology.hl7.org/CodeSystem/condition-category","code":"problem-list-item","display":"Problem List Item"}]}],"code":{"coding":[{"system":"http://snomed.info/sct","version":"http://snomed.info/sct/731000124108/version/20240301","code":"422593004","display":"Acute renal failure caused by angiotensin-converting-enzyme inhibitor (disorder)"}]},"subject":{"reference":"Patient/a40966e2-5640-409f-9596-65c03db31424"},"onsetPeriod":{"start":"2026-02-18T08:16:00.000+00:00"}},"request":{"method":"PUT","url":"Condition/aabc0807-1264-4af4-9a53-22d38c5f1c5d"}},{"fullUrl":"https://madie.cms.gov/MeasureReport/0172dda5-736d-45a3-9f29-638be167307d","resource":{"resourceType":"MeasureReport","id":"0172dda5-736d-45a3-9f29-638be167307d","meta":{"profile":["http://hl7.org/fhir/us/cqfmeasures/StructureDefinition/test-case-cqfm"]},"contained":[{"resourceType":"Parameters","id":"ef07f6d6-ac84-4747-8948-3431d02d059d-parameters","parameter":[{"name":"subject","valueString":"a40966e2-5640-409f-9596-65c03db31424"}]}],"extension":[{"url":"http://hl7.org/fhir/StructureDefinition/cqf-inputParameters","valueReference":{"reference":"#ef07f6d6-ac84-4747-8948-3431d02d059d-parameters"}},{"url":"http://hl7.org/fhir/us/cqfmeasures/StructureDefinition/cqfm-testCaseDescription","valueMarkdown":"Patient has diagnosis of Renal Failure caused by ACEARB where onset is 1 day after LVSDHF Encounter"}],"modifierExtension":[{"url":"http://hl7.org/fhir/us/cqfmeasures/StructureDefinition/cqfm-isTestCase","valueBoolean":true}],"status":"complete","type":"individual","measure":"https://madie.cms.gov/Measure/CMS135FHIRHFACEIorARBorARNIforLVSD","period":{"start":"2026-01-01","end":"2026-12-31"},"group":[{"id":"Group_1","population":[{"id":"InitialPopulation_1","code":{"coding":[{"system":"http://terminology.hl7.org/CodeSystem/measure-population","code":"initial-population","display":"Initial Population"}]},"count":1},{"id":"Denominator_1","code":{"coding":[{"system":"http://terminology.hl7.org/CodeSystem/measure-population","code":"denominator","display":"Denominator"}]},"count":1},{"id":"DenominatorExclusion_1","code":{"coding":[{"system":"http://terminology.hl7.org/CodeSystem/measure-population","code":"denominator-exclusion","display":"Denominator Exclusion"}]},"count":0},{"id":"Numerator_1","code":{"coding":[{"system":"http://terminology.hl7.org/CodeSystem/measure-population","code":"numerator","display":"Numerator"}]},"count":0},{"id":"DenominatorException_1","code":{"coding":[{"system":"http://terminology.hl7.org/CodeSystem/measure-population","code":"denominator-exception","display":"Denominator Exception"}]},"count":0}],"measureScore":{"value":1.0}}],"evaluatedResource":[{"reference":"Patient/a40966e2-5640-409f-9596-65c03db31424"},{"reference":"Encounter/214c24c7-3ac8-4859-b492-b9218a8147c7"},{"reference":"Encounter/4fbedeaa-0f33-4376-93bb-a82f788f0195"},{"reference":"Condition/62849d78-76ae-4972-b117-db815578b1fb"},{"reference":"Observation/bdddac0b-bbfd-4240-9f65-7e46595fddf9"},{"reference":"Condition/aabc0807-1264-4af4-9a53-22d38c5f1c5d"}]},"request":{"method":"PUT","url":"MeasureReport/0172dda5-736d-45a3-9f29-638be167307d"}}]},"request":{"method":"PUT","url":"Bundle/68468414568746513"}}]}