{"resourceType":"Bundle","id":"tests-bd369a0e-1c2c-4bd8-863c-27776268efb7-bundle","type":"transaction","entry":[{"resource":{"resourceType":"Observation","id":"d0c38ee3-3da1-4a7d-8ccd-31c842dfb378","meta":{"profile":["http://hl7.org/fhir/us/qicore/StructureDefinition/qicore-simple-observation"]},"status":"final","category":[{"coding":[{"system":"http://terminology.hl7.org/CodeSystem/observation-category","code":"exam","display":"exam","userSelected":true}]}],"code":{"coding":[{"system":"http://loinc.org","code":"93857-1"}]},"subject":{"reference":"Patient/bd369a0e-1c2c-4bd8-863c-27776268efb7"},"effectiveDateTime":"2026-11-28T21:30:00.000+00:00","performer":[{"reference":"Organization/example1","display":"Hendricks Country Hospital"}],"valueDateTime":"2026-11-28T07:59:00.000+00:00"},"request":{"method":"PUT","url":"Observation/d0c38ee3-3da1-4a7d-8ccd-31c842dfb378"}},{"resource":{"resourceType":"Coverage","id":"6fd2e692-d285-40a5-9982-42c2e0ad8975","meta":{"profile":["http://hl7.org/fhir/us/qicore/StructureDefinition/qicore-coverage"]},"status":"active","subscriberId":"523435","beneficiary":{"reference":"Patient/bd369a0e-1c2c-4bd8-863c-27776268efb7"},"relationship":{"coding":[{"system":"http://terminology.hl7.org/CodeSystem/subscriber-relationship","code":"self"}]},"payor":[{"reference":"Organization/b855317a-e690-4011-a7ac-9ccf1bbeafd2"}]},"request":{"method":"PUT","url":"Coverage/6fd2e692-d285-40a5-9982-42c2e0ad8975"}},{"resource":{"resourceType":"Organization","id":"b855317a-e690-4011-a7ac-9ccf1bbeafd2","meta":{"profile":["http://hl7.org/fhir/us/qicore/StructureDefinition/qicore-organization"]},"identifier":[{"use":"temp","system":"urn:oid:2.16.840.1.113883.4.4","value":"21-3259825"}],"active":true,"type":[{"coding":[{"system":"http://terminology.hl7.org/CodeSystem/organization-type","code":"pay","display":"Payer"}]}],"name":"Blue Cross Blue Shield of Texas","telecom":[{"system":"phone","value":"(+1) 972-766-6900"}],"address":[{"use":"billing","type":"postal","line":["P.O. Box 660044"],"city":"Dallas","state":"TX","postalCode":"75266-0044","country":"USA"}]},"request":{"method":"PUT","url":"Organization/b855317a-e690-4011-a7ac-9ccf1bbeafd2"}},{"resource":{"resourceType":"Patient","id":"bd369a0e-1c2c-4bd8-863c-27776268efb7","meta":{"profile":["http://hl7.org/fhir/us/qicore/StructureDefinition/qicore-patient"]},"text":{"status":"generated","div":"<div xmlns=\"http://www.w3.org/1999/xhtml\"><div class=\"hapiHeaderText\">AssessTimeOfDelivResultB4DelivEncStart<b>DENOMFail</b></div><table class=\"hapiPropertyTable\"><tbody><tr><td>Identifier</td><td>71189d70ba3427612f2a418107466ed1652ec9a0e76c1b9c30a1691a1d91b34c</td></tr><tr><td>Date of birth</td><td><span>14 February 1985</span></td></tr></tbody></table></div>"},"extension":[{"url":"http://hl7.org/fhir/us/core/StructureDefinition/us-core-race","extension":[{"url":"ombCategory","valueCoding":{"system":"urn:oid:2.16.840.1.113883.6.238","code":"1002-5","display":"American Indian or Alaska Native","userSelected":true}},{"url":"text","valueString":"American Indian or Alaska Native"}]},{"url":"http://hl7.org/fhir/us/core/StructureDefinition/us-core-ethnicity","extension":[{"url":"ombCategory","valueCoding":{"system":"urn:oid:2.16.840.1.113883.6.238","code":"2135-2","display":"Hispanic or Latino","userSelected":true}},{"url":"text","valueString":"Hispanic or Latino"}]}],"identifier":[{"type":{"coding":[{"system":"http://terminology.hl7.org/CodeSystem/v2-0203","code":"MR"}]},"system":"https://bonnie-fhir.healthit.gov/","value":"63487c300968f801225401ca"}],"active":true,"name":[{"use":"usual","family":"DENOMFail","given":["AssessTimeOfDelivResultB4DelivEncStart"]}],"gender":"female","birthDate":"1998-02-14"},"request":{"method":"PUT","url":"Patient/bd369a0e-1c2c-4bd8-863c-27776268efb7"}},{"resource":{"resourceType":"Bundle","id":"63487c300968f801225401ca","type":"transaction","entry":[{"fullUrl":"https://madie.cms.gov/Patient/bd369a0e-1c2c-4bd8-863c-27776268efb7","resource":{"resourceType":"Patient","id":"bd369a0e-1c2c-4bd8-863c-27776268efb7","meta":{"profile":["http://hl7.org/fhir/us/qicore/StructureDefinition/qicore-patient"]},"text":{"status":"generated","div":"<div xmlns=\"http://www.w3.org/1999/xhtml\"><div class=\"hapiHeaderText\">AssessTimeOfDelivResultB4DelivEncStart<b>DENOMFail</b></div><table class=\"hapiPropertyTable\"><tbody><tr><td>Identifier</td><td>71189d70ba3427612f2a418107466ed1652ec9a0e76c1b9c30a1691a1d91b34c</td></tr><tr><td>Date of birth</td><td><span>14 February 1985</span></td></tr></tbody></table></div>"},"extension":[{"url":"http://hl7.org/fhir/us/core/StructureDefinition/us-core-race","extension":[{"url":"ombCategory","valueCoding":{"system":"urn:oid:2.16.840.1.113883.6.238","code":"1002-5","display":"American Indian or Alaska Native","userSelected":true}},{"url":"text","valueString":"American Indian or Alaska Native"}]},{"url":"http://hl7.org/fhir/us/core/StructureDefinition/us-core-ethnicity","extension":[{"url":"ombCategory","valueCoding":{"system":"urn:oid:2.16.840.1.113883.6.238","code":"2135-2","display":"Hispanic or Latino","userSelected":true}},{"url":"text","valueString":"Hispanic or Latino"}]}],"identifier":[{"type":{"coding":[{"system":"http://terminology.hl7.org/CodeSystem/v2-0203","code":"MR"}]},"system":"https://bonnie-fhir.healthit.gov/","value":"63487c300968f801225401ca"}],"active":true,"name":[{"use":"usual","family":"DENOMFail","given":["AssessTimeOfDelivResultB4DelivEncStart"]}],"gender":"female","birthDate":"1998-02-14"},"request":{"method":"PUT","url":"Patient/bd369a0e-1c2c-4bd8-863c-27776268efb7"}},{"fullUrl":"https://madie.cms.gov/Observation/3a938e8e-3b1d-4b05-973f-e1d7594e329c","resource":{"resourceType":"Observation","id":"3a938e8e-3b1d-4b05-973f-e1d7594e329c","meta":{"profile":["http://hl7.org/fhir/us/qicore/StructureDefinition/qicore-observation"]},"status":"final","category":[{"coding":[{"system":"http://terminology.hl7.org/CodeSystem/observation-category","code":"exam","display":"exam","userSelected":true}]}],"code":{"coding":[{"system":"http://loinc.org","code":"11996-6"}]},"subject":{"reference":"Patient/bd369a0e-1c2c-4bd8-863c-27776268efb7"},"effectiveDateTime":"2026-02-09T08:00:00.000+00:00","valueInteger":1},"request":{"method":"PUT","url":"Observation/3a938e8e-3b1d-4b05-973f-e1d7594e329c"}},{"fullUrl":"https://madie.cms.gov/Observation/d0c38ee3-3da1-4a7d-8ccd-31c842dfb378","resource":{"resourceType":"Observation","id":"d0c38ee3-3da1-4a7d-8ccd-31c842dfb378","meta":{"profile":["http://hl7.org/fhir/us/qicore/StructureDefinition/qicore-simple-observation"]},"status":"final","category":[{"coding":[{"system":"http://terminology.hl7.org/CodeSystem/observation-category","code":"exam","display":"exam","userSelected":true}]}],"code":{"coding":[{"system":"http://loinc.org","code":"93857-1"}]},"subject":{"reference":"Patient/bd369a0e-1c2c-4bd8-863c-27776268efb7"},"effectiveDateTime":"2026-11-28T21:30:00.000+00:00","performer":[{"reference":"Organization/example1","display":"Hendricks Country Hospital"}],"valueDateTime":"2026-11-28T07:59:00.000+00:00"},"request":{"method":"PUT","url":"Observation/d0c38ee3-3da1-4a7d-8ccd-31c842dfb378"}},{"fullUrl":"https://madie.cms.gov/Encounter/97ee7eb9-991d-42b2-bb45-5c05688aa88d","resource":{"resourceType":"Encounter","id":"97ee7eb9-991d-42b2-bb45-5c05688aa88d","meta":{"profile":["http://hl7.org/fhir/us/qicore/StructureDefinition/qicore-encounter"]},"status":"finished","class":{"system":"http://terminology.hl7.org/CodeSystem/v3-ActCode","code":"IMP","display":"inpatient encounter"},"type":[{"coding":[{"system":"http://snomed.info/sct","code":"8715000"}]}],"subject":{"reference":"Patient/bd369a0e-1c2c-4bd8-863c-27776268efb7"},"period":{"start":"2026-11-28T08:00:00.000+00:00","end":"2026-11-30T08:15:00.000+00:00"},"length":{"value":2,"unit":"days"},"reasonCode":[{"coding":[{"system":"http://snomed.info/sct","code":"169826009","display":"Single live birth from singleton pregnancy (finding)"}]}]},"request":{"method":"PUT","url":"Encounter/97ee7eb9-991d-42b2-bb45-5c05688aa88d"}},{"fullUrl":"https://madie.cms.gov/Procedure/1cfffc99-aaf2-4c20-8d99-865ef9cef625","resource":{"resourceType":"Procedure","id":"1cfffc99-aaf2-4c20-8d99-865ef9cef625","meta":{"profile":["http://hl7.org/fhir/us/qicore/StructureDefinition/qicore-procedure"]},"extension":[{"url":"http://hl7.org/fhir/us/qicore/StructureDefinition/qicore-recorded","valueDateTime":"2014-04-05T13:35:00.000+00:00"}],"status":"completed","code":{"coding":[{"system":"http://snomed.info/sct","code":"22633006"}]},"subject":{"reference":"Patient/bd369a0e-1c2c-4bd8-863c-27776268efb7"},"performedPeriod":{"start":"2026-11-28T20:00:00.000+00:00","end":"2026-11-28T20:15:00.000+00:00"}},"request":{"method":"PUT","url":"Procedure/1cfffc99-aaf2-4c20-8d99-865ef9cef625"}},{"fullUrl":"https://madie.cms.gov/Condition/ff12cfd6-7cce-4742-9149-de4f55b790e1","resource":{"resourceType":"Condition","id":"ff12cfd6-7cce-4742-9149-de4f55b790e1","meta":{"profile":["http://hl7.org/fhir/us/qicore/StructureDefinition/qicore-condition"]},"category":[{"coding":[{"system":"http://terminology.hl7.org/CodeSystem/condition-category","code":"encounter-diagnosis","display":"Encounter Diagnosis"}]}],"code":{"coding":[{"system":"http://snomed.info/sct","version":"2022-09","code":"169826009","display":"Single live birth (finding)","userSelected":true}]},"subject":{"reference":"Patient/bd369a0e-1c2c-4bd8-863c-27776268efb7"},"recordedDate":"2026-10-21T08:00:00.000+00:00"},"request":{"method":"PUT","url":"Condition/ff12cfd6-7cce-4742-9149-de4f55b790e1"}},{"fullUrl":"https://madie.cms.gov/Coverage/6fd2e692-d285-40a5-9982-42c2e0ad8975","resource":{"resourceType":"Coverage","id":"6fd2e692-d285-40a5-9982-42c2e0ad8975","meta":{"profile":["http://hl7.org/fhir/us/qicore/StructureDefinition/qicore-coverage"]},"status":"active","subscriberId":"523435","beneficiary":{"reference":"Patient/bd369a0e-1c2c-4bd8-863c-27776268efb7"},"relationship":{"coding":[{"system":"http://terminology.hl7.org/CodeSystem/subscriber-relationship","code":"self"}]},"payor":[{"reference":"Organization/b855317a-e690-4011-a7ac-9ccf1bbeafd2"}]},"request":{"method":"PUT","url":"Coverage/6fd2e692-d285-40a5-9982-42c2e0ad8975"}},{"fullUrl":"https://madie.cms.gov/Organization/b855317a-e690-4011-a7ac-9ccf1bbeafd2","resource":{"resourceType":"Organization","id":"b855317a-e690-4011-a7ac-9ccf1bbeafd2","meta":{"profile":["http://hl7.org/fhir/us/qicore/StructureDefinition/qicore-organization"]},"identifier":[{"use":"temp","system":"urn:oid:2.16.840.1.113883.4.4","value":"21-3259825"}],"active":true,"type":[{"coding":[{"system":"http://terminology.hl7.org/CodeSystem/organization-type","code":"pay","display":"Payer"}]}],"name":"Blue Cross Blue Shield of Texas","telecom":[{"system":"phone","value":"(+1) 972-766-6900"}],"address":[{"use":"billing","type":"postal","line":["P.O. Box 660044"],"city":"Dallas","state":"TX","postalCode":"75266-0044","country":"USA"}]},"request":{"method":"PUT","url":"Organization/b855317a-e690-4011-a7ac-9ccf1bbeafd2"}},{"fullUrl":"https://madie.cms.gov/Practitioner/848f23a6-b7ae-4008-922a-4332d2f7ae80","resource":{"resourceType":"Practitioner","id":"848f23a6-b7ae-4008-922a-4332d2f7ae80","meta":{"profile":["http://hl7.org/fhir/us/qicore/StructureDefinition/qicore-practitioner"]},"identifier":[{"system":"http://hl7.org/fhir/sid/us-npi","value":"1234567890"}],"name":[{"family":"Evil","prefix":["Dr"]}]},"request":{"method":"PUT","url":"Practitioner/848f23a6-b7ae-4008-922a-4332d2f7ae80"}},{"fullUrl":"https://madie.cms.gov/MeasureReport/7f913d88-1060-4d51-8bd9-72a9e8a21057","resource":{"resourceType":"MeasureReport","id":"7f913d88-1060-4d51-8bd9-72a9e8a21057","meta":{"profile":["http://hl7.org/fhir/us/cqfmeasures/StructureDefinition/test-case-cqfm"]},"contained":[{"resourceType":"Parameters","id":"dae1979f-59ff-4899-8eab-4e55d3e200bf-parameters","parameter":[{"name":"subject","valueString":"bd369a0e-1c2c-4bd8-863c-27776268efb7"}]}],"extension":[{"url":"http://hl7.org/fhir/StructureDefinition/cqf-inputParameters","valueReference":{"reference":"#dae1979f-59ff-4899-8eab-4e55d3e200bf-parameters"}},{"url":"http://hl7.org/fhir/us/cqfmeasures/StructureDefinition/cqfm-testCaseDescription","valueMarkdown":"Passes IP, Gravida 1(auth 42 weeks);  Proc is not Cesarean Birth. LastTimeOfDelivery result before Delivery Encounter Start Time.   \n"}],"modifierExtension":[{"url":"http://hl7.org/fhir/us/cqfmeasures/StructureDefinition/cqfm-isTestCase","valueBoolean":true}],"status":"complete","type":"individual","measure":"https://madie.cms.gov/Measure/CMS0334FHIRPCCesareanBirth","period":{"start":"2026-01-01","end":"2026-12-31"},"group":[{"id":"Group_1","population":[{"id":"InitialPopulation_1","code":{"coding":[{"system":"http://terminology.hl7.org/CodeSystem/measure-population","code":"initial-population","display":"Initial Population"}]},"count":1},{"id":"Denominator_1","code":{"coding":[{"system":"http://terminology.hl7.org/CodeSystem/measure-population","code":"denominator","display":"Denominator"}]},"count":0},{"id":"DenominatorExclusion_1","code":{"coding":[{"system":"http://terminology.hl7.org/CodeSystem/measure-population","code":"denominator-exclusion","display":"Denominator Exclusion"}]},"count":0},{"id":"Numerator_1","code":{"coding":[{"system":"http://terminology.hl7.org/CodeSystem/measure-population","code":"numerator","display":"Numerator"}]},"count":0}],"measureScore":{"value":0.0}}],"evaluatedResource":[{"reference":"Patient/bd369a0e-1c2c-4bd8-863c-27776268efb7"},{"reference":"Observation/3a938e8e-3b1d-4b05-973f-e1d7594e329c"},{"reference":"Observation/d0c38ee3-3da1-4a7d-8ccd-31c842dfb378"},{"reference":"Encounter/97ee7eb9-991d-42b2-bb45-5c05688aa88d"},{"reference":"Procedure/1cfffc99-aaf2-4c20-8d99-865ef9cef625"},{"reference":"Condition/ff12cfd6-7cce-4742-9149-de4f55b790e1"},{"reference":"Coverage/6fd2e692-d285-40a5-9982-42c2e0ad8975"},{"reference":"Organization/b855317a-e690-4011-a7ac-9ccf1bbeafd2"},{"reference":"Practitioner/848f23a6-b7ae-4008-922a-4332d2f7ae80"}]},"request":{"method":"PUT","url":"MeasureReport/7f913d88-1060-4d51-8bd9-72a9e8a21057"}}]},"request":{"method":"PUT","url":"Bundle/63487c300968f801225401ca"}},{"resource":{"resourceType":"MeasureReport","id":"7f913d88-1060-4d51-8bd9-72a9e8a21057","meta":{"profile":["http://hl7.org/fhir/us/cqfmeasures/StructureDefinition/test-case-cqfm"]},"contained":[{"resourceType":"Parameters","id":"dae1979f-59ff-4899-8eab-4e55d3e200bf-parameters","parameter":[{"name":"subject","valueString":"bd369a0e-1c2c-4bd8-863c-27776268efb7"}]}],"extension":[{"url":"http://hl7.org/fhir/StructureDefinition/cqf-inputParameters","valueReference":{"reference":"#dae1979f-59ff-4899-8eab-4e55d3e200bf-parameters"}},{"url":"http://hl7.org/fhir/us/cqfmeasures/StructureDefinition/cqfm-testCaseDescription","valueMarkdown":"Passes IP, Gravida 1(auth 42 weeks);  Proc is not Cesarean Birth. LastTimeOfDelivery result before Delivery Encounter Start Time.   \n"}],"modifierExtension":[{"url":"http://hl7.org/fhir/us/cqfmeasures/StructureDefinition/cqfm-isTestCase","valueBoolean":true}],"status":"complete","type":"individual","measure":"https://madie.cms.gov/Measure/CMS0334FHIRPCCesareanBirth","period":{"start":"2026-01-01","end":"2026-12-31"},"group":[{"id":"Group_1","population":[{"id":"InitialPopulation_1","code":{"coding":[{"system":"http://terminology.hl7.org/CodeSystem/measure-population","code":"initial-population","display":"Initial Population"}]},"count":1},{"id":"Denominator_1","code":{"coding":[{"system":"http://terminology.hl7.org/CodeSystem/measure-population","code":"denominator","display":"Denominator"}]},"count":0},{"id":"DenominatorExclusion_1","code":{"coding":[{"system":"http://terminology.hl7.org/CodeSystem/measure-population","code":"denominator-exclusion","display":"Denominator Exclusion"}]},"count":0},{"id":"Numerator_1","code":{"coding":[{"system":"http://terminology.hl7.org/CodeSystem/measure-population","code":"numerator","display":"Numerator"}]},"count":0}],"measureScore":{"value":0.0}}],"evaluatedResource":[{"reference":"Patient/bd369a0e-1c2c-4bd8-863c-27776268efb7"},{"reference":"Observation/3a938e8e-3b1d-4b05-973f-e1d7594e329c"},{"reference":"Observation/d0c38ee3-3da1-4a7d-8ccd-31c842dfb378"},{"reference":"Encounter/97ee7eb9-991d-42b2-bb45-5c05688aa88d"},{"reference":"Procedure/1cfffc99-aaf2-4c20-8d99-865ef9cef625"},{"reference":"Condition/ff12cfd6-7cce-4742-9149-de4f55b790e1"},{"reference":"Coverage/6fd2e692-d285-40a5-9982-42c2e0ad8975"},{"reference":"Organization/b855317a-e690-4011-a7ac-9ccf1bbeafd2"},{"reference":"Practitioner/848f23a6-b7ae-4008-922a-4332d2f7ae80"}]},"request":{"method":"PUT","url":"MeasureReport/7f913d88-1060-4d51-8bd9-72a9e8a21057"}},{"resource":{"resourceType":"Procedure","id":"1cfffc99-aaf2-4c20-8d99-865ef9cef625","meta":{"profile":["http://hl7.org/fhir/us/qicore/StructureDefinition/qicore-procedure"]},"extension":[{"url":"http://hl7.org/fhir/us/qicore/StructureDefinition/qicore-recorded","valueDateTime":"2014-04-05T13:35:00.000+00:00"}],"status":"completed","code":{"coding":[{"system":"http://snomed.info/sct","code":"22633006"}]},"subject":{"reference":"Patient/bd369a0e-1c2c-4bd8-863c-27776268efb7"},"performedPeriod":{"start":"2026-11-28T20:00:00.000+00:00","end":"2026-11-28T20:15:00.000+00:00"}},"request":{"method":"PUT","url":"Procedure/1cfffc99-aaf2-4c20-8d99-865ef9cef625"}},{"resource":{"resourceType":"Condition","id":"ff12cfd6-7cce-4742-9149-de4f55b790e1","meta":{"profile":["http://hl7.org/fhir/us/qicore/StructureDefinition/qicore-condition"]},"category":[{"coding":[{"system":"http://terminology.hl7.org/CodeSystem/condition-category","code":"encounter-diagnosis","display":"Encounter Diagnosis"}]}],"code":{"coding":[{"system":"http://snomed.info/sct","version":"2022-09","code":"169826009","display":"Single live birth (finding)","userSelected":true}]},"subject":{"reference":"Patient/bd369a0e-1c2c-4bd8-863c-27776268efb7"},"recordedDate":"2026-10-21T08:00:00.000+00:00"},"request":{"method":"PUT","url":"Condition/ff12cfd6-7cce-4742-9149-de4f55b790e1"}},{"resource":{"resourceType":"Encounter","id":"97ee7eb9-991d-42b2-bb45-5c05688aa88d","meta":{"profile":["http://hl7.org/fhir/us/qicore/StructureDefinition/qicore-encounter"]},"status":"finished","class":{"system":"http://terminology.hl7.org/CodeSystem/v3-ActCode","code":"IMP","display":"inpatient encounter"},"type":[{"coding":[{"system":"http://snomed.info/sct","code":"8715000"}]}],"subject":{"reference":"Patient/bd369a0e-1c2c-4bd8-863c-27776268efb7"},"period":{"start":"2026-11-28T08:00:00.000+00:00","end":"2026-11-30T08:15:00.000+00:00"},"length":{"value":2,"unit":"days"},"reasonCode":[{"coding":[{"system":"http://snomed.info/sct","code":"169826009","display":"Single live birth from singleton pregnancy (finding)"}]}]},"request":{"method":"PUT","url":"Encounter/97ee7eb9-991d-42b2-bb45-5c05688aa88d"}},{"resource":{"resourceType":"Practitioner","id":"848f23a6-b7ae-4008-922a-4332d2f7ae80","meta":{"profile":["http://hl7.org/fhir/us/qicore/StructureDefinition/qicore-practitioner"]},"identifier":[{"system":"http://hl7.org/fhir/sid/us-npi","value":"1234567890"}],"name":[{"family":"Evil","prefix":["Dr"]}]},"request":{"method":"PUT","url":"Practitioner/848f23a6-b7ae-4008-922a-4332d2f7ae80"}},{"resource":{"resourceType":"Observation","id":"3a938e8e-3b1d-4b05-973f-e1d7594e329c","meta":{"profile":["http://hl7.org/fhir/us/qicore/StructureDefinition/qicore-observation"]},"status":"final","category":[{"coding":[{"system":"http://terminology.hl7.org/CodeSystem/observation-category","code":"exam","display":"exam","userSelected":true}]}],"code":{"coding":[{"system":"http://loinc.org","code":"11996-6"}]},"subject":{"reference":"Patient/bd369a0e-1c2c-4bd8-863c-27776268efb7"},"effectiveDateTime":"2026-02-09T08:00:00.000+00:00","valueInteger":1},"request":{"method":"PUT","url":"Observation/3a938e8e-3b1d-4b05-973f-e1d7594e329c"}}]}