{"resourceType":"Bundle","id":"tests-f75e88bd-763c-45ee-9926-da176be47cd9-bundle","type":"transaction","entry":[{"resource":{"resourceType":"Observation","id":"9f985dc4-3cfc-4361-b8ed-b89c202ff8c3","meta":{"profile":["http://hl7.org/fhir/us/qicore/StructureDefinition/qicore-simple-observation"]},"status":"final","category":[{"coding":[{"system":"http://terminology.hl7.org/CodeSystem/observation-category","code":"exam","display":"exam","userSelected":true}]}],"code":{"coding":[{"system":"http://loinc.org","code":"93857-1"}]},"subject":{"reference":"Patient/f75e88bd-763c-45ee-9926-da176be47cd9"},"effectiveDateTime":"2026-06-08T09:15:00.000+00:00","performer":[{"reference":"Organization/example1","display":"Hendricks Country Hospital"}],"valueDateTime":"2026-06-08T09:15:00.000+00:00"},"request":{"method":"PUT","url":"Observation/9f985dc4-3cfc-4361-b8ed-b89c202ff8c3"}},{"resource":{"resourceType":"Procedure","id":"64da8db0-1853-4a78-8b38-669fdf1faeb7","meta":{"profile":["http://hl7.org/fhir/us/qicore/StructureDefinition/qicore-procedure"]},"extension":[{"url":"http://hl7.org/fhir/us/qicore/StructureDefinition/qicore-recorded","valueDateTime":"2014-04-05T13:35:00.000+00:00"}],"status":"completed","code":{"coding":[{"system":"http://www.cms.gov/Medicare/Coding/ICD10","code":"10D00Z0"}]},"subject":{"reference":"Patient/f75e88bd-763c-45ee-9926-da176be47cd9"},"performedPeriod":{"start":"2026-06-08T08:00:00.000+00:00","end":"2026-06-08T09:15:00.000+00:00"}},"request":{"method":"PUT","url":"Procedure/64da8db0-1853-4a78-8b38-669fdf1faeb7"}},{"resource":{"resourceType":"Patient","id":"f75e88bd-763c-45ee-9926-da176be47cd9","meta":{"profile":["http://hl7.org/fhir/us/qicore/StructureDefinition/qicore-patient"]},"text":{"status":"generated","div":"<div xmlns=\"http://www.w3.org/1999/xhtml\"><div class=\"hapiHeaderText\">EGABadUnit<b>DENOMFail</b></div><table class=\"hapiPropertyTable\"><tbody><tr><td>Identifier</td><td>73d161bbd72a0b8d656073de21758ea0022c984462702bb844daf97a7291f479</td></tr><tr><td>Date of birth</td><td><span>14 February 1985</span></td></tr></tbody></table></div>"},"extension":[{"url":"http://hl7.org/fhir/us/core/StructureDefinition/us-core-race","extension":[{"url":"ombCategory","valueCoding":{"system":"urn:oid:2.16.840.1.113883.6.238","code":"1002-5","display":"American Indian or Alaska Native","userSelected":true}},{"url":"text","valueString":"American Indian or Alaska Native"}]},{"url":"http://hl7.org/fhir/us/core/StructureDefinition/us-core-ethnicity","extension":[{"url":"ombCategory","valueCoding":{"system":"urn:oid:2.16.840.1.113883.6.238","code":"2135-2","display":"Hispanic or Latino","userSelected":true}},{"url":"text","valueString":"Hispanic or Latino"}]}],"identifier":[{"type":{"coding":[{"system":"http://terminology.hl7.org/CodeSystem/v2-0203","code":"MR"}]},"system":"https://bonnie-fhir.healthit.gov/","value":"63487c2f0968f801225401a2"}],"active":true,"name":[{"use":"usual","family":"DENOMFail","given":["EGABadUnit"]}],"gender":"female","birthDate":"1998-02-14"},"request":{"method":"PUT","url":"Patient/f75e88bd-763c-45ee-9926-da176be47cd9"}},{"resource":{"resourceType":"Encounter","id":"a91ff095-0bef-456b-9ace-2f53783129bb","meta":{"profile":["http://hl7.org/fhir/us/qicore/StructureDefinition/qicore-encounter"]},"status":"finished","class":{"system":"http://terminology.hl7.org/CodeSystem/v3-ActCode","code":"IMP","display":"inpatient encounter"},"type":[{"coding":[{"system":"http://snomed.info/sct","code":"183452005"}]}],"subject":{"reference":"Patient/f75e88bd-763c-45ee-9926-da176be47cd9"},"period":{"start":"2026-06-08T08:00:00.000+00:00","end":"2026-06-10T08:15:00.000+00:00"},"length":{"value":2,"unit":"days"},"reasonCode":[{"coding":[{"system":"http://snomed.info/sct","code":"169826009","display":"Single live birth from singleton pregnancy (finding)"}]}]},"request":{"method":"PUT","url":"Encounter/a91ff095-0bef-456b-9ace-2f53783129bb"}},{"resource":{"resourceType":"Bundle","id":"63487c2f0968f801225401a2","type":"transaction","entry":[{"fullUrl":"https://madie.cms.gov/Patient/f75e88bd-763c-45ee-9926-da176be47cd9","resource":{"resourceType":"Patient","id":"f75e88bd-763c-45ee-9926-da176be47cd9","meta":{"profile":["http://hl7.org/fhir/us/qicore/StructureDefinition/qicore-patient"]},"text":{"status":"generated","div":"<div xmlns=\"http://www.w3.org/1999/xhtml\"><div class=\"hapiHeaderText\">EGABadUnit<b>DENOMFail</b></div><table class=\"hapiPropertyTable\"><tbody><tr><td>Identifier</td><td>73d161bbd72a0b8d656073de21758ea0022c984462702bb844daf97a7291f479</td></tr><tr><td>Date of birth</td><td><span>14 February 1985</span></td></tr></tbody></table></div>"},"extension":[{"url":"http://hl7.org/fhir/us/core/StructureDefinition/us-core-race","extension":[{"url":"ombCategory","valueCoding":{"system":"urn:oid:2.16.840.1.113883.6.238","code":"1002-5","display":"American Indian or Alaska Native","userSelected":true}},{"url":"text","valueString":"American Indian or Alaska Native"}]},{"url":"http://hl7.org/fhir/us/core/StructureDefinition/us-core-ethnicity","extension":[{"url":"ombCategory","valueCoding":{"system":"urn:oid:2.16.840.1.113883.6.238","code":"2135-2","display":"Hispanic or Latino","userSelected":true}},{"url":"text","valueString":"Hispanic or Latino"}]}],"identifier":[{"type":{"coding":[{"system":"http://terminology.hl7.org/CodeSystem/v2-0203","code":"MR"}]},"system":"https://bonnie-fhir.healthit.gov/","value":"63487c2f0968f801225401a2"}],"active":true,"name":[{"use":"usual","family":"DENOMFail","given":["EGABadUnit"]}],"gender":"female","birthDate":"1998-02-14"},"request":{"method":"PUT","url":"Patient/f75e88bd-763c-45ee-9926-da176be47cd9"}},{"fullUrl":"https://madie.cms.gov/Observation/c243f205-f821-451d-a14a-eb7801e46f9a","resource":{"resourceType":"Observation","id":"c243f205-f821-451d-a14a-eb7801e46f9a","meta":{"profile":["http://hl7.org/fhir/us/qicore/StructureDefinition/qicore-simple-observation"]},"status":"final","category":[{"coding":[{"system":"http://terminology.hl7.org/CodeSystem/observation-category","code":"exam","display":"exam","userSelected":true}]}],"code":{"coding":[{"system":"http://loinc.org","code":"11996-6"}]},"subject":{"reference":"Patient/f75e88bd-763c-45ee-9926-da176be47cd9"},"effectiveDateTime":"2026-06-08T08:00:00.000+00:00","performer":[{"reference":"Organization/example1","display":"Hendricks Country Hospital"}],"valueInteger":1},"request":{"method":"PUT","url":"Observation/c243f205-f821-451d-a14a-eb7801e46f9a"}},{"fullUrl":"https://madie.cms.gov/Observation/6f0dde04-70cf-4dea-b9da-c0225c457de3","resource":{"resourceType":"Observation","id":"6f0dde04-70cf-4dea-b9da-c0225c457de3","meta":{"profile":["http://hl7.org/fhir/us/qicore/StructureDefinition/qicore-simple-observation"]},"status":"final","category":[{"coding":[{"system":"http://terminology.hl7.org/CodeSystem/observation-category","code":"exam","display":"exam","userSelected":true}]}],"code":{"coding":[{"system":"http://loinc.org","code":"11884-4"}]},"subject":{"reference":"Patient/f75e88bd-763c-45ee-9926-da176be47cd9"},"effectiveDateTime":"2026-06-08T09:15:00.000+00:00","performer":[{"reference":"Organization/example1","display":"Hendricks Country Hospital"}],"valueQuantity":{"value":37,"system":"http://unitsofmeasure.org","code":"cm"}},"request":{"method":"PUT","url":"Observation/6f0dde04-70cf-4dea-b9da-c0225c457de3"}},{"fullUrl":"https://madie.cms.gov/Observation/9f985dc4-3cfc-4361-b8ed-b89c202ff8c3","resource":{"resourceType":"Observation","id":"9f985dc4-3cfc-4361-b8ed-b89c202ff8c3","meta":{"profile":["http://hl7.org/fhir/us/qicore/StructureDefinition/qicore-simple-observation"]},"status":"final","category":[{"coding":[{"system":"http://terminology.hl7.org/CodeSystem/observation-category","code":"exam","display":"exam","userSelected":true}]}],"code":{"coding":[{"system":"http://loinc.org","code":"93857-1"}]},"subject":{"reference":"Patient/f75e88bd-763c-45ee-9926-da176be47cd9"},"effectiveDateTime":"2026-06-08T09:15:00.000+00:00","performer":[{"reference":"Organization/example1","display":"Hendricks Country Hospital"}],"valueDateTime":"2026-06-08T09:15:00.000+00:00"},"request":{"method":"PUT","url":"Observation/9f985dc4-3cfc-4361-b8ed-b89c202ff8c3"}},{"fullUrl":"https://madie.cms.gov/Encounter/a91ff095-0bef-456b-9ace-2f53783129bb","resource":{"resourceType":"Encounter","id":"a91ff095-0bef-456b-9ace-2f53783129bb","meta":{"profile":["http://hl7.org/fhir/us/qicore/StructureDefinition/qicore-encounter"]},"status":"finished","class":{"system":"http://terminology.hl7.org/CodeSystem/v3-ActCode","code":"IMP","display":"inpatient encounter"},"type":[{"coding":[{"system":"http://snomed.info/sct","code":"183452005"}]}],"subject":{"reference":"Patient/f75e88bd-763c-45ee-9926-da176be47cd9"},"period":{"start":"2026-06-08T08:00:00.000+00:00","end":"2026-06-10T08:15:00.000+00:00"},"length":{"value":2,"unit":"days"},"reasonCode":[{"coding":[{"system":"http://snomed.info/sct","code":"169826009","display":"Single live birth from singleton pregnancy (finding)"}]}]},"request":{"method":"PUT","url":"Encounter/a91ff095-0bef-456b-9ace-2f53783129bb"}},{"fullUrl":"https://madie.cms.gov/Procedure/64da8db0-1853-4a78-8b38-669fdf1faeb7","resource":{"resourceType":"Procedure","id":"64da8db0-1853-4a78-8b38-669fdf1faeb7","meta":{"profile":["http://hl7.org/fhir/us/qicore/StructureDefinition/qicore-procedure"]},"extension":[{"url":"http://hl7.org/fhir/us/qicore/StructureDefinition/qicore-recorded","valueDateTime":"2014-04-05T13:35:00.000+00:00"}],"status":"completed","code":{"coding":[{"system":"http://www.cms.gov/Medicare/Coding/ICD10","code":"10D00Z0"}]},"subject":{"reference":"Patient/f75e88bd-763c-45ee-9926-da176be47cd9"},"performedPeriod":{"start":"2026-06-08T08:00:00.000+00:00","end":"2026-06-08T09:15:00.000+00:00"}},"request":{"method":"PUT","url":"Procedure/64da8db0-1853-4a78-8b38-669fdf1faeb7"}},{"fullUrl":"https://madie.cms.gov/Condition/16baabf7-8755-4f9b-9f37-91c0de0e6dda","resource":{"resourceType":"Condition","id":"16baabf7-8755-4f9b-9f37-91c0de0e6dda","meta":{"profile":["http://hl7.org/fhir/us/qicore/StructureDefinition/qicore-condition"]},"category":[{"coding":[{"system":"http://terminology.hl7.org/CodeSystem/condition-category","code":"encounter-diagnosis","display":"Encounter Diagnosis"}]}],"code":{"coding":[{"system":"http://snomed.info/sct","version":"2022-09","code":"169826009","display":"Single live birth (finding)","userSelected":true}]},"subject":{"reference":"Patient/f75e88bd-763c-45ee-9926-da176be47cd9"},"recordedDate":"2026-10-21T08:00:00.000+00:00"},"request":{"method":"PUT","url":"Condition/16baabf7-8755-4f9b-9f37-91c0de0e6dda"}},{"fullUrl":"https://madie.cms.gov/Coverage/2d109a4f-237b-4d53-9f32-6f000eecd413","resource":{"resourceType":"Coverage","id":"2d109a4f-237b-4d53-9f32-6f000eecd413","meta":{"profile":["http://hl7.org/fhir/us/qicore/StructureDefinition/qicore-coverage"]},"status":"active","subscriberId":"523435","beneficiary":{"reference":"Patient/f75e88bd-763c-45ee-9926-da176be47cd9"},"relationship":{"coding":[{"system":"http://terminology.hl7.org/CodeSystem/subscriber-relationship","code":"self"}]},"payor":[{"reference":"Organization/266d7528-a280-4d0a-b2d2-768cfbcc3bb2"}]},"request":{"method":"PUT","url":"Coverage/2d109a4f-237b-4d53-9f32-6f000eecd413"}},{"fullUrl":"https://madie.cms.gov/Organization/266d7528-a280-4d0a-b2d2-768cfbcc3bb2","resource":{"resourceType":"Organization","id":"266d7528-a280-4d0a-b2d2-768cfbcc3bb2","meta":{"profile":["http://hl7.org/fhir/us/qicore/StructureDefinition/qicore-organization"]},"identifier":[{"use":"temp","system":"urn:oid:2.16.840.1.113883.4.4","value":"21-3259825"}],"active":true,"type":[{"coding":[{"system":"http://terminology.hl7.org/CodeSystem/organization-type","code":"pay","display":"Payer"}]}],"name":"Blue Cross Blue Shield of Texas","telecom":[{"system":"phone","value":"(+1) 972-766-6900"}],"address":[{"use":"billing","type":"postal","line":["P.O. Box 660044"],"city":"Dallas","state":"TX","postalCode":"75266-0044","country":"USA"}]},"request":{"method":"PUT","url":"Organization/266d7528-a280-4d0a-b2d2-768cfbcc3bb2"}},{"fullUrl":"https://madie.cms.gov/Practitioner/e00597dd-eab7-47ce-b855-98a1d75e7f89","resource":{"resourceType":"Practitioner","id":"e00597dd-eab7-47ce-b855-98a1d75e7f89","meta":{"profile":["http://hl7.org/fhir/us/qicore/StructureDefinition/qicore-practitioner"]},"identifier":[{"system":"http://hl7.org/fhir/sid/us-npi","value":"1234567890"}],"name":[{"family":"Evil","prefix":["Dr"]}]},"request":{"method":"PUT","url":"Practitioner/e00597dd-eab7-47ce-b855-98a1d75e7f89"}},{"fullUrl":"https://madie.cms.gov/MeasureReport/5c9ec8d4-0361-4e4e-8e71-a530baf0a692","resource":{"resourceType":"MeasureReport","id":"5c9ec8d4-0361-4e4e-8e71-a530baf0a692","meta":{"profile":["http://hl7.org/fhir/us/cqfmeasures/StructureDefinition/test-case-cqfm"]},"contained":[{"resourceType":"Parameters","id":"21806013-a9b5-4181-9b82-c41793e758e5-parameters","parameter":[{"name":"subject","valueString":"f75e88bd-763c-45ee-9926-da176be47cd9"}]}],"extension":[{"url":"http://hl7.org/fhir/StructureDefinition/cqf-inputParameters","valueReference":{"reference":"#21806013-a9b5-4181-9b82-c41793e758e5-parameters"}},{"url":"http://hl7.org/fhir/us/cqfmeasures/StructureDefinition/cqfm-testCaseDescription","valueMarkdown":"Passes: IP, Fails DENOM  Pt is 27 years of age,  encounter dx of delivery of singleton, gravida, EGA @ 37 but the units are bad (not wk or weeks)\n"}],"modifierExtension":[{"url":"http://hl7.org/fhir/us/cqfmeasures/StructureDefinition/cqfm-isTestCase","valueBoolean":true}],"status":"complete","type":"individual","measure":"https://madie.cms.gov/Measure/CMS0334FHIRPCCesareanBirth","period":{"start":"2026-01-01","end":"2026-12-31"},"group":[{"id":"Group_1","population":[{"id":"InitialPopulation_1","code":{"coding":[{"system":"http://terminology.hl7.org/CodeSystem/measure-population","code":"initial-population","display":"Initial Population"}]},"count":1},{"id":"Denominator_1","code":{"coding":[{"system":"http://terminology.hl7.org/CodeSystem/measure-population","code":"denominator","display":"Denominator"}]},"count":0},{"id":"DenominatorExclusion_1","code":{"coding":[{"system":"http://terminology.hl7.org/CodeSystem/measure-population","code":"denominator-exclusion","display":"Denominator Exclusion"}]},"count":0},{"id":"Numerator_1","code":{"coding":[{"system":"http://terminology.hl7.org/CodeSystem/measure-population","code":"numerator","display":"Numerator"}]},"count":0}],"measureScore":{"value":0.0}}],"evaluatedResource":[{"reference":"Patient/f75e88bd-763c-45ee-9926-da176be47cd9"},{"reference":"Observation/c243f205-f821-451d-a14a-eb7801e46f9a"},{"reference":"Observation/6f0dde04-70cf-4dea-b9da-c0225c457de3"},{"reference":"Observation/9f985dc4-3cfc-4361-b8ed-b89c202ff8c3"},{"reference":"Encounter/a91ff095-0bef-456b-9ace-2f53783129bb"},{"reference":"Procedure/64da8db0-1853-4a78-8b38-669fdf1faeb7"},{"reference":"Condition/16baabf7-8755-4f9b-9f37-91c0de0e6dda"},{"reference":"Coverage/2d109a4f-237b-4d53-9f32-6f000eecd413"},{"reference":"Organization/266d7528-a280-4d0a-b2d2-768cfbcc3bb2"},{"reference":"Practitioner/e00597dd-eab7-47ce-b855-98a1d75e7f89"}]},"request":{"method":"PUT","url":"MeasureReport/5c9ec8d4-0361-4e4e-8e71-a530baf0a692"}}]},"request":{"method":"PUT","url":"Bundle/63487c2f0968f801225401a2"}},{"resource":{"resourceType":"Practitioner","id":"e00597dd-eab7-47ce-b855-98a1d75e7f89","meta":{"profile":["http://hl7.org/fhir/us/qicore/StructureDefinition/qicore-practitioner"]},"identifier":[{"system":"http://hl7.org/fhir/sid/us-npi","value":"1234567890"}],"name":[{"family":"Evil","prefix":["Dr"]}]},"request":{"method":"PUT","url":"Practitioner/e00597dd-eab7-47ce-b855-98a1d75e7f89"}},{"resource":{"resourceType":"Observation","id":"6f0dde04-70cf-4dea-b9da-c0225c457de3","meta":{"profile":["http://hl7.org/fhir/us/qicore/StructureDefinition/qicore-simple-observation"]},"status":"final","category":[{"coding":[{"system":"http://terminology.hl7.org/CodeSystem/observation-category","code":"exam","display":"exam","userSelected":true}]}],"code":{"coding":[{"system":"http://loinc.org","code":"11884-4"}]},"subject":{"reference":"Patient/f75e88bd-763c-45ee-9926-da176be47cd9"},"effectiveDateTime":"2026-06-08T09:15:00.000+00:00","performer":[{"reference":"Organization/example1","display":"Hendricks Country Hospital"}],"valueQuantity":{"value":37,"system":"http://unitsofmeasure.org","code":"cm"}},"request":{"method":"PUT","url":"Observation/6f0dde04-70cf-4dea-b9da-c0225c457de3"}},{"resource":{"resourceType":"Organization","id":"266d7528-a280-4d0a-b2d2-768cfbcc3bb2","meta":{"profile":["http://hl7.org/fhir/us/qicore/StructureDefinition/qicore-organization"]},"identifier":[{"use":"temp","system":"urn:oid:2.16.840.1.113883.4.4","value":"21-3259825"}],"active":true,"type":[{"coding":[{"system":"http://terminology.hl7.org/CodeSystem/organization-type","code":"pay","display":"Payer"}]}],"name":"Blue Cross Blue Shield of Texas","telecom":[{"system":"phone","value":"(+1) 972-766-6900"}],"address":[{"use":"billing","type":"postal","line":["P.O. Box 660044"],"city":"Dallas","state":"TX","postalCode":"75266-0044","country":"USA"}]},"request":{"method":"PUT","url":"Organization/266d7528-a280-4d0a-b2d2-768cfbcc3bb2"}},{"resource":{"resourceType":"Coverage","id":"2d109a4f-237b-4d53-9f32-6f000eecd413","meta":{"profile":["http://hl7.org/fhir/us/qicore/StructureDefinition/qicore-coverage"]},"status":"active","subscriberId":"523435","beneficiary":{"reference":"Patient/f75e88bd-763c-45ee-9926-da176be47cd9"},"relationship":{"coding":[{"system":"http://terminology.hl7.org/CodeSystem/subscriber-relationship","code":"self"}]},"payor":[{"reference":"Organization/266d7528-a280-4d0a-b2d2-768cfbcc3bb2"}]},"request":{"method":"PUT","url":"Coverage/2d109a4f-237b-4d53-9f32-6f000eecd413"}},{"resource":{"resourceType":"Condition","id":"16baabf7-8755-4f9b-9f37-91c0de0e6dda","meta":{"profile":["http://hl7.org/fhir/us/qicore/StructureDefinition/qicore-condition"]},"category":[{"coding":[{"system":"http://terminology.hl7.org/CodeSystem/condition-category","code":"encounter-diagnosis","display":"Encounter Diagnosis"}]}],"code":{"coding":[{"system":"http://snomed.info/sct","version":"2022-09","code":"169826009","display":"Single live birth (finding)","userSelected":true}]},"subject":{"reference":"Patient/f75e88bd-763c-45ee-9926-da176be47cd9"},"recordedDate":"2026-10-21T08:00:00.000+00:00"},"request":{"method":"PUT","url":"Condition/16baabf7-8755-4f9b-9f37-91c0de0e6dda"}},{"resource":{"resourceType":"MeasureReport","id":"5c9ec8d4-0361-4e4e-8e71-a530baf0a692","meta":{"profile":["http://hl7.org/fhir/us/cqfmeasures/StructureDefinition/test-case-cqfm"]},"contained":[{"resourceType":"Parameters","id":"21806013-a9b5-4181-9b82-c41793e758e5-parameters","parameter":[{"name":"subject","valueString":"f75e88bd-763c-45ee-9926-da176be47cd9"}]}],"extension":[{"url":"http://hl7.org/fhir/StructureDefinition/cqf-inputParameters","valueReference":{"reference":"#21806013-a9b5-4181-9b82-c41793e758e5-parameters"}},{"url":"http://hl7.org/fhir/us/cqfmeasures/StructureDefinition/cqfm-testCaseDescription","valueMarkdown":"Passes: IP, Fails DENOM  Pt is 27 years of age,  encounter dx of delivery of singleton, gravida, EGA @ 37 but the units are bad (not wk or weeks)\n"}],"modifierExtension":[{"url":"http://hl7.org/fhir/us/cqfmeasures/StructureDefinition/cqfm-isTestCase","valueBoolean":true}],"status":"complete","type":"individual","measure":"https://madie.cms.gov/Measure/CMS0334FHIRPCCesareanBirth","period":{"start":"2026-01-01","end":"2026-12-31"},"group":[{"id":"Group_1","population":[{"id":"InitialPopulation_1","code":{"coding":[{"system":"http://terminology.hl7.org/CodeSystem/measure-population","code":"initial-population","display":"Initial Population"}]},"count":1},{"id":"Denominator_1","code":{"coding":[{"system":"http://terminology.hl7.org/CodeSystem/measure-population","code":"denominator","display":"Denominator"}]},"count":0},{"id":"DenominatorExclusion_1","code":{"coding":[{"system":"http://terminology.hl7.org/CodeSystem/measure-population","code":"denominator-exclusion","display":"Denominator Exclusion"}]},"count":0},{"id":"Numerator_1","code":{"coding":[{"system":"http://terminology.hl7.org/CodeSystem/measure-population","code":"numerator","display":"Numerator"}]},"count":0}],"measureScore":{"value":0.0}}],"evaluatedResource":[{"reference":"Patient/f75e88bd-763c-45ee-9926-da176be47cd9"},{"reference":"Observation/c243f205-f821-451d-a14a-eb7801e46f9a"},{"reference":"Observation/6f0dde04-70cf-4dea-b9da-c0225c457de3"},{"reference":"Observation/9f985dc4-3cfc-4361-b8ed-b89c202ff8c3"},{"reference":"Encounter/a91ff095-0bef-456b-9ace-2f53783129bb"},{"reference":"Procedure/64da8db0-1853-4a78-8b38-669fdf1faeb7"},{"reference":"Condition/16baabf7-8755-4f9b-9f37-91c0de0e6dda"},{"reference":"Coverage/2d109a4f-237b-4d53-9f32-6f000eecd413"},{"reference":"Organization/266d7528-a280-4d0a-b2d2-768cfbcc3bb2"},{"reference":"Practitioner/e00597dd-eab7-47ce-b855-98a1d75e7f89"}]},"request":{"method":"PUT","url":"MeasureReport/5c9ec8d4-0361-4e4e-8e71-a530baf0a692"}},{"resource":{"resourceType":"Observation","id":"c243f205-f821-451d-a14a-eb7801e46f9a","meta":{"profile":["http://hl7.org/fhir/us/qicore/StructureDefinition/qicore-simple-observation"]},"status":"final","category":[{"coding":[{"system":"http://terminology.hl7.org/CodeSystem/observation-category","code":"exam","display":"exam","userSelected":true}]}],"code":{"coding":[{"system":"http://loinc.org","code":"11996-6"}]},"subject":{"reference":"Patient/f75e88bd-763c-45ee-9926-da176be47cd9"},"effectiveDateTime":"2026-06-08T08:00:00.000+00:00","performer":[{"reference":"Organization/example1","display":"Hendricks Country Hospital"}],"valueInteger":1},"request":{"method":"PUT","url":"Observation/c243f205-f821-451d-a14a-eb7801e46f9a"}}]}