{"resourceType":"Bundle","id":"tests-9ce43862-05d8-43a6-a1d6-d270f65e318e-bundle","type":"transaction","entry":[{"resource":{"resourceType":"Observation","id":"cc387949-90e7-4725-a1ca-50294f3afcd7","meta":{"profile":["http://hl7.org/fhir/us/qicore/StructureDefinition/qicore-simple-observation"]},"status":"final","category":[{"coding":[{"system":"http://terminology.hl7.org/CodeSystem/observation-category","code":"exam","display":"exam","userSelected":true}]}],"code":{"coding":[{"system":"http://loinc.org","code":"93857-1"}]},"subject":{"reference":"Patient/9ce43862-05d8-43a6-a1d6-d270f65e318e"}},"request":{"method":"PUT","url":"Observation/cc387949-90e7-4725-a1ca-50294f3afcd7"}},{"resource":{"resourceType":"Observation","id":"dfe1993c-f428-463c-a475-c5388cc3f148","meta":{"profile":["http://hl7.org/fhir/us/qicore/StructureDefinition/qicore-simple-observation"]},"status":"final","category":[{"coding":[{"system":"http://terminology.hl7.org/CodeSystem/observation-category","code":"exam","display":"exam","userSelected":true}]}],"code":{"coding":[{"system":"http://loinc.org","code":"93857-1"}]},"subject":{"reference":"Patient/9ce43862-05d8-43a6-a1d6-d270f65e318e"},"effectiveDateTime":"2026-01-15T08:00:00.000+00:00","valueDateTime":"2026-01-15T08:00:00.000+00:00"},"request":{"method":"PUT","url":"Observation/dfe1993c-f428-463c-a475-c5388cc3f148"}},{"resource":{"resourceType":"Practitioner","id":"37152902-f28a-4469-9478-b4e8f7ff7cb2","meta":{"profile":["http://hl7.org/fhir/us/qicore/StructureDefinition/qicore-practitioner"]},"identifier":[{"system":"http://hl7.org/fhir/sid/us-npi","value":"1234567890"}],"name":[{"family":"Evil","prefix":["Dr"]}]},"request":{"method":"PUT","url":"Practitioner/37152902-f28a-4469-9478-b4e8f7ff7cb2"}},{"resource":{"resourceType":"Patient","id":"9ce43862-05d8-43a6-a1d6-d270f65e318e","meta":{"profile":["http://hl7.org/fhir/us/qicore/StructureDefinition/qicore-patient"]},"text":{"status":"generated","div":"<div xmlns=\"http://www.w3.org/1999/xhtml\"><div class=\"hapiHeaderText\">CalcEGALastIsTimeOfDelivNull<b>DENOMPass</b></div><table class=\"hapiPropertyTable\"><tbody><tr><td>Identifier</td><td>b00b06f67015bda652373741cca10f65466d828e3a674df9528f73ec417ce0bb</td></tr><tr><td>Date of birth</td><td><span>14 February 1985</span></td></tr></tbody></table></div>"},"extension":[{"url":"http://hl7.org/fhir/us/core/StructureDefinition/us-core-race","extension":[{"url":"ombCategory","valueCoding":{"system":"urn:oid:2.16.840.1.113883.6.238","code":"1002-5","display":"American Indian or Alaska Native","userSelected":true}},{"url":"text","valueString":"American Indian or Alaska Native"}]},{"url":"http://hl7.org/fhir/us/core/StructureDefinition/us-core-ethnicity","extension":[{"url":"ombCategory","valueCoding":{"system":"urn:oid:2.16.840.1.113883.6.238","code":"2135-2","display":"Hispanic or Latino","userSelected":true}},{"url":"text","valueString":"Hispanic or Latino"}]}],"identifier":[{"type":{"coding":[{"system":"http://terminology.hl7.org/CodeSystem/v2-0203","code":"MR"}]},"system":"https://bonnie-fhir.healthit.gov/","value":"63487c2f0968f801225401a4"}],"active":true,"name":[{"use":"usual","family":"DENOMPass","given":["CalcEGALastIsTimeOfDelivNull"]}],"gender":"female","birthDate":"1998-02-14"},"request":{"method":"PUT","url":"Patient/9ce43862-05d8-43a6-a1d6-d270f65e318e"}},{"resource":{"resourceType":"Observation","id":"ca6cb2a8-a699-4322-8028-64871655b035","meta":{"profile":["http://hl7.org/fhir/us/qicore/StructureDefinition/qicore-simple-observation"]},"status":"final","category":[{"coding":[{"system":"http://terminology.hl7.org/CodeSystem/observation-category","code":"exam","display":"exam","userSelected":true}]}],"code":{"coding":[{"system":"http://loinc.org","code":"11996-6"}]},"subject":{"reference":"Patient/9ce43862-05d8-43a6-a1d6-d270f65e318e"},"effectiveDateTime":"2026-01-15T07:59:00.000+00:00","valueInteger":1},"request":{"method":"PUT","url":"Observation/ca6cb2a8-a699-4322-8028-64871655b035"}},{"resource":{"resourceType":"Encounter","id":"0acae5d8-c48f-4378-85da-84028bf2e991","meta":{"profile":["http://hl7.org/fhir/us/qicore/StructureDefinition/qicore-encounter"]},"status":"finished","class":{"system":"http://terminology.hl7.org/CodeSystem/v3-ActCode","code":"IMP","display":"inpatient encounter"},"type":[{"coding":[{"system":"http://snomed.info/sct","code":"183452005"}]}],"subject":{"reference":"Patient/9ce43862-05d8-43a6-a1d6-d270f65e318e"},"period":{"start":"2026-01-15T08:00:00.000+00:00","end":"2026-01-20T08:15:00.000+00:00"},"reasonReference":[{"reference":"Condition/fcb32551-c364-4c81-ad60-f7996d1d65de"}]},"request":{"method":"PUT","url":"Encounter/0acae5d8-c48f-4378-85da-84028bf2e991"}},{"resource":{"resourceType":"Organization","id":"2c1b66e0-06a5-4eb5-8a4b-933ea5de5589","meta":{"profile":["http://hl7.org/fhir/us/qicore/StructureDefinition/qicore-organization"]},"identifier":[{"use":"temp","system":"urn:oid:2.16.840.1.113883.4.4","value":"21-3259825"}],"active":true,"type":[{"coding":[{"system":"http://terminology.hl7.org/CodeSystem/organization-type","code":"pay","display":"Payer"}]}],"name":"Blue Cross Blue Shield of Texas","telecom":[{"system":"phone","value":"(+1) 972-766-6900"}],"address":[{"use":"billing","type":"postal","line":["P.O. Box 660044"],"city":"Dallas","state":"TX","postalCode":"75266-0044","country":"USA"}]},"request":{"method":"PUT","url":"Organization/2c1b66e0-06a5-4eb5-8a4b-933ea5de5589"}},{"resource":{"resourceType":"Procedure","id":"f2896f6c-1adc-4c89-a7e9-4d07ce177cab","meta":{"profile":["http://hl7.org/fhir/us/qicore/StructureDefinition/qicore-procedure"]},"extension":[{"url":"http://hl7.org/fhir/us/qicore/StructureDefinition/qicore-recorded","valueDateTime":"2014-04-05T13:35:00.000+00:00"}],"status":"completed","code":{"coding":[{"system":"http://www.cms.gov/Medicare/Coding/ICD10","code":"10D07Z3"}]},"subject":{"reference":"Patient/9ce43862-05d8-43a6-a1d6-d270f65e318e"},"performedPeriod":{"start":"2026-01-15T08:10:00.000+00:00","end":"2026-01-15T09:14:00.000+00:00"}},"request":{"method":"PUT","url":"Procedure/f2896f6c-1adc-4c89-a7e9-4d07ce177cab"}},{"resource":{"resourceType":"Coverage","id":"b8c1a7cc-9bdb-4ba8-bac8-2666a36ff0f6","meta":{"profile":["http://hl7.org/fhir/us/qicore/StructureDefinition/qicore-coverage"]},"status":"active","subscriberId":"523435","beneficiary":{"reference":"Patient/9ce43862-05d8-43a6-a1d6-d270f65e318e"},"relationship":{"coding":[{"system":"http://terminology.hl7.org/CodeSystem/subscriber-relationship","code":"self"}]},"payor":[{"reference":"Organization/2c1b66e0-06a5-4eb5-8a4b-933ea5de5589"}]},"request":{"method":"PUT","url":"Coverage/b8c1a7cc-9bdb-4ba8-bac8-2666a36ff0f6"}},{"resource":{"resourceType":"Bundle","id":"63487c2f0968f801225401a4","type":"transaction","entry":[{"fullUrl":"https://madie.cms.gov/Patient/9ce43862-05d8-43a6-a1d6-d270f65e318e","resource":{"resourceType":"Patient","id":"9ce43862-05d8-43a6-a1d6-d270f65e318e","meta":{"profile":["http://hl7.org/fhir/us/qicore/StructureDefinition/qicore-patient"]},"text":{"status":"generated","div":"<div xmlns=\"http://www.w3.org/1999/xhtml\"><div class=\"hapiHeaderText\">CalcEGALastIsTimeOfDelivNull<b>DENOMPass</b></div><table class=\"hapiPropertyTable\"><tbody><tr><td>Identifier</td><td>b00b06f67015bda652373741cca10f65466d828e3a674df9528f73ec417ce0bb</td></tr><tr><td>Date of birth</td><td><span>14 February 1985</span></td></tr></tbody></table></div>"},"extension":[{"url":"http://hl7.org/fhir/us/core/StructureDefinition/us-core-race","extension":[{"url":"ombCategory","valueCoding":{"system":"urn:oid:2.16.840.1.113883.6.238","code":"1002-5","display":"American Indian or Alaska Native","userSelected":true}},{"url":"text","valueString":"American Indian or Alaska Native"}]},{"url":"http://hl7.org/fhir/us/core/StructureDefinition/us-core-ethnicity","extension":[{"url":"ombCategory","valueCoding":{"system":"urn:oid:2.16.840.1.113883.6.238","code":"2135-2","display":"Hispanic or Latino","userSelected":true}},{"url":"text","valueString":"Hispanic or Latino"}]}],"identifier":[{"type":{"coding":[{"system":"http://terminology.hl7.org/CodeSystem/v2-0203","code":"MR"}]},"system":"https://bonnie-fhir.healthit.gov/","value":"63487c2f0968f801225401a4"}],"active":true,"name":[{"use":"usual","family":"DENOMPass","given":["CalcEGALastIsTimeOfDelivNull"]}],"gender":"female","birthDate":"1998-02-14"},"request":{"method":"PUT","url":"Patient/9ce43862-05d8-43a6-a1d6-d270f65e318e"}},{"fullUrl":"https://madie.cms.gov/Observation/dfe1993c-f428-463c-a475-c5388cc3f148","resource":{"resourceType":"Observation","id":"dfe1993c-f428-463c-a475-c5388cc3f148","meta":{"profile":["http://hl7.org/fhir/us/qicore/StructureDefinition/qicore-simple-observation"]},"status":"final","category":[{"coding":[{"system":"http://terminology.hl7.org/CodeSystem/observation-category","code":"exam","display":"exam","userSelected":true}]}],"code":{"coding":[{"system":"http://loinc.org","code":"93857-1"}]},"subject":{"reference":"Patient/9ce43862-05d8-43a6-a1d6-d270f65e318e"},"effectiveDateTime":"2026-01-15T08:00:00.000+00:00","valueDateTime":"2026-01-15T08:00:00.000+00:00"},"request":{"method":"PUT","url":"Observation/dfe1993c-f428-463c-a475-c5388cc3f148"}},{"fullUrl":"https://madie.cms.gov/Observation/ad74cfe0-2e01-4beb-a638-51373e6333e2","resource":{"resourceType":"Observation","id":"ad74cfe0-2e01-4beb-a638-51373e6333e2","meta":{"profile":["http://hl7.org/fhir/us/qicore/StructureDefinition/qicore-simple-observation"]},"status":"final","category":[{"coding":[{"system":"http://terminology.hl7.org/CodeSystem/observation-category","code":"exam","display":"exam","userSelected":true}]}],"code":{"coding":[{"system":"http://loinc.org","code":"11778-8"}]},"subject":{"reference":"Patient/9ce43862-05d8-43a6-a1d6-d270f65e318e"},"effectiveDateTime":"2026-01-15T07:00:00.000+00:00","valueDateTime":"2026-02-04T08:00:00.000+00:00"},"request":{"method":"PUT","url":"Observation/ad74cfe0-2e01-4beb-a638-51373e6333e2"}},{"fullUrl":"https://madie.cms.gov/Observation/ca6cb2a8-a699-4322-8028-64871655b035","resource":{"resourceType":"Observation","id":"ca6cb2a8-a699-4322-8028-64871655b035","meta":{"profile":["http://hl7.org/fhir/us/qicore/StructureDefinition/qicore-simple-observation"]},"status":"final","category":[{"coding":[{"system":"http://terminology.hl7.org/CodeSystem/observation-category","code":"exam","display":"exam","userSelected":true}]}],"code":{"coding":[{"system":"http://loinc.org","code":"11996-6"}]},"subject":{"reference":"Patient/9ce43862-05d8-43a6-a1d6-d270f65e318e"},"effectiveDateTime":"2026-01-15T07:59:00.000+00:00","valueInteger":1},"request":{"method":"PUT","url":"Observation/ca6cb2a8-a699-4322-8028-64871655b035"}},{"fullUrl":"https://madie.cms.gov/Observation/cc387949-90e7-4725-a1ca-50294f3afcd7","resource":{"resourceType":"Observation","id":"cc387949-90e7-4725-a1ca-50294f3afcd7","meta":{"profile":["http://hl7.org/fhir/us/qicore/StructureDefinition/qicore-simple-observation"]},"status":"final","category":[{"coding":[{"system":"http://terminology.hl7.org/CodeSystem/observation-category","code":"exam","display":"exam","userSelected":true}]}],"code":{"coding":[{"system":"http://loinc.org","code":"93857-1"}]},"subject":{"reference":"Patient/9ce43862-05d8-43a6-a1d6-d270f65e318e"}},"request":{"method":"PUT","url":"Observation/cc387949-90e7-4725-a1ca-50294f3afcd7"}},{"fullUrl":"https://madie.cms.gov/Encounter/0acae5d8-c48f-4378-85da-84028bf2e991","resource":{"resourceType":"Encounter","id":"0acae5d8-c48f-4378-85da-84028bf2e991","meta":{"profile":["http://hl7.org/fhir/us/qicore/StructureDefinition/qicore-encounter"]},"status":"finished","class":{"system":"http://terminology.hl7.org/CodeSystem/v3-ActCode","code":"IMP","display":"inpatient encounter"},"type":[{"coding":[{"system":"http://snomed.info/sct","code":"183452005"}]}],"subject":{"reference":"Patient/9ce43862-05d8-43a6-a1d6-d270f65e318e"},"period":{"start":"2026-01-15T08:00:00.000+00:00","end":"2026-01-20T08:15:00.000+00:00"},"reasonReference":[{"reference":"Condition/fcb32551-c364-4c81-ad60-f7996d1d65de"}]},"request":{"method":"PUT","url":"Encounter/0acae5d8-c48f-4378-85da-84028bf2e991"}},{"fullUrl":"https://madie.cms.gov/Procedure/f2896f6c-1adc-4c89-a7e9-4d07ce177cab","resource":{"resourceType":"Procedure","id":"f2896f6c-1adc-4c89-a7e9-4d07ce177cab","meta":{"profile":["http://hl7.org/fhir/us/qicore/StructureDefinition/qicore-procedure"]},"extension":[{"url":"http://hl7.org/fhir/us/qicore/StructureDefinition/qicore-recorded","valueDateTime":"2014-04-05T13:35:00.000+00:00"}],"status":"completed","code":{"coding":[{"system":"http://www.cms.gov/Medicare/Coding/ICD10","code":"10D07Z3"}]},"subject":{"reference":"Patient/9ce43862-05d8-43a6-a1d6-d270f65e318e"},"performedPeriod":{"start":"2026-01-15T08:10:00.000+00:00","end":"2026-01-15T09:14:00.000+00:00"}},"request":{"method":"PUT","url":"Procedure/f2896f6c-1adc-4c89-a7e9-4d07ce177cab"}},{"fullUrl":"https://madie.cms.gov/Condition/fcb32551-c364-4c81-ad60-f7996d1d65de","resource":{"resourceType":"Condition","id":"fcb32551-c364-4c81-ad60-f7996d1d65de","meta":{"profile":["http://hl7.org/fhir/us/qicore/StructureDefinition/qicore-condition-encounter-diagnosis"]},"category":[{"coding":[{"system":"http://terminology.hl7.org/CodeSystem/condition-category","code":"encounter-diagnosis","display":"Encounter Diagnosis"}]}],"code":{"coding":[{"system":"http://snomed.info/sct","version":"2022-09","code":"169826009","display":"Single live birth from singleton pregnancy (finding)","userSelected":true}]},"subject":{"reference":"Patient/9ce43862-05d8-43a6-a1d6-d270f65e318e"},"encounter":{"reference":"Encounter/0acae5d8-c48f-4378-85da-84028bf2e991"},"recordedDate":"2026-10-20T08:00:00.000+00:00"},"request":{"method":"PUT","url":"Condition/fcb32551-c364-4c81-ad60-f7996d1d65de"}},{"fullUrl":"https://madie.cms.gov/Coverage/b8c1a7cc-9bdb-4ba8-bac8-2666a36ff0f6","resource":{"resourceType":"Coverage","id":"b8c1a7cc-9bdb-4ba8-bac8-2666a36ff0f6","meta":{"profile":["http://hl7.org/fhir/us/qicore/StructureDefinition/qicore-coverage"]},"status":"active","subscriberId":"523435","beneficiary":{"reference":"Patient/9ce43862-05d8-43a6-a1d6-d270f65e318e"},"relationship":{"coding":[{"system":"http://terminology.hl7.org/CodeSystem/subscriber-relationship","code":"self"}]},"payor":[{"reference":"Organization/2c1b66e0-06a5-4eb5-8a4b-933ea5de5589"}]},"request":{"method":"PUT","url":"Coverage/b8c1a7cc-9bdb-4ba8-bac8-2666a36ff0f6"}},{"fullUrl":"https://madie.cms.gov/Organization/2c1b66e0-06a5-4eb5-8a4b-933ea5de5589","resource":{"resourceType":"Organization","id":"2c1b66e0-06a5-4eb5-8a4b-933ea5de5589","meta":{"profile":["http://hl7.org/fhir/us/qicore/StructureDefinition/qicore-organization"]},"identifier":[{"use":"temp","system":"urn:oid:2.16.840.1.113883.4.4","value":"21-3259825"}],"active":true,"type":[{"coding":[{"system":"http://terminology.hl7.org/CodeSystem/organization-type","code":"pay","display":"Payer"}]}],"name":"Blue Cross Blue Shield of Texas","telecom":[{"system":"phone","value":"(+1) 972-766-6900"}],"address":[{"use":"billing","type":"postal","line":["P.O. Box 660044"],"city":"Dallas","state":"TX","postalCode":"75266-0044","country":"USA"}]},"request":{"method":"PUT","url":"Organization/2c1b66e0-06a5-4eb5-8a4b-933ea5de5589"}},{"fullUrl":"https://madie.cms.gov/Practitioner/37152902-f28a-4469-9478-b4e8f7ff7cb2","resource":{"resourceType":"Practitioner","id":"37152902-f28a-4469-9478-b4e8f7ff7cb2","meta":{"profile":["http://hl7.org/fhir/us/qicore/StructureDefinition/qicore-practitioner"]},"identifier":[{"system":"http://hl7.org/fhir/sid/us-npi","value":"1234567890"}],"name":[{"family":"Evil","prefix":["Dr"]}]},"request":{"method":"PUT","url":"Practitioner/37152902-f28a-4469-9478-b4e8f7ff7cb2"}},{"fullUrl":"https://madie.cms.gov/MeasureReport/bde886bf-3535-43b2-a5e7-9498812fef91","resource":{"resourceType":"MeasureReport","id":"bde886bf-3535-43b2-a5e7-9498812fef91","meta":{"profile":["http://hl7.org/fhir/us/cqfmeasures/StructureDefinition/test-case-cqfm"]},"contained":[{"resourceType":"Parameters","id":"062db6ed-b38e-4751-b5d9-ed1b9307d315-parameters","parameter":[{"name":"subject","valueString":"9ce43862-05d8-43a6-a1d6-d270f65e318e"}]}],"extension":[{"url":"http://hl7.org/fhir/StructureDefinition/cqf-inputParameters","valueReference":{"reference":"#062db6ed-b38e-4751-b5d9-ed1b9307d315-parameters"}},{"url":"http://hl7.org/fhir/us/cqfmeasures/StructureDefinition/cqfm-testCaseDescription","valueMarkdown":"Pt is 27 years of age,  encounter dx delivery of singleton, gravida=1authored less than 42 weeks prior to delivery,  Last Time of Delivery assessment is null, however, previous one passes.\n"}],"modifierExtension":[{"url":"http://hl7.org/fhir/us/cqfmeasures/StructureDefinition/cqfm-isTestCase","valueBoolean":true}],"status":"complete","type":"individual","measure":"https://madie.cms.gov/Measure/CMS0334FHIRPCCesareanBirth","period":{"start":"2026-01-01","end":"2026-12-31"},"group":[{"id":"Group_1","population":[{"id":"InitialPopulation_1","code":{"coding":[{"system":"http://terminology.hl7.org/CodeSystem/measure-population","code":"initial-population","display":"Initial Population"}]},"count":1},{"id":"Denominator_1","code":{"coding":[{"system":"http://terminology.hl7.org/CodeSystem/measure-population","code":"denominator","display":"Denominator"}]},"count":1},{"id":"DenominatorExclusion_1","code":{"coding":[{"system":"http://terminology.hl7.org/CodeSystem/measure-population","code":"denominator-exclusion","display":"Denominator Exclusion"}]},"count":0},{"id":"Numerator_1","code":{"coding":[{"system":"http://terminology.hl7.org/CodeSystem/measure-population","code":"numerator","display":"Numerator"}]},"count":0}],"measureScore":{"value":0.0}}],"evaluatedResource":[{"reference":"Patient/9ce43862-05d8-43a6-a1d6-d270f65e318e"},{"reference":"Observation/dfe1993c-f428-463c-a475-c5388cc3f148"},{"reference":"Observation/ad74cfe0-2e01-4beb-a638-51373e6333e2"},{"reference":"Observation/ca6cb2a8-a699-4322-8028-64871655b035"},{"reference":"Observation/cc387949-90e7-4725-a1ca-50294f3afcd7"},{"reference":"Encounter/0acae5d8-c48f-4378-85da-84028bf2e991"},{"reference":"Procedure/f2896f6c-1adc-4c89-a7e9-4d07ce177cab"},{"reference":"Condition/fcb32551-c364-4c81-ad60-f7996d1d65de"},{"reference":"Coverage/b8c1a7cc-9bdb-4ba8-bac8-2666a36ff0f6"},{"reference":"Organization/2c1b66e0-06a5-4eb5-8a4b-933ea5de5589"},{"reference":"Practitioner/37152902-f28a-4469-9478-b4e8f7ff7cb2"}]},"request":{"method":"PUT","url":"MeasureReport/bde886bf-3535-43b2-a5e7-9498812fef91"}}]},"request":{"method":"PUT","url":"Bundle/63487c2f0968f801225401a4"}},{"resource":{"resourceType":"Observation","id":"ad74cfe0-2e01-4beb-a638-51373e6333e2","meta":{"profile":["http://hl7.org/fhir/us/qicore/StructureDefinition/qicore-simple-observation"]},"status":"final","category":[{"coding":[{"system":"http://terminology.hl7.org/CodeSystem/observation-category","code":"exam","display":"exam","userSelected":true}]}],"code":{"coding":[{"system":"http://loinc.org","code":"11778-8"}]},"subject":{"reference":"Patient/9ce43862-05d8-43a6-a1d6-d270f65e318e"},"effectiveDateTime":"2026-01-15T07:00:00.000+00:00","valueDateTime":"2026-02-04T08:00:00.000+00:00"},"request":{"method":"PUT","url":"Observation/ad74cfe0-2e01-4beb-a638-51373e6333e2"}},{"resource":{"resourceType":"Condition","id":"fcb32551-c364-4c81-ad60-f7996d1d65de","meta":{"profile":["http://hl7.org/fhir/us/qicore/StructureDefinition/qicore-condition-encounter-diagnosis"]},"category":[{"coding":[{"system":"http://terminology.hl7.org/CodeSystem/condition-category","code":"encounter-diagnosis","display":"Encounter Diagnosis"}]}],"code":{"coding":[{"system":"http://snomed.info/sct","version":"2022-09","code":"169826009","display":"Single live birth from singleton pregnancy (finding)","userSelected":true}]},"subject":{"reference":"Patient/9ce43862-05d8-43a6-a1d6-d270f65e318e"},"encounter":{"reference":"Encounter/0acae5d8-c48f-4378-85da-84028bf2e991"},"recordedDate":"2026-10-20T08:00:00.000+00:00"},"request":{"method":"PUT","url":"Condition/fcb32551-c364-4c81-ad60-f7996d1d65de"}},{"resource":{"resourceType":"MeasureReport","id":"bde886bf-3535-43b2-a5e7-9498812fef91","meta":{"profile":["http://hl7.org/fhir/us/cqfmeasures/StructureDefinition/test-case-cqfm"]},"contained":[{"resourceType":"Parameters","id":"062db6ed-b38e-4751-b5d9-ed1b9307d315-parameters","parameter":[{"name":"subject","valueString":"9ce43862-05d8-43a6-a1d6-d270f65e318e"}]}],"extension":[{"url":"http://hl7.org/fhir/StructureDefinition/cqf-inputParameters","valueReference":{"reference":"#062db6ed-b38e-4751-b5d9-ed1b9307d315-parameters"}},{"url":"http://hl7.org/fhir/us/cqfmeasures/StructureDefinition/cqfm-testCaseDescription","valueMarkdown":"Pt is 27 years of age,  encounter dx delivery of singleton, gravida=1authored less than 42 weeks prior to delivery,  Last Time of Delivery assessment is null, however, previous one passes.\n"}],"modifierExtension":[{"url":"http://hl7.org/fhir/us/cqfmeasures/StructureDefinition/cqfm-isTestCase","valueBoolean":true}],"status":"complete","type":"individual","measure":"https://madie.cms.gov/Measure/CMS0334FHIRPCCesareanBirth","period":{"start":"2026-01-01","end":"2026-12-31"},"group":[{"id":"Group_1","population":[{"id":"InitialPopulation_1","code":{"coding":[{"system":"http://terminology.hl7.org/CodeSystem/measure-population","code":"initial-population","display":"Initial Population"}]},"count":1},{"id":"Denominator_1","code":{"coding":[{"system":"http://terminology.hl7.org/CodeSystem/measure-population","code":"denominator","display":"Denominator"}]},"count":1},{"id":"DenominatorExclusion_1","code":{"coding":[{"system":"http://terminology.hl7.org/CodeSystem/measure-population","code":"denominator-exclusion","display":"Denominator Exclusion"}]},"count":0},{"id":"Numerator_1","code":{"coding":[{"system":"http://terminology.hl7.org/CodeSystem/measure-population","code":"numerator","display":"Numerator"}]},"count":0}],"measureScore":{"value":0.0}}],"evaluatedResource":[{"reference":"Patient/9ce43862-05d8-43a6-a1d6-d270f65e318e"},{"reference":"Observation/dfe1993c-f428-463c-a475-c5388cc3f148"},{"reference":"Observation/ad74cfe0-2e01-4beb-a638-51373e6333e2"},{"reference":"Observation/ca6cb2a8-a699-4322-8028-64871655b035"},{"reference":"Observation/cc387949-90e7-4725-a1ca-50294f3afcd7"},{"reference":"Encounter/0acae5d8-c48f-4378-85da-84028bf2e991"},{"reference":"Procedure/f2896f6c-1adc-4c89-a7e9-4d07ce177cab"},{"reference":"Condition/fcb32551-c364-4c81-ad60-f7996d1d65de"},{"reference":"Coverage/b8c1a7cc-9bdb-4ba8-bac8-2666a36ff0f6"},{"reference":"Organization/2c1b66e0-06a5-4eb5-8a4b-933ea5de5589"},{"reference":"Practitioner/37152902-f28a-4469-9478-b4e8f7ff7cb2"}]},"request":{"method":"PUT","url":"MeasureReport/bde886bf-3535-43b2-a5e7-9498812fef91"}}]}