{"resourceType":"Bundle","id":"tests-36133ed8-3505-4735-bfb1-f02fb288557f-bundle","type":"transaction","entry":[{"resource":{"resourceType":"Bundle","id":"63487c2f0968f8012254019c","type":"transaction","entry":[{"fullUrl":"https://madie.cms.gov/Patient/36133ed8-3505-4735-bfb1-f02fb288557f","resource":{"resourceType":"Patient","id":"36133ed8-3505-4735-bfb1-f02fb288557f","meta":{"profile":["http://hl7.org/fhir/us/qicore/StructureDefinition/qicore-patient"]},"text":{"status":"generated","div":"<div xmlns=\"http://www.w3.org/1999/xhtml\"><div class=\"hapiHeaderText\">2EGAsFirstEQ37LastEQ36 <b>DENFAIL </b></div><table class=\"hapiPropertyTable\"><tbody><tr><td>Identifier</td><td>73d161bbd72a0b8d656073de21758ea0022c984462702bb844daf97a7291f479</td></tr><tr><td>Date of birth</td><td><span>14 February 1985</span></td></tr></tbody></table></div>"},"extension":[{"url":"http://hl7.org/fhir/us/core/StructureDefinition/us-core-race","extension":[{"url":"ombCategory","valueCoding":{"system":"urn:oid:2.16.840.1.113883.6.238","code":"1002-5","display":"American Indian or Alaska Native","userSelected":true}},{"url":"text","valueString":"American Indian or Alaska Native"}]},{"url":"http://hl7.org/fhir/us/core/StructureDefinition/us-core-ethnicity","extension":[{"url":"ombCategory","valueCoding":{"system":"urn:oid:2.16.840.1.113883.6.238","code":"2135-2","display":"Hispanic or Latino","userSelected":true}},{"url":"text","valueString":"Hispanic or Latino"}]}],"identifier":[{"type":{"coding":[{"system":"http://terminology.hl7.org/CodeSystem/v2-0203","code":"MR"}]},"system":"https://bonnie-fhir.healthit.gov/","value":"63487c2f0968f8012254019c"}],"active":true,"name":[{"use":"usual","family":"DENFail","given":["2EGAsFirstEQ37LastEQ36  "]}],"gender":"female","birthDate":"1998-02-14"},"request":{"method":"PUT","url":"Patient/36133ed8-3505-4735-bfb1-f02fb288557f"}},{"fullUrl":"https://madie.cms.gov/Observation/5d915832-631c-41d8-aa7b-f133c2790fdd","resource":{"resourceType":"Observation","id":"5d915832-631c-41d8-aa7b-f133c2790fdd","meta":{"profile":["http://hl7.org/fhir/us/qicore/StructureDefinition/qicore-simple-observation"]},"status":"final","category":[{"coding":[{"system":"http://terminology.hl7.org/CodeSystem/observation-category","code":"exam","display":"exam","userSelected":true}]}],"code":{"coding":[{"system":"http://loinc.org","code":"11996-6"}]},"subject":{"reference":"Patient/36133ed8-3505-4735-bfb1-f02fb288557f"},"effectiveDateTime":"2026-06-08T08:00:00.000+00:00","valueInteger":1},"request":{"method":"PUT","url":"Observation/5d915832-631c-41d8-aa7b-f133c2790fdd"}},{"fullUrl":"https://madie.cms.gov/Observation/5e836e5e-6452-4792-bb32-19cb7030e82b","resource":{"resourceType":"Observation","id":"5e836e5e-6452-4792-bb32-19cb7030e82b","meta":{"profile":["http://hl7.org/fhir/us/qicore/StructureDefinition/qicore-simple-observation"]},"status":"final","category":[{"coding":[{"system":"http://terminology.hl7.org/CodeSystem/observation-category","code":"exam","display":"exam","userSelected":true}]}],"code":{"coding":[{"system":"http://loinc.org","code":"11884-4"}]},"subject":{"reference":"Patient/36133ed8-3505-4735-bfb1-f02fb288557f"},"effectiveDateTime":"2026-06-08T09:15:00.000+00:00","valueQuantity":{"value":36,"system":"http://unitsofmeasure.org","code":"wk"}},"request":{"method":"PUT","url":"Observation/5e836e5e-6452-4792-bb32-19cb7030e82b"}},{"fullUrl":"https://madie.cms.gov/Observation/4260d09a-2294-4dfc-b0ae-4e60c2bf594d","resource":{"resourceType":"Observation","id":"4260d09a-2294-4dfc-b0ae-4e60c2bf594d","meta":{"profile":["http://hl7.org/fhir/us/qicore/StructureDefinition/qicore-simple-observation"]},"status":"final","category":[{"coding":[{"system":"http://terminology.hl7.org/CodeSystem/observation-category","code":"exam","display":"exam","userSelected":true}]}],"code":{"coding":[{"system":"http://loinc.org","code":"93857-1"}]},"subject":{"reference":"Patient/36133ed8-3505-4735-bfb1-f02fb288557f"},"effectiveDateTime":"2026-06-08T09:15:00.000+00:00","valueDateTime":"2026-06-08T09:15:00.000+00:00"},"request":{"method":"PUT","url":"Observation/4260d09a-2294-4dfc-b0ae-4e60c2bf594d"}},{"fullUrl":"https://madie.cms.gov/Observation/24aa4c28-4215-4ccc-8836-40edd21aa934","resource":{"resourceType":"Observation","id":"24aa4c28-4215-4ccc-8836-40edd21aa934","meta":{"profile":["http://hl7.org/fhir/us/qicore/StructureDefinition/qicore-simple-observation"]},"status":"final","category":[{"coding":[{"system":"http://terminology.hl7.org/CodeSystem/observation-category","code":"exam","display":"exam","userSelected":true}]}],"code":{"coding":[{"system":"http://loinc.org","code":"11884-4"}]},"subject":{"reference":"Patient/36133ed8-3505-4735-bfb1-f02fb288557f"},"effectiveDateTime":"2026-06-08T09:00:00.000+00:00","valueQuantity":{"value":37,"system":"http://unitsofmeasure.org","code":"wk"}},"request":{"method":"PUT","url":"Observation/24aa4c28-4215-4ccc-8836-40edd21aa934"}},{"fullUrl":"https://madie.cms.gov/Encounter/9a524fc7-5ed2-4d95-aac6-35ba3a2ea4f4","resource":{"resourceType":"Encounter","id":"9a524fc7-5ed2-4d95-aac6-35ba3a2ea4f4","meta":{"profile":["http://hl7.org/fhir/us/qicore/StructureDefinition/qicore-encounter"]},"status":"finished","class":{"system":"http://terminology.hl7.org/CodeSystem/v3-ActCode","code":"IMP","display":"inpatient encounter"},"type":[{"coding":[{"system":"http://snomed.info/sct","code":"183452005"}]}],"subject":{"reference":"Patient/36133ed8-3505-4735-bfb1-f02fb288557f"},"period":{"start":"2026-06-08T08:00:00.000+00:00","end":"2026-06-10T08:15:00.000+00:00"},"length":{"value":2,"unit":"days"},"reasonReference":[{"reference":"Condition/delivery-of-singleton-f83c"}]},"request":{"method":"PUT","url":"Encounter/9a524fc7-5ed2-4d95-aac6-35ba3a2ea4f4"}},{"fullUrl":"https://madie.cms.gov/Procedure/6b11b8ef-9a66-4227-b662-df222babe362","resource":{"resourceType":"Procedure","id":"6b11b8ef-9a66-4227-b662-df222babe362","meta":{"profile":["http://hl7.org/fhir/us/qicore/StructureDefinition/qicore-procedure"]},"extension":[{"url":"http://hl7.org/fhir/us/qicore/StructureDefinition/qicore-recorded","valueDateTime":"2014-04-05T13:35:00.000+00:00"}],"status":"completed","code":{"coding":[{"system":"http://www.cms.gov/Medicare/Coding/ICD10","code":"10D00Z0"}]},"subject":{"reference":"Patient/36133ed8-3505-4735-bfb1-f02fb288557f"},"performedPeriod":{"start":"2026-06-08T08:00:00.000+00:00","end":"2026-06-08T09:15:00.000+00:00"}},"request":{"method":"PUT","url":"Procedure/6b11b8ef-9a66-4227-b662-df222babe362"}},{"fullUrl":"https://madie.cms.gov/Condition/d417d3b8-98bc-40a4-9c0d-5da97b9fa0ad","resource":{"resourceType":"Condition","id":"d417d3b8-98bc-40a4-9c0d-5da97b9fa0ad","meta":{"profile":["http://hl7.org/fhir/us/qicore/StructureDefinition/qicore-condition"]},"category":[{"coding":[{"system":"http://terminology.hl7.org/CodeSystem/condition-category","code":"encounter-diagnosis","display":"Encounter Diagnosis"}]}],"code":{"coding":[{"system":"http://snomed.info/sct","code":"169826009","display":"Single live birth (finding)"}]},"subject":{"reference":"Patient/36133ed8-3505-4735-bfb1-f02fb288557f"}},"request":{"method":"PUT","url":"Condition/d417d3b8-98bc-40a4-9c0d-5da97b9fa0ad"}},{"fullUrl":"https://madie.cms.gov/Coverage/52c16339-4d06-4d8e-9d23-c446dc3be49c","resource":{"resourceType":"Coverage","id":"52c16339-4d06-4d8e-9d23-c446dc3be49c","meta":{"profile":["http://hl7.org/fhir/us/qicore/StructureDefinition/qicore-coverage"]},"status":"active","beneficiary":{"reference":"Patient/36133ed8-3505-4735-bfb1-f02fb288557f"},"payor":[{"reference":"Organization/e6d2789a-fa76-49b4-8642-df08e86f12b3"}]},"request":{"method":"PUT","url":"Coverage/52c16339-4d06-4d8e-9d23-c446dc3be49c"}},{"fullUrl":"https://madie.cms.gov/Organization/e6d2789a-fa76-49b4-8642-df08e86f12b3","resource":{"resourceType":"Organization","id":"e6d2789a-fa76-49b4-8642-df08e86f12b3","meta":{"profile":["http://hl7.org/fhir/us/qicore/StructureDefinition/qicore-organization"]},"identifier":[{"use":"temp","system":"urn:oid:2.16.840.1.113883.4.4","value":"21-3259825"}],"active":true,"type":[{"coding":[{"system":"http://terminology.hl7.org/CodeSystem/organization-type","code":"pay","display":"Payer"}]}],"name":"Blue Cross Blue Shield of Texas","telecom":[{"system":"phone","value":"(+1) 972-766-6900"}],"address":[{"use":"billing","type":"postal","line":["P.O. Box 660044"],"city":"Dallas","state":"TX","postalCode":"75266-0044","country":"USA"}]},"request":{"method":"PUT","url":"Organization/e6d2789a-fa76-49b4-8642-df08e86f12b3"}},{"fullUrl":"https://madie.cms.gov/Practitioner/1d766640-f4e0-4c9f-8a68-a8391dbbf8e9","resource":{"resourceType":"Practitioner","id":"1d766640-f4e0-4c9f-8a68-a8391dbbf8e9","identifier":[{"system":"http://hl7.org/fhir/sid/us-npi","value":"123456"}],"name":[{"family":"Evil","prefix":["Dr"]}]},"request":{"method":"PUT","url":"Practitioner/1d766640-f4e0-4c9f-8a68-a8391dbbf8e9"}},{"fullUrl":"https://madie.cms.gov/MeasureReport/434ed258-652c-49e1-b86f-953cfe9fb62b","resource":{"resourceType":"MeasureReport","id":"434ed258-652c-49e1-b86f-953cfe9fb62b","meta":{"profile":["http://hl7.org/fhir/us/cqfmeasures/StructureDefinition/test-case-cqfm"]},"contained":[{"resourceType":"Parameters","id":"b62019fe-e9dd-4dce-b6cb-ae9673f09747-parameters","parameter":[{"name":"subject","valueString":"36133ed8-3505-4735-bfb1-f02fb288557f"}]}],"extension":[{"url":"http://hl7.org/fhir/StructureDefinition/cqf-inputParameters","valueReference":{"reference":"#b62019fe-e9dd-4dce-b6cb-ae9673f09747-parameters"}},{"url":"http://hl7.org/fhir/us/cqfmeasures/StructureDefinition/cqfm-testCaseDescription","valueMarkdown":"Passes: IP, Pt is 27 years of age,  encounter dx of delivery of singleton, gravida, EGA 36 weeks\n"}],"modifierExtension":[{"url":"http://hl7.org/fhir/us/cqfmeasures/StructureDefinition/cqfm-isTestCase","valueBoolean":true}],"status":"complete","type":"individual","measure":"https://madie.cms.gov/Measure/CMS0334FHIRPCCesareanBirth","period":{"start":"2026-01-01","end":"2026-12-31"},"group":[{"id":"Group_1","population":[{"id":"InitialPopulation_1","code":{"coding":[{"system":"http://terminology.hl7.org/CodeSystem/measure-population","code":"initial-population","display":"Initial Population"}]},"count":1},{"id":"Denominator_1","code":{"coding":[{"system":"http://terminology.hl7.org/CodeSystem/measure-population","code":"denominator","display":"Denominator"}]},"count":0},{"id":"DenominatorExclusion_1","code":{"coding":[{"system":"http://terminology.hl7.org/CodeSystem/measure-population","code":"denominator-exclusion","display":"Denominator Exclusion"}]},"count":0},{"id":"Numerator_1","code":{"coding":[{"system":"http://terminology.hl7.org/CodeSystem/measure-population","code":"numerator","display":"Numerator"}]},"count":0}],"measureScore":{"value":0.0}}],"evaluatedResource":[{"reference":"Patient/36133ed8-3505-4735-bfb1-f02fb288557f"},{"reference":"Observation/5d915832-631c-41d8-aa7b-f133c2790fdd"},{"reference":"Observation/5e836e5e-6452-4792-bb32-19cb7030e82b"},{"reference":"Observation/4260d09a-2294-4dfc-b0ae-4e60c2bf594d"},{"reference":"Observation/24aa4c28-4215-4ccc-8836-40edd21aa934"},{"reference":"Encounter/9a524fc7-5ed2-4d95-aac6-35ba3a2ea4f4"},{"reference":"Procedure/6b11b8ef-9a66-4227-b662-df222babe362"},{"reference":"Condition/d417d3b8-98bc-40a4-9c0d-5da97b9fa0ad"},{"reference":"Coverage/52c16339-4d06-4d8e-9d23-c446dc3be49c"},{"reference":"Organization/e6d2789a-fa76-49b4-8642-df08e86f12b3"},{"reference":"Practitioner/1d766640-f4e0-4c9f-8a68-a8391dbbf8e9"}]},"request":{"method":"PUT","url":"MeasureReport/434ed258-652c-49e1-b86f-953cfe9fb62b"}}]},"request":{"method":"PUT","url":"Bundle/63487c2f0968f8012254019c"}},{"resource":{"resourceType":"MeasureReport","id":"434ed258-652c-49e1-b86f-953cfe9fb62b","meta":{"profile":["http://hl7.org/fhir/us/cqfmeasures/StructureDefinition/test-case-cqfm"]},"contained":[{"resourceType":"Parameters","id":"b62019fe-e9dd-4dce-b6cb-ae9673f09747-parameters","parameter":[{"name":"subject","valueString":"36133ed8-3505-4735-bfb1-f02fb288557f"}]}],"extension":[{"url":"http://hl7.org/fhir/StructureDefinition/cqf-inputParameters","valueReference":{"reference":"#b62019fe-e9dd-4dce-b6cb-ae9673f09747-parameters"}},{"url":"http://hl7.org/fhir/us/cqfmeasures/StructureDefinition/cqfm-testCaseDescription","valueMarkdown":"Passes: IP, Pt is 27 years of age,  encounter dx of delivery of singleton, gravida, EGA 36 weeks\n"}],"modifierExtension":[{"url":"http://hl7.org/fhir/us/cqfmeasures/StructureDefinition/cqfm-isTestCase","valueBoolean":true}],"status":"complete","type":"individual","measure":"https://madie.cms.gov/Measure/CMS0334FHIRPCCesareanBirth","period":{"start":"2026-01-01","end":"2026-12-31"},"group":[{"id":"Group_1","population":[{"id":"InitialPopulation_1","code":{"coding":[{"system":"http://terminology.hl7.org/CodeSystem/measure-population","code":"initial-population","display":"Initial Population"}]},"count":1},{"id":"Denominator_1","code":{"coding":[{"system":"http://terminology.hl7.org/CodeSystem/measure-population","code":"denominator","display":"Denominator"}]},"count":0},{"id":"DenominatorExclusion_1","code":{"coding":[{"system":"http://terminology.hl7.org/CodeSystem/measure-population","code":"denominator-exclusion","display":"Denominator Exclusion"}]},"count":0},{"id":"Numerator_1","code":{"coding":[{"system":"http://terminology.hl7.org/CodeSystem/measure-population","code":"numerator","display":"Numerator"}]},"count":0}],"measureScore":{"value":0.0}}],"evaluatedResource":[{"reference":"Patient/36133ed8-3505-4735-bfb1-f02fb288557f"},{"reference":"Observation/5d915832-631c-41d8-aa7b-f133c2790fdd"},{"reference":"Observation/5e836e5e-6452-4792-bb32-19cb7030e82b"},{"reference":"Observation/4260d09a-2294-4dfc-b0ae-4e60c2bf594d"},{"reference":"Observation/24aa4c28-4215-4ccc-8836-40edd21aa934"},{"reference":"Encounter/9a524fc7-5ed2-4d95-aac6-35ba3a2ea4f4"},{"reference":"Procedure/6b11b8ef-9a66-4227-b662-df222babe362"},{"reference":"Condition/d417d3b8-98bc-40a4-9c0d-5da97b9fa0ad"},{"reference":"Coverage/52c16339-4d06-4d8e-9d23-c446dc3be49c"},{"reference":"Organization/e6d2789a-fa76-49b4-8642-df08e86f12b3"},{"reference":"Practitioner/1d766640-f4e0-4c9f-8a68-a8391dbbf8e9"}]},"request":{"method":"PUT","url":"MeasureReport/434ed258-652c-49e1-b86f-953cfe9fb62b"}},{"resource":{"resourceType":"Encounter","id":"9a524fc7-5ed2-4d95-aac6-35ba3a2ea4f4","meta":{"profile":["http://hl7.org/fhir/us/qicore/StructureDefinition/qicore-encounter"]},"status":"finished","class":{"system":"http://terminology.hl7.org/CodeSystem/v3-ActCode","code":"IMP","display":"inpatient encounter"},"type":[{"coding":[{"system":"http://snomed.info/sct","code":"183452005"}]}],"subject":{"reference":"Patient/36133ed8-3505-4735-bfb1-f02fb288557f"},"period":{"start":"2026-06-08T08:00:00.000+00:00","end":"2026-06-10T08:15:00.000+00:00"},"length":{"value":2,"unit":"days"},"reasonReference":[{"reference":"Condition/delivery-of-singleton-f83c"}]},"request":{"method":"PUT","url":"Encounter/9a524fc7-5ed2-4d95-aac6-35ba3a2ea4f4"}},{"resource":{"resourceType":"Coverage","id":"52c16339-4d06-4d8e-9d23-c446dc3be49c","meta":{"profile":["http://hl7.org/fhir/us/qicore/StructureDefinition/qicore-coverage"]},"status":"active","beneficiary":{"reference":"Patient/36133ed8-3505-4735-bfb1-f02fb288557f"},"payor":[{"reference":"Organization/e6d2789a-fa76-49b4-8642-df08e86f12b3"}]},"request":{"method":"PUT","url":"Coverage/52c16339-4d06-4d8e-9d23-c446dc3be49c"}},{"resource":{"resourceType":"Practitioner","id":"1d766640-f4e0-4c9f-8a68-a8391dbbf8e9","identifier":[{"system":"http://hl7.org/fhir/sid/us-npi","value":"123456"}],"name":[{"family":"Evil","prefix":["Dr"]}]},"request":{"method":"PUT","url":"Practitioner/1d766640-f4e0-4c9f-8a68-a8391dbbf8e9"}},{"resource":{"resourceType":"Observation","id":"5d915832-631c-41d8-aa7b-f133c2790fdd","meta":{"profile":["http://hl7.org/fhir/us/qicore/StructureDefinition/qicore-simple-observation"]},"status":"final","category":[{"coding":[{"system":"http://terminology.hl7.org/CodeSystem/observation-category","code":"exam","display":"exam","userSelected":true}]}],"code":{"coding":[{"system":"http://loinc.org","code":"11996-6"}]},"subject":{"reference":"Patient/36133ed8-3505-4735-bfb1-f02fb288557f"},"effectiveDateTime":"2026-06-08T08:00:00.000+00:00","valueInteger":1},"request":{"method":"PUT","url":"Observation/5d915832-631c-41d8-aa7b-f133c2790fdd"}},{"resource":{"resourceType":"Patient","id":"36133ed8-3505-4735-bfb1-f02fb288557f","meta":{"profile":["http://hl7.org/fhir/us/qicore/StructureDefinition/qicore-patient"]},"text":{"status":"generated","div":"<div xmlns=\"http://www.w3.org/1999/xhtml\"><div class=\"hapiHeaderText\">2EGAsFirstEQ37LastEQ36 <b>DENFAIL </b></div><table class=\"hapiPropertyTable\"><tbody><tr><td>Identifier</td><td>73d161bbd72a0b8d656073de21758ea0022c984462702bb844daf97a7291f479</td></tr><tr><td>Date of birth</td><td><span>14 February 1985</span></td></tr></tbody></table></div>"},"extension":[{"url":"http://hl7.org/fhir/us/core/StructureDefinition/us-core-race","extension":[{"url":"ombCategory","valueCoding":{"system":"urn:oid:2.16.840.1.113883.6.238","code":"1002-5","display":"American Indian or Alaska Native","userSelected":true}},{"url":"text","valueString":"American Indian or Alaska Native"}]},{"url":"http://hl7.org/fhir/us/core/StructureDefinition/us-core-ethnicity","extension":[{"url":"ombCategory","valueCoding":{"system":"urn:oid:2.16.840.1.113883.6.238","code":"2135-2","display":"Hispanic or Latino","userSelected":true}},{"url":"text","valueString":"Hispanic or Latino"}]}],"identifier":[{"type":{"coding":[{"system":"http://terminology.hl7.org/CodeSystem/v2-0203","code":"MR"}]},"system":"https://bonnie-fhir.healthit.gov/","value":"63487c2f0968f8012254019c"}],"active":true,"name":[{"use":"usual","family":"DENFail","given":["2EGAsFirstEQ37LastEQ36  "]}],"gender":"female","birthDate":"1998-02-14"},"request":{"method":"PUT","url":"Patient/36133ed8-3505-4735-bfb1-f02fb288557f"}},{"resource":{"resourceType":"Condition","id":"d417d3b8-98bc-40a4-9c0d-5da97b9fa0ad","meta":{"profile":["http://hl7.org/fhir/us/qicore/StructureDefinition/qicore-condition"]},"category":[{"coding":[{"system":"http://terminology.hl7.org/CodeSystem/condition-category","code":"encounter-diagnosis","display":"Encounter Diagnosis"}]}],"code":{"coding":[{"system":"http://snomed.info/sct","code":"169826009","display":"Single live birth (finding)"}]},"subject":{"reference":"Patient/36133ed8-3505-4735-bfb1-f02fb288557f"}},"request":{"method":"PUT","url":"Condition/d417d3b8-98bc-40a4-9c0d-5da97b9fa0ad"}},{"resource":{"resourceType":"Observation","id":"4260d09a-2294-4dfc-b0ae-4e60c2bf594d","meta":{"profile":["http://hl7.org/fhir/us/qicore/StructureDefinition/qicore-simple-observation"]},"status":"final","category":[{"coding":[{"system":"http://terminology.hl7.org/CodeSystem/observation-category","code":"exam","display":"exam","userSelected":true}]}],"code":{"coding":[{"system":"http://loinc.org","code":"93857-1"}]},"subject":{"reference":"Patient/36133ed8-3505-4735-bfb1-f02fb288557f"},"effectiveDateTime":"2026-06-08T09:15:00.000+00:00","valueDateTime":"2026-06-08T09:15:00.000+00:00"},"request":{"method":"PUT","url":"Observation/4260d09a-2294-4dfc-b0ae-4e60c2bf594d"}},{"resource":{"resourceType":"Observation","id":"24aa4c28-4215-4ccc-8836-40edd21aa934","meta":{"profile":["http://hl7.org/fhir/us/qicore/StructureDefinition/qicore-simple-observation"]},"status":"final","category":[{"coding":[{"system":"http://terminology.hl7.org/CodeSystem/observation-category","code":"exam","display":"exam","userSelected":true}]}],"code":{"coding":[{"system":"http://loinc.org","code":"11884-4"}]},"subject":{"reference":"Patient/36133ed8-3505-4735-bfb1-f02fb288557f"},"effectiveDateTime":"2026-06-08T09:00:00.000+00:00","valueQuantity":{"value":37,"system":"http://unitsofmeasure.org","code":"wk"}},"request":{"method":"PUT","url":"Observation/24aa4c28-4215-4ccc-8836-40edd21aa934"}},{"resource":{"resourceType":"Organization","id":"e6d2789a-fa76-49b4-8642-df08e86f12b3","meta":{"profile":["http://hl7.org/fhir/us/qicore/StructureDefinition/qicore-organization"]},"identifier":[{"use":"temp","system":"urn:oid:2.16.840.1.113883.4.4","value":"21-3259825"}],"active":true,"type":[{"coding":[{"system":"http://terminology.hl7.org/CodeSystem/organization-type","code":"pay","display":"Payer"}]}],"name":"Blue Cross Blue Shield of Texas","telecom":[{"system":"phone","value":"(+1) 972-766-6900"}],"address":[{"use":"billing","type":"postal","line":["P.O. Box 660044"],"city":"Dallas","state":"TX","postalCode":"75266-0044","country":"USA"}]},"request":{"method":"PUT","url":"Organization/e6d2789a-fa76-49b4-8642-df08e86f12b3"}},{"resource":{"resourceType":"Procedure","id":"6b11b8ef-9a66-4227-b662-df222babe362","meta":{"profile":["http://hl7.org/fhir/us/qicore/StructureDefinition/qicore-procedure"]},"extension":[{"url":"http://hl7.org/fhir/us/qicore/StructureDefinition/qicore-recorded","valueDateTime":"2014-04-05T13:35:00.000+00:00"}],"status":"completed","code":{"coding":[{"system":"http://www.cms.gov/Medicare/Coding/ICD10","code":"10D00Z0"}]},"subject":{"reference":"Patient/36133ed8-3505-4735-bfb1-f02fb288557f"},"performedPeriod":{"start":"2026-06-08T08:00:00.000+00:00","end":"2026-06-08T09:15:00.000+00:00"}},"request":{"method":"PUT","url":"Procedure/6b11b8ef-9a66-4227-b662-df222babe362"}},{"resource":{"resourceType":"Observation","id":"5e836e5e-6452-4792-bb32-19cb7030e82b","meta":{"profile":["http://hl7.org/fhir/us/qicore/StructureDefinition/qicore-simple-observation"]},"status":"final","category":[{"coding":[{"system":"http://terminology.hl7.org/CodeSystem/observation-category","code":"exam","display":"exam","userSelected":true}]}],"code":{"coding":[{"system":"http://loinc.org","code":"11884-4"}]},"subject":{"reference":"Patient/36133ed8-3505-4735-bfb1-f02fb288557f"},"effectiveDateTime":"2026-06-08T09:15:00.000+00:00","valueQuantity":{"value":36,"system":"http://unitsofmeasure.org","code":"wk"}},"request":{"method":"PUT","url":"Observation/5e836e5e-6452-4792-bb32-19cb7030e82b"}}]}