{"resourceType":"Bundle","id":"tests-d5827ad0-6e0a-4e2c-b2f5-c8200ddd5f1f-bundle","type":"transaction","entry":[{"resource":{"resourceType":"Observation","id":"287d44fe-e777-419f-96c0-3d1ac597e234","meta":{"profile":["http://hl7.org/fhir/us/qicore/StructureDefinition/qicore-simple-observation"]},"status":"final","category":[{"coding":[{"system":"http://terminology.hl7.org/CodeSystem/observation-category","code":"exam","display":"exam","userSelected":true}]}],"code":{"coding":[{"system":"http://loinc.org","code":"11977-6"}]},"subject":{"reference":"Patient/d5827ad0-6e0a-4e2c-b2f5-c8200ddd5f1f"},"effectiveDateTime":"2026-06-08T20:01:00.000+00:00","valueInteger":0},"request":{"method":"PUT","url":"Observation/287d44fe-e777-419f-96c0-3d1ac597e234"}},{"resource":{"resourceType":"Observation","id":"3fe0ed96-bb8c-42b4-83f8-0598be4c5dbc","meta":{"profile":["http://hl7.org/fhir/us/qicore/StructureDefinition/qicore-simple-observation"]},"status":"final","category":[{"coding":[{"system":"http://terminology.hl7.org/CodeSystem/observation-category","code":"exam","display":"exam","userSelected":true}]}],"code":{"coding":[{"system":"http://loinc.org","code":"11884-4"}]},"subject":{"reference":"Patient/d5827ad0-6e0a-4e2c-b2f5-c8200ddd5f1f"},"issued":"2026-06-08T20:00:00.000+00:00","valueQuantity":{"value":37,"system":"http://unitsofmeasure.org","code":"wk"}},"request":{"method":"PUT","url":"Observation/3fe0ed96-bb8c-42b4-83f8-0598be4c5dbc"}},{"resource":{"resourceType":"Coverage","id":"b8407323-dd62-4ffc-ab5c-4e3206e313ca","meta":{"profile":["http://hl7.org/fhir/us/qicore/StructureDefinition/qicore-coverage"]},"status":"active","subscriberId":"523435","beneficiary":{"reference":"Patient/d5827ad0-6e0a-4e2c-b2f5-c8200ddd5f1f"},"relationship":{"coding":[{"system":"http://terminology.hl7.org/CodeSystem/subscriber-relationship","code":"self"}]},"payor":[{"reference":"Organization/e6e77de0-fc2c-469b-93f7-efdd82b19dff"}]},"request":{"method":"PUT","url":"Coverage/b8407323-dd62-4ffc-ab5c-4e3206e313ca"}},{"resource":{"resourceType":"MeasureReport","id":"2734e5e5-62b5-4e32-9cfd-cb1a51637b2d","meta":{"profile":["http://hl7.org/fhir/us/cqfmeasures/StructureDefinition/test-case-cqfm"]},"contained":[{"resourceType":"Parameters","id":"9f415e35-0cac-4d05-a249-9a27b27fb834-parameters","parameter":[{"name":"subject","valueString":"d5827ad0-6e0a-4e2c-b2f5-c8200ddd5f1f"}]}],"extension":[{"url":"http://hl7.org/fhir/StructureDefinition/cqf-inputParameters","valueReference":{"reference":"#9f415e35-0cac-4d05-a249-9a27b27fb834-parameters"}},{"url":"http://hl7.org/fhir/us/cqfmeasures/StructureDefinition/cqfm-testCaseDescription","valueMarkdown":"Parity=0, relevant date/time after delivery date and time\n"}],"modifierExtension":[{"url":"http://hl7.org/fhir/us/cqfmeasures/StructureDefinition/cqfm-isTestCase","valueBoolean":true}],"status":"complete","type":"individual","measure":"https://madie.cms.gov/Measure/CMS0334FHIRPCCesareanBirth","period":{"start":"2026-01-01","end":"2026-12-31"},"group":[{"id":"Group_1","population":[{"id":"InitialPopulation_1","code":{"coding":[{"system":"http://terminology.hl7.org/CodeSystem/measure-population","code":"initial-population","display":"Initial Population"}]},"count":1},{"id":"Denominator_1","code":{"coding":[{"system":"http://terminology.hl7.org/CodeSystem/measure-population","code":"denominator","display":"Denominator"}]},"count":0},{"id":"DenominatorExclusion_1","code":{"coding":[{"system":"http://terminology.hl7.org/CodeSystem/measure-population","code":"denominator-exclusion","display":"Denominator Exclusion"}]},"count":0},{"id":"Numerator_1","code":{"coding":[{"system":"http://terminology.hl7.org/CodeSystem/measure-population","code":"numerator","display":"Numerator"}]},"count":0}],"measureScore":{"value":0.0}}],"evaluatedResource":[{"reference":"Patient/d5827ad0-6e0a-4e2c-b2f5-c8200ddd5f1f"},{"reference":"Observation/3fe0ed96-bb8c-42b4-83f8-0598be4c5dbc"},{"reference":"Observation/287d44fe-e777-419f-96c0-3d1ac597e234"},{"reference":"Observation/833e7c05-6374-4d55-bc46-0a80b98c2f8a"},{"reference":"Encounter/0c94516a-ee03-49aa-ab2e-7cc527bb4e66"},{"reference":"Procedure/04e0c643-4eae-493e-af80-ab6e4b98dc43"},{"reference":"Condition/8768a514-d4fd-4504-879a-ff9fbcdf3293"},{"reference":"Coverage/b8407323-dd62-4ffc-ab5c-4e3206e313ca"},{"reference":"Organization/e6e77de0-fc2c-469b-93f7-efdd82b19dff"},{"reference":"Practitioner/57c81b6a-0422-41c8-92c2-788f3e8fb1eb"}]},"request":{"method":"PUT","url":"MeasureReport/2734e5e5-62b5-4e32-9cfd-cb1a51637b2d"}},{"resource":{"resourceType":"Procedure","id":"04e0c643-4eae-493e-af80-ab6e4b98dc43","meta":{"profile":["http://hl7.org/fhir/us/qicore/StructureDefinition/qicore-procedure"]},"extension":[{"url":"http://hl7.org/fhir/us/qicore/StructureDefinition/qicore-recorded","valueDateTime":"2014-04-05T13:35:00.000+00:00"}],"status":"completed","code":{"coding":[{"system":"http://www.cms.gov/Medicare/Coding/ICD10","code":"10D00Z0"},{"system":"http://snomed.info/sct","code":"4504004"}]},"subject":{"reference":"Patient/d5827ad0-6e0a-4e2c-b2f5-c8200ddd5f1f"},"performedPeriod":{"start":"2026-06-08T20:00:00.000+00:00","end":"2026-06-08T20:15:00.000+00:00"}},"request":{"method":"PUT","url":"Procedure/04e0c643-4eae-493e-af80-ab6e4b98dc43"}},{"resource":{"resourceType":"Observation","id":"833e7c05-6374-4d55-bc46-0a80b98c2f8a","meta":{"profile":["http://hl7.org/fhir/us/qicore/StructureDefinition/qicore-simple-observation"]},"status":"final","category":[{"coding":[{"system":"http://terminology.hl7.org/CodeSystem/observation-category","code":"exam","display":"exam","userSelected":true}]}],"code":{"coding":[{"system":"http://loinc.org","code":"93857-1"}]},"subject":{"reference":"Patient/d5827ad0-6e0a-4e2c-b2f5-c8200ddd5f1f"},"effectiveDateTime":"2026-06-08T20:00:00.000+00:00","valueDateTime":"2026-06-08T20:00:00.000+00:00"},"request":{"method":"PUT","url":"Observation/833e7c05-6374-4d55-bc46-0a80b98c2f8a"}},{"resource":{"resourceType":"Encounter","id":"0c94516a-ee03-49aa-ab2e-7cc527bb4e66","meta":{"profile":["http://hl7.org/fhir/us/qicore/StructureDefinition/qicore-encounter"]},"status":"finished","class":{"system":"http://terminology.hl7.org/CodeSystem/v3-ActCode","code":"IMP","display":"inpatient encounter"},"type":[{"coding":[{"system":"http://snomed.info/sct","code":"8715000"}]}],"subject":{"reference":"Patient/d5827ad0-6e0a-4e2c-b2f5-c8200ddd5f1f"},"period":{"start":"2026-06-08T08:00:00.000+00:00","end":"2026-06-10T08:15:00.000+00:00"},"length":{"value":2,"unit":"days"},"reasonReference":[{"reference":"Condition/8768a514-d4fd-4504-879a-ff9fbcdf3293"}]},"request":{"method":"PUT","url":"Encounter/0c94516a-ee03-49aa-ab2e-7cc527bb4e66"}},{"resource":{"resourceType":"Condition","id":"8768a514-d4fd-4504-879a-ff9fbcdf3293","meta":{"profile":["http://hl7.org/fhir/us/qicore/StructureDefinition/qicore-condition-encounter-diagnosis"]},"category":[{"coding":[{"system":"http://terminology.hl7.org/CodeSystem/condition-category","code":"encounter-diagnosis","display":"Encounter Diagnosis"}]}],"code":{"coding":[{"system":"http://snomed.info/sct","version":"2022-09","code":"169826009","display":"Single live birth from singleton pregnancy (finding)","userSelected":true}]},"subject":{"reference":"Patient/d5827ad0-6e0a-4e2c-b2f5-c8200ddd5f1f"},"encounter":{"reference":"Encounter/0c94516a-ee03-49aa-ab2e-7cc527bb4e66"},"recordedDate":"2026-10-21T08:00:00.000+00:00"},"request":{"method":"PUT","url":"Condition/8768a514-d4fd-4504-879a-ff9fbcdf3293"}},{"resource":{"resourceType":"Practitioner","id":"57c81b6a-0422-41c8-92c2-788f3e8fb1eb","meta":{"profile":["http://hl7.org/fhir/us/qicore/StructureDefinition/qicore-practitioner"]},"identifier":[{"system":"http://hl7.org/fhir/sid/us-npi","value":"1234567890"}],"name":[{"family":"Evil","prefix":["Dr"]}]},"request":{"method":"PUT","url":"Practitioner/57c81b6a-0422-41c8-92c2-788f3e8fb1eb"}},{"resource":{"resourceType":"Patient","id":"d5827ad0-6e0a-4e2c-b2f5-c8200ddd5f1f","meta":{"profile":["http://hl7.org/fhir/us/qicore/StructureDefinition/qicore-patient"]},"text":{"status":"generated","div":"<div xmlns=\"http://www.w3.org/1999/xhtml\"><div class=\"hapiHeaderText\">AssessP0RelDtTimeGTTimeOfDeliv<b>DENOMFail</b></div><table class=\"hapiPropertyTable\"><tbody><tr><td>Identifier</td><td>e81d53306e1d072e364f4cb1fe55e687c8eb216973693a9d8d3b7a70bc8067a7</td></tr><tr><td>Date of birth</td><td><span>14 February 1985</span></td></tr></tbody></table></div>"},"extension":[{"url":"http://hl7.org/fhir/us/core/StructureDefinition/us-core-race","extension":[{"url":"ombCategory","valueCoding":{"system":"urn:oid:2.16.840.1.113883.6.238","code":"1002-5","display":"American Indian or Alaska Native","userSelected":true}},{"url":"text","valueString":"American Indian or Alaska Native"}]},{"url":"http://hl7.org/fhir/us/core/StructureDefinition/us-core-ethnicity","extension":[{"url":"ombCategory","valueCoding":{"system":"urn:oid:2.16.840.1.113883.6.238","code":"2135-2","display":"Hispanic or Latino","userSelected":true}},{"url":"text","valueString":"Hispanic or Latino"}]}],"identifier":[{"type":{"coding":[{"system":"http://terminology.hl7.org/CodeSystem/v2-0203","code":"MR"}]},"system":"https://bonnie-fhir.healthit.gov/","value":"63487c2e0968f80122540169"}],"active":true,"name":[{"use":"usual","family":"DENOMFail","given":["AssessP0RelDtTimeGTTimeOfDeliv"]}],"gender":"female","birthDate":"1998-02-14"},"request":{"method":"PUT","url":"Patient/d5827ad0-6e0a-4e2c-b2f5-c8200ddd5f1f"}},{"resource":{"resourceType":"Bundle","id":"63487c2e0968f80122540169","type":"transaction","entry":[{"fullUrl":"https://madie.cms.gov/Patient/d5827ad0-6e0a-4e2c-b2f5-c8200ddd5f1f","resource":{"resourceType":"Patient","id":"d5827ad0-6e0a-4e2c-b2f5-c8200ddd5f1f","meta":{"profile":["http://hl7.org/fhir/us/qicore/StructureDefinition/qicore-patient"]},"text":{"status":"generated","div":"<div xmlns=\"http://www.w3.org/1999/xhtml\"><div class=\"hapiHeaderText\">AssessP0RelDtTimeGTTimeOfDeliv<b>DENOMFail</b></div><table class=\"hapiPropertyTable\"><tbody><tr><td>Identifier</td><td>e81d53306e1d072e364f4cb1fe55e687c8eb216973693a9d8d3b7a70bc8067a7</td></tr><tr><td>Date of birth</td><td><span>14 February 1985</span></td></tr></tbody></table></div>"},"extension":[{"url":"http://hl7.org/fhir/us/core/StructureDefinition/us-core-race","extension":[{"url":"ombCategory","valueCoding":{"system":"urn:oid:2.16.840.1.113883.6.238","code":"1002-5","display":"American Indian or Alaska Native","userSelected":true}},{"url":"text","valueString":"American Indian or Alaska Native"}]},{"url":"http://hl7.org/fhir/us/core/StructureDefinition/us-core-ethnicity","extension":[{"url":"ombCategory","valueCoding":{"system":"urn:oid:2.16.840.1.113883.6.238","code":"2135-2","display":"Hispanic or Latino","userSelected":true}},{"url":"text","valueString":"Hispanic or Latino"}]}],"identifier":[{"type":{"coding":[{"system":"http://terminology.hl7.org/CodeSystem/v2-0203","code":"MR"}]},"system":"https://bonnie-fhir.healthit.gov/","value":"63487c2e0968f80122540169"}],"active":true,"name":[{"use":"usual","family":"DENOMFail","given":["AssessP0RelDtTimeGTTimeOfDeliv"]}],"gender":"female","birthDate":"1998-02-14"},"request":{"method":"PUT","url":"Patient/d5827ad0-6e0a-4e2c-b2f5-c8200ddd5f1f"}},{"fullUrl":"https://madie.cms.gov/Observation/3fe0ed96-bb8c-42b4-83f8-0598be4c5dbc","resource":{"resourceType":"Observation","id":"3fe0ed96-bb8c-42b4-83f8-0598be4c5dbc","meta":{"profile":["http://hl7.org/fhir/us/qicore/StructureDefinition/qicore-simple-observation"]},"status":"final","category":[{"coding":[{"system":"http://terminology.hl7.org/CodeSystem/observation-category","code":"exam","display":"exam","userSelected":true}]}],"code":{"coding":[{"system":"http://loinc.org","code":"11884-4"}]},"subject":{"reference":"Patient/d5827ad0-6e0a-4e2c-b2f5-c8200ddd5f1f"},"issued":"2026-06-08T20:00:00.000+00:00","valueQuantity":{"value":37,"system":"http://unitsofmeasure.org","code":"wk"}},"request":{"method":"PUT","url":"Observation/3fe0ed96-bb8c-42b4-83f8-0598be4c5dbc"}},{"fullUrl":"https://madie.cms.gov/Observation/287d44fe-e777-419f-96c0-3d1ac597e234","resource":{"resourceType":"Observation","id":"287d44fe-e777-419f-96c0-3d1ac597e234","meta":{"profile":["http://hl7.org/fhir/us/qicore/StructureDefinition/qicore-simple-observation"]},"status":"final","category":[{"coding":[{"system":"http://terminology.hl7.org/CodeSystem/observation-category","code":"exam","display":"exam","userSelected":true}]}],"code":{"coding":[{"system":"http://loinc.org","code":"11977-6"}]},"subject":{"reference":"Patient/d5827ad0-6e0a-4e2c-b2f5-c8200ddd5f1f"},"effectiveDateTime":"2026-06-08T20:01:00.000+00:00","valueInteger":0},"request":{"method":"PUT","url":"Observation/287d44fe-e777-419f-96c0-3d1ac597e234"}},{"fullUrl":"https://madie.cms.gov/Observation/833e7c05-6374-4d55-bc46-0a80b98c2f8a","resource":{"resourceType":"Observation","id":"833e7c05-6374-4d55-bc46-0a80b98c2f8a","meta":{"profile":["http://hl7.org/fhir/us/qicore/StructureDefinition/qicore-simple-observation"]},"status":"final","category":[{"coding":[{"system":"http://terminology.hl7.org/CodeSystem/observation-category","code":"exam","display":"exam","userSelected":true}]}],"code":{"coding":[{"system":"http://loinc.org","code":"93857-1"}]},"subject":{"reference":"Patient/d5827ad0-6e0a-4e2c-b2f5-c8200ddd5f1f"},"effectiveDateTime":"2026-06-08T20:00:00.000+00:00","valueDateTime":"2026-06-08T20:00:00.000+00:00"},"request":{"method":"PUT","url":"Observation/833e7c05-6374-4d55-bc46-0a80b98c2f8a"}},{"fullUrl":"https://madie.cms.gov/Encounter/0c94516a-ee03-49aa-ab2e-7cc527bb4e66","resource":{"resourceType":"Encounter","id":"0c94516a-ee03-49aa-ab2e-7cc527bb4e66","meta":{"profile":["http://hl7.org/fhir/us/qicore/StructureDefinition/qicore-encounter"]},"status":"finished","class":{"system":"http://terminology.hl7.org/CodeSystem/v3-ActCode","code":"IMP","display":"inpatient encounter"},"type":[{"coding":[{"system":"http://snomed.info/sct","code":"8715000"}]}],"subject":{"reference":"Patient/d5827ad0-6e0a-4e2c-b2f5-c8200ddd5f1f"},"period":{"start":"2026-06-08T08:00:00.000+00:00","end":"2026-06-10T08:15:00.000+00:00"},"length":{"value":2,"unit":"days"},"reasonReference":[{"reference":"Condition/8768a514-d4fd-4504-879a-ff9fbcdf3293"}]},"request":{"method":"PUT","url":"Encounter/0c94516a-ee03-49aa-ab2e-7cc527bb4e66"}},{"fullUrl":"https://madie.cms.gov/Procedure/04e0c643-4eae-493e-af80-ab6e4b98dc43","resource":{"resourceType":"Procedure","id":"04e0c643-4eae-493e-af80-ab6e4b98dc43","meta":{"profile":["http://hl7.org/fhir/us/qicore/StructureDefinition/qicore-procedure"]},"extension":[{"url":"http://hl7.org/fhir/us/qicore/StructureDefinition/qicore-recorded","valueDateTime":"2014-04-05T13:35:00.000+00:00"}],"status":"completed","code":{"coding":[{"system":"http://www.cms.gov/Medicare/Coding/ICD10","code":"10D00Z0"},{"system":"http://snomed.info/sct","code":"4504004"}]},"subject":{"reference":"Patient/d5827ad0-6e0a-4e2c-b2f5-c8200ddd5f1f"},"performedPeriod":{"start":"2026-06-08T20:00:00.000+00:00","end":"2026-06-08T20:15:00.000+00:00"}},"request":{"method":"PUT","url":"Procedure/04e0c643-4eae-493e-af80-ab6e4b98dc43"}},{"fullUrl":"https://madie.cms.gov/Condition/8768a514-d4fd-4504-879a-ff9fbcdf3293","resource":{"resourceType":"Condition","id":"8768a514-d4fd-4504-879a-ff9fbcdf3293","meta":{"profile":["http://hl7.org/fhir/us/qicore/StructureDefinition/qicore-condition-encounter-diagnosis"]},"category":[{"coding":[{"system":"http://terminology.hl7.org/CodeSystem/condition-category","code":"encounter-diagnosis","display":"Encounter Diagnosis"}]}],"code":{"coding":[{"system":"http://snomed.info/sct","version":"2022-09","code":"169826009","display":"Single live birth from singleton pregnancy (finding)","userSelected":true}]},"subject":{"reference":"Patient/d5827ad0-6e0a-4e2c-b2f5-c8200ddd5f1f"},"encounter":{"reference":"Encounter/0c94516a-ee03-49aa-ab2e-7cc527bb4e66"},"recordedDate":"2026-10-21T08:00:00.000+00:00"},"request":{"method":"PUT","url":"Condition/8768a514-d4fd-4504-879a-ff9fbcdf3293"}},{"fullUrl":"https://madie.cms.gov/Coverage/b8407323-dd62-4ffc-ab5c-4e3206e313ca","resource":{"resourceType":"Coverage","id":"b8407323-dd62-4ffc-ab5c-4e3206e313ca","meta":{"profile":["http://hl7.org/fhir/us/qicore/StructureDefinition/qicore-coverage"]},"status":"active","subscriberId":"523435","beneficiary":{"reference":"Patient/d5827ad0-6e0a-4e2c-b2f5-c8200ddd5f1f"},"relationship":{"coding":[{"system":"http://terminology.hl7.org/CodeSystem/subscriber-relationship","code":"self"}]},"payor":[{"reference":"Organization/e6e77de0-fc2c-469b-93f7-efdd82b19dff"}]},"request":{"method":"PUT","url":"Coverage/b8407323-dd62-4ffc-ab5c-4e3206e313ca"}},{"fullUrl":"https://madie.cms.gov/Organization/e6e77de0-fc2c-469b-93f7-efdd82b19dff","resource":{"resourceType":"Organization","id":"e6e77de0-fc2c-469b-93f7-efdd82b19dff","meta":{"profile":["http://hl7.org/fhir/us/qicore/StructureDefinition/qicore-organization"]},"identifier":[{"use":"temp","system":"urn:oid:2.16.840.1.113883.4.4","value":"21-3259825"}],"active":true,"type":[{"coding":[{"system":"http://terminology.hl7.org/CodeSystem/organization-type","code":"pay","display":"Payer"}]}],"name":"Blue Cross Blue Shield of Texas","telecom":[{"system":"phone","value":"(+1) 972-766-6900"}],"address":[{"use":"billing","type":"postal","line":["P.O. Box 660044"],"city":"Dallas","state":"TX","postalCode":"75266-0044","country":"USA"}]},"request":{"method":"PUT","url":"Organization/e6e77de0-fc2c-469b-93f7-efdd82b19dff"}},{"fullUrl":"https://madie.cms.gov/Practitioner/57c81b6a-0422-41c8-92c2-788f3e8fb1eb","resource":{"resourceType":"Practitioner","id":"57c81b6a-0422-41c8-92c2-788f3e8fb1eb","meta":{"profile":["http://hl7.org/fhir/us/qicore/StructureDefinition/qicore-practitioner"]},"identifier":[{"system":"http://hl7.org/fhir/sid/us-npi","value":"1234567890"}],"name":[{"family":"Evil","prefix":["Dr"]}]},"request":{"method":"PUT","url":"Practitioner/57c81b6a-0422-41c8-92c2-788f3e8fb1eb"}},{"fullUrl":"https://madie.cms.gov/MeasureReport/2734e5e5-62b5-4e32-9cfd-cb1a51637b2d","resource":{"resourceType":"MeasureReport","id":"2734e5e5-62b5-4e32-9cfd-cb1a51637b2d","meta":{"profile":["http://hl7.org/fhir/us/cqfmeasures/StructureDefinition/test-case-cqfm"]},"contained":[{"resourceType":"Parameters","id":"9f415e35-0cac-4d05-a249-9a27b27fb834-parameters","parameter":[{"name":"subject","valueString":"d5827ad0-6e0a-4e2c-b2f5-c8200ddd5f1f"}]}],"extension":[{"url":"http://hl7.org/fhir/StructureDefinition/cqf-inputParameters","valueReference":{"reference":"#9f415e35-0cac-4d05-a249-9a27b27fb834-parameters"}},{"url":"http://hl7.org/fhir/us/cqfmeasures/StructureDefinition/cqfm-testCaseDescription","valueMarkdown":"Parity=0, relevant date/time after delivery date and time\n"}],"modifierExtension":[{"url":"http://hl7.org/fhir/us/cqfmeasures/StructureDefinition/cqfm-isTestCase","valueBoolean":true}],"status":"complete","type":"individual","measure":"https://madie.cms.gov/Measure/CMS0334FHIRPCCesareanBirth","period":{"start":"2026-01-01","end":"2026-12-31"},"group":[{"id":"Group_1","population":[{"id":"InitialPopulation_1","code":{"coding":[{"system":"http://terminology.hl7.org/CodeSystem/measure-population","code":"initial-population","display":"Initial Population"}]},"count":1},{"id":"Denominator_1","code":{"coding":[{"system":"http://terminology.hl7.org/CodeSystem/measure-population","code":"denominator","display":"Denominator"}]},"count":0},{"id":"DenominatorExclusion_1","code":{"coding":[{"system":"http://terminology.hl7.org/CodeSystem/measure-population","code":"denominator-exclusion","display":"Denominator Exclusion"}]},"count":0},{"id":"Numerator_1","code":{"coding":[{"system":"http://terminology.hl7.org/CodeSystem/measure-population","code":"numerator","display":"Numerator"}]},"count":0}],"measureScore":{"value":0.0}}],"evaluatedResource":[{"reference":"Patient/d5827ad0-6e0a-4e2c-b2f5-c8200ddd5f1f"},{"reference":"Observation/3fe0ed96-bb8c-42b4-83f8-0598be4c5dbc"},{"reference":"Observation/287d44fe-e777-419f-96c0-3d1ac597e234"},{"reference":"Observation/833e7c05-6374-4d55-bc46-0a80b98c2f8a"},{"reference":"Encounter/0c94516a-ee03-49aa-ab2e-7cc527bb4e66"},{"reference":"Procedure/04e0c643-4eae-493e-af80-ab6e4b98dc43"},{"reference":"Condition/8768a514-d4fd-4504-879a-ff9fbcdf3293"},{"reference":"Coverage/b8407323-dd62-4ffc-ab5c-4e3206e313ca"},{"reference":"Organization/e6e77de0-fc2c-469b-93f7-efdd82b19dff"},{"reference":"Practitioner/57c81b6a-0422-41c8-92c2-788f3e8fb1eb"}]},"request":{"method":"PUT","url":"MeasureReport/2734e5e5-62b5-4e32-9cfd-cb1a51637b2d"}}]},"request":{"method":"PUT","url":"Bundle/63487c2e0968f80122540169"}},{"resource":{"resourceType":"Organization","id":"e6e77de0-fc2c-469b-93f7-efdd82b19dff","meta":{"profile":["http://hl7.org/fhir/us/qicore/StructureDefinition/qicore-organization"]},"identifier":[{"use":"temp","system":"urn:oid:2.16.840.1.113883.4.4","value":"21-3259825"}],"active":true,"type":[{"coding":[{"system":"http://terminology.hl7.org/CodeSystem/organization-type","code":"pay","display":"Payer"}]}],"name":"Blue Cross Blue Shield of Texas","telecom":[{"system":"phone","value":"(+1) 972-766-6900"}],"address":[{"use":"billing","type":"postal","line":["P.O. Box 660044"],"city":"Dallas","state":"TX","postalCode":"75266-0044","country":"USA"}]},"request":{"method":"PUT","url":"Organization/e6e77de0-fc2c-469b-93f7-efdd82b19dff"}}]}