{"resourceType":"Bundle","id":"tests-8390a4d8-d09d-4889-8c3e-122900ba6a3e-bundle","type":"transaction","entry":[{"resource":{"resourceType":"Observation","id":"f44a719e-8072-43e2-9139-8f49667635da","meta":{"profile":["http://hl7.org/fhir/us/qicore/StructureDefinition/qicore-simple-observation"]},"status":"final","category":[{"coding":[{"system":"http://terminology.hl7.org/CodeSystem/observation-category","code":"exam","display":"exam","userSelected":true}]}],"code":{"coding":[{"system":"http://loinc.org","code":"93857-1"}]},"subject":{"reference":"Patient/8390a4d8-d09d-4889-8c3e-122900ba6a3e"},"effectiveDateTime":"2026-06-08T09:15:00.000+00:00","valueDateTime":"2026-06-08T09:15:00.000+00:00"},"request":{"method":"PUT","url":"Observation/f44a719e-8072-43e2-9139-8f49667635da"}},{"resource":{"resourceType":"Condition","id":"beb5d6fd-1a8d-4500-a7ef-3a3933a94503","meta":{"profile":["http://hl7.org/fhir/us/qicore/StructureDefinition/qicore-condition-encounter-diagnosis"]},"category":[{"coding":[{"system":"http://terminology.hl7.org/CodeSystem/condition-category","code":"encounter-diagnosis","display":"Encounter Diagnosis"}]}],"code":{"coding":[{"system":"http://snomed.info/sct","version":"2022-09","code":"18559007","display":"Frank breech presentation (finding)","userSelected":true}]},"subject":{"reference":"Patient/8390a4d8-d09d-4889-8c3e-122900ba6a3e"},"encounter":{"reference":"Encounter/97774276-21f2-4fce-9ace-fec2e547b8fd"},"recordedDate":"2026-10-21T08:00:00.000+00:00"},"request":{"method":"PUT","url":"Condition/beb5d6fd-1a8d-4500-a7ef-3a3933a94503"}},{"resource":{"resourceType":"Patient","id":"8390a4d8-d09d-4889-8c3e-122900ba6a3e","meta":{"profile":["http://hl7.org/fhir/us/qicore/StructureDefinition/qicore-patient"]},"text":{"status":"generated","div":"<div xmlns=\"http://www.w3.org/1999/xhtml\"><div class=\"hapiHeaderText\">EGAEQ37weeks <b>DENEXPASS </b></div><table class=\"hapiPropertyTable\"><tbody><tr><td>Identifier</td><td>73d161bbd72a0b8d656073de21758ea0022c984462702bb844daf97a7291f479</td></tr><tr><td>Date of birth</td><td><span>14 February 1985</span></td></tr></tbody></table></div>"},"extension":[{"url":"http://hl7.org/fhir/us/core/StructureDefinition/us-core-race","extension":[{"url":"ombCategory","valueCoding":{"system":"urn:oid:2.16.840.1.113883.6.238","code":"1002-5","display":"American Indian or Alaska Native","userSelected":true}},{"url":"text","valueString":"American Indian or Alaska Native"}]},{"url":"http://hl7.org/fhir/us/core/StructureDefinition/us-core-ethnicity","extension":[{"url":"ombCategory","valueCoding":{"system":"urn:oid:2.16.840.1.113883.6.238","code":"2135-2","display":"Hispanic or Latino","userSelected":true}},{"url":"text","valueString":"Hispanic or Latino"}]}],"identifier":[{"type":{"coding":[{"system":"http://terminology.hl7.org/CodeSystem/v2-0203","code":"MR"}]},"system":"https://bonnie-fhir.healthit.gov/","value":"63487c2e0968f80122540175"}],"active":true,"name":[{"use":"usual","family":"DENEXPass","given":["EGAEQ37weeks "]}],"gender":"female","birthDate":"1998-02-14"},"request":{"method":"PUT","url":"Patient/8390a4d8-d09d-4889-8c3e-122900ba6a3e"}},{"resource":{"resourceType":"Coverage","id":"c710e693-f6b2-4ad8-af8f-00b2f27fe8de","meta":{"profile":["http://hl7.org/fhir/us/qicore/StructureDefinition/qicore-coverage"]},"status":"active","subscriberId":"523435","beneficiary":{"reference":"Patient/8390a4d8-d09d-4889-8c3e-122900ba6a3e"},"relationship":{"coding":[{"system":"http://terminology.hl7.org/CodeSystem/subscriber-relationship","code":"self"}]},"payor":[{"reference":"Organization/1c4e573c-8fa5-44ce-9711-765a9317f918"}]},"request":{"method":"PUT","url":"Coverage/c710e693-f6b2-4ad8-af8f-00b2f27fe8de"}},{"resource":{"resourceType":"MeasureReport","id":"e499f65a-b08e-4c96-a617-240a4b082250","meta":{"profile":["http://hl7.org/fhir/us/cqfmeasures/StructureDefinition/test-case-cqfm"]},"contained":[{"resourceType":"Parameters","id":"c5b208cc-e181-4850-a624-d679b98c5420-parameters","parameter":[{"name":"subject","valueString":"8390a4d8-d09d-4889-8c3e-122900ba6a3e"}]}],"extension":[{"url":"http://hl7.org/fhir/StructureDefinition/cqf-inputParameters","valueReference":{"reference":"#c5b208cc-e181-4850-a624-d679b98c5420-parameters"}},{"url":"http://hl7.org/fhir/us/cqfmeasures/StructureDefinition/cqfm-testCaseDescription","valueMarkdown":"Passes: IP, Pt is 27 years of age,  encounter dx of delivery of singleton, gravida, EGA @ 37 weeks\n"}],"modifierExtension":[{"url":"http://hl7.org/fhir/us/cqfmeasures/StructureDefinition/cqfm-isTestCase","valueBoolean":true}],"status":"complete","type":"individual","measure":"https://madie.cms.gov/Measure/CMS0334FHIRPCCesareanBirth","period":{"start":"2026-01-01","end":"2026-12-31"},"group":[{"id":"Group_1","population":[{"id":"InitialPopulation_1","code":{"coding":[{"system":"http://terminology.hl7.org/CodeSystem/measure-population","code":"initial-population","display":"Initial Population"}]},"count":1},{"id":"Denominator_1","code":{"coding":[{"system":"http://terminology.hl7.org/CodeSystem/measure-population","code":"denominator","display":"Denominator"}]},"count":1},{"id":"DenominatorExclusion_1","code":{"coding":[{"system":"http://terminology.hl7.org/CodeSystem/measure-population","code":"denominator-exclusion","display":"Denominator Exclusion"}]},"count":1},{"id":"Numerator_1","code":{"coding":[{"system":"http://terminology.hl7.org/CodeSystem/measure-population","code":"numerator","display":"Numerator"}]},"count":0}],"measureScore":{"value":0.0}}],"evaluatedResource":[{"reference":"Patient/8390a4d8-d09d-4889-8c3e-122900ba6a3e"},{"reference":"Observation/dcf4405d-9216-483a-8b96-70396b3290fb"},{"reference":"Observation/58504cb6-dd2b-4cb2-b81a-a7b450b9823c"},{"reference":"Observation/f44a719e-8072-43e2-9139-8f49667635da"},{"reference":"Encounter/97774276-21f2-4fce-9ace-fec2e547b8fd"},{"reference":"Procedure/caeea99b-0bd7-4c44-ac15-c144d880f144"},{"reference":"Condition/2f9da7f7-bd1c-4337-ac15-ee8aaa82f837"},{"reference":"Condition/beb5d6fd-1a8d-4500-a7ef-3a3933a94503"},{"reference":"Coverage/c710e693-f6b2-4ad8-af8f-00b2f27fe8de"},{"reference":"Organization/1c4e573c-8fa5-44ce-9711-765a9317f918"},{"reference":"Practitioner/55a3a5cf-7bc2-4706-a135-99e76a7905e2"}]},"request":{"method":"PUT","url":"MeasureReport/e499f65a-b08e-4c96-a617-240a4b082250"}},{"resource":{"resourceType":"Encounter","id":"97774276-21f2-4fce-9ace-fec2e547b8fd","meta":{"profile":["http://hl7.org/fhir/us/qicore/StructureDefinition/qicore-encounter"]},"status":"finished","class":{"system":"http://terminology.hl7.org/CodeSystem/v3-ActCode","code":"IMP","display":"inpatient encounter"},"type":[{"coding":[{"system":"http://snomed.info/sct","code":"183452005"}]}],"subject":{"reference":"Patient/8390a4d8-d09d-4889-8c3e-122900ba6a3e"},"period":{"start":"2026-06-08T08:00:00.000+00:00","end":"2026-06-10T08:15:00.000+00:00"},"length":{"value":2,"unit":"days"},"reasonCode":[{"coding":[{"system":"http://snomed.info/sct","code":"169826009","display":"Single live birth from singleton pregnancy (finding)"}]}],"reasonReference":[{"reference":"Condition/beb5d6fd-1a8d-4500-a7ef-3a3933a94503"}]},"request":{"method":"PUT","url":"Encounter/97774276-21f2-4fce-9ace-fec2e547b8fd"}},{"resource":{"resourceType":"Procedure","id":"caeea99b-0bd7-4c44-ac15-c144d880f144","meta":{"profile":["http://hl7.org/fhir/us/qicore/StructureDefinition/qicore-procedure"]},"extension":[{"url":"http://hl7.org/fhir/us/qicore/StructureDefinition/qicore-recorded","valueDateTime":"2014-04-05T13:35:00.000+00:00"}],"status":"completed","code":{"coding":[{"system":"http://www.cms.gov/Medicare/Coding/ICD10","code":"10D00Z0"}]},"subject":{"reference":"Patient/8390a4d8-d09d-4889-8c3e-122900ba6a3e"},"performedPeriod":{"start":"2026-06-08T08:00:00.000+00:00","end":"2026-06-08T09:15:00.000+00:00"}},"request":{"method":"PUT","url":"Procedure/caeea99b-0bd7-4c44-ac15-c144d880f144"}},{"resource":{"resourceType":"Organization","id":"1c4e573c-8fa5-44ce-9711-765a9317f918","meta":{"profile":["http://hl7.org/fhir/us/qicore/StructureDefinition/qicore-organization"]},"identifier":[{"use":"temp","system":"urn:oid:2.16.840.1.113883.4.4","value":"21-3259825"}],"active":true,"type":[{"coding":[{"system":"http://terminology.hl7.org/CodeSystem/organization-type","code":"pay","display":"Payer"}]}],"name":"Blue Cross Blue Shield of Texas","telecom":[{"system":"phone","value":"(+1) 972-766-6900"}],"address":[{"use":"billing","type":"postal","line":["P.O. Box 660044"],"city":"Dallas","state":"TX","postalCode":"75266-0044","country":"USA"}]},"request":{"method":"PUT","url":"Organization/1c4e573c-8fa5-44ce-9711-765a9317f918"}},{"resource":{"resourceType":"Observation","id":"dcf4405d-9216-483a-8b96-70396b3290fb","meta":{"profile":["http://hl7.org/fhir/us/qicore/StructureDefinition/qicore-simple-observation"]},"status":"final","category":[{"coding":[{"system":"http://terminology.hl7.org/CodeSystem/observation-category","code":"exam","display":"exam","userSelected":true}]}],"code":{"coding":[{"system":"http://loinc.org","code":"11996-6"}]},"subject":{"reference":"Patient/8390a4d8-d09d-4889-8c3e-122900ba6a3e"},"effectiveDateTime":"2026-06-08T08:00:00.000+00:00","valueInteger":1},"request":{"method":"PUT","url":"Observation/dcf4405d-9216-483a-8b96-70396b3290fb"}},{"resource":{"resourceType":"Practitioner","id":"55a3a5cf-7bc2-4706-a135-99e76a7905e2","meta":{"profile":["http://hl7.org/fhir/us/qicore/StructureDefinition/qicore-practitioner"]},"identifier":[{"system":"http://hl7.org/fhir/sid/us-npi","value":"1234567890"}],"name":[{"family":"Evil","prefix":["Dr"]}]},"request":{"method":"PUT","url":"Practitioner/55a3a5cf-7bc2-4706-a135-99e76a7905e2"}},{"resource":{"resourceType":"Condition","id":"2f9da7f7-bd1c-4337-ac15-ee8aaa82f837","meta":{"profile":["http://hl7.org/fhir/us/qicore/StructureDefinition/qicore-condition-encounter-diagnosis"]},"category":[{"coding":[{"system":"http://terminology.hl7.org/CodeSystem/condition-category","code":"encounter-diagnosis","display":"Encounter Diagnosis"}]}],"code":{"coding":[{"system":"http://snomed.info/sct","version":"2022-09","code":"169826009","display":"Single live birth from singleton pregnancy (finding)","userSelected":true}]},"subject":{"reference":"Patient/8390a4d8-d09d-4889-8c3e-122900ba6a3e"},"encounter":{"reference":"Encounter/97774276-21f2-4fce-9ace-fec2e547b8fd"},"recordedDate":"2026-10-20T08:00:00.000+00:00"},"request":{"method":"PUT","url":"Condition/2f9da7f7-bd1c-4337-ac15-ee8aaa82f837"}},{"resource":{"resourceType":"Observation","id":"58504cb6-dd2b-4cb2-b81a-a7b450b9823c","meta":{"profile":["http://hl7.org/fhir/us/qicore/StructureDefinition/qicore-simple-observation"]},"status":"final","category":[{"coding":[{"system":"http://terminology.hl7.org/CodeSystem/observation-category","code":"exam","display":"exam","userSelected":true}]}],"code":{"coding":[{"system":"http://loinc.org","code":"11884-4"}]},"subject":{"reference":"Patient/8390a4d8-d09d-4889-8c3e-122900ba6a3e"},"effectiveDateTime":"2026-06-08T09:15:00.000+00:00","valueQuantity":{"value":37,"system":"http://unitsofmeasure.org","code":"wk"}},"request":{"method":"PUT","url":"Observation/58504cb6-dd2b-4cb2-b81a-a7b450b9823c"}},{"resource":{"resourceType":"Bundle","id":"63487c2e0968f80122540175","type":"transaction","entry":[{"fullUrl":"https://madie.cms.gov/Patient/8390a4d8-d09d-4889-8c3e-122900ba6a3e","resource":{"resourceType":"Patient","id":"8390a4d8-d09d-4889-8c3e-122900ba6a3e","meta":{"profile":["http://hl7.org/fhir/us/qicore/StructureDefinition/qicore-patient"]},"text":{"status":"generated","div":"<div xmlns=\"http://www.w3.org/1999/xhtml\"><div class=\"hapiHeaderText\">EGAEQ37weeks <b>DENEXPASS </b></div><table class=\"hapiPropertyTable\"><tbody><tr><td>Identifier</td><td>73d161bbd72a0b8d656073de21758ea0022c984462702bb844daf97a7291f479</td></tr><tr><td>Date of birth</td><td><span>14 February 1985</span></td></tr></tbody></table></div>"},"extension":[{"url":"http://hl7.org/fhir/us/core/StructureDefinition/us-core-race","extension":[{"url":"ombCategory","valueCoding":{"system":"urn:oid:2.16.840.1.113883.6.238","code":"1002-5","display":"American Indian or Alaska Native","userSelected":true}},{"url":"text","valueString":"American Indian or Alaska Native"}]},{"url":"http://hl7.org/fhir/us/core/StructureDefinition/us-core-ethnicity","extension":[{"url":"ombCategory","valueCoding":{"system":"urn:oid:2.16.840.1.113883.6.238","code":"2135-2","display":"Hispanic or Latino","userSelected":true}},{"url":"text","valueString":"Hispanic or Latino"}]}],"identifier":[{"type":{"coding":[{"system":"http://terminology.hl7.org/CodeSystem/v2-0203","code":"MR"}]},"system":"https://bonnie-fhir.healthit.gov/","value":"63487c2e0968f80122540175"}],"active":true,"name":[{"use":"usual","family":"DENEXPass","given":["EGAEQ37weeks "]}],"gender":"female","birthDate":"1998-02-14"},"request":{"method":"PUT","url":"Patient/8390a4d8-d09d-4889-8c3e-122900ba6a3e"}},{"fullUrl":"https://madie.cms.gov/Observation/dcf4405d-9216-483a-8b96-70396b3290fb","resource":{"resourceType":"Observation","id":"dcf4405d-9216-483a-8b96-70396b3290fb","meta":{"profile":["http://hl7.org/fhir/us/qicore/StructureDefinition/qicore-simple-observation"]},"status":"final","category":[{"coding":[{"system":"http://terminology.hl7.org/CodeSystem/observation-category","code":"exam","display":"exam","userSelected":true}]}],"code":{"coding":[{"system":"http://loinc.org","code":"11996-6"}]},"subject":{"reference":"Patient/8390a4d8-d09d-4889-8c3e-122900ba6a3e"},"effectiveDateTime":"2026-06-08T08:00:00.000+00:00","valueInteger":1},"request":{"method":"PUT","url":"Observation/dcf4405d-9216-483a-8b96-70396b3290fb"}},{"fullUrl":"https://madie.cms.gov/Observation/58504cb6-dd2b-4cb2-b81a-a7b450b9823c","resource":{"resourceType":"Observation","id":"58504cb6-dd2b-4cb2-b81a-a7b450b9823c","meta":{"profile":["http://hl7.org/fhir/us/qicore/StructureDefinition/qicore-simple-observation"]},"status":"final","category":[{"coding":[{"system":"http://terminology.hl7.org/CodeSystem/observation-category","code":"exam","display":"exam","userSelected":true}]}],"code":{"coding":[{"system":"http://loinc.org","code":"11884-4"}]},"subject":{"reference":"Patient/8390a4d8-d09d-4889-8c3e-122900ba6a3e"},"effectiveDateTime":"2026-06-08T09:15:00.000+00:00","valueQuantity":{"value":37,"system":"http://unitsofmeasure.org","code":"wk"}},"request":{"method":"PUT","url":"Observation/58504cb6-dd2b-4cb2-b81a-a7b450b9823c"}},{"fullUrl":"https://madie.cms.gov/Observation/f44a719e-8072-43e2-9139-8f49667635da","resource":{"resourceType":"Observation","id":"f44a719e-8072-43e2-9139-8f49667635da","meta":{"profile":["http://hl7.org/fhir/us/qicore/StructureDefinition/qicore-simple-observation"]},"status":"final","category":[{"coding":[{"system":"http://terminology.hl7.org/CodeSystem/observation-category","code":"exam","display":"exam","userSelected":true}]}],"code":{"coding":[{"system":"http://loinc.org","code":"93857-1"}]},"subject":{"reference":"Patient/8390a4d8-d09d-4889-8c3e-122900ba6a3e"},"effectiveDateTime":"2026-06-08T09:15:00.000+00:00","valueDateTime":"2026-06-08T09:15:00.000+00:00"},"request":{"method":"PUT","url":"Observation/f44a719e-8072-43e2-9139-8f49667635da"}},{"fullUrl":"https://madie.cms.gov/Encounter/97774276-21f2-4fce-9ace-fec2e547b8fd","resource":{"resourceType":"Encounter","id":"97774276-21f2-4fce-9ace-fec2e547b8fd","meta":{"profile":["http://hl7.org/fhir/us/qicore/StructureDefinition/qicore-encounter"]},"status":"finished","class":{"system":"http://terminology.hl7.org/CodeSystem/v3-ActCode","code":"IMP","display":"inpatient encounter"},"type":[{"coding":[{"system":"http://snomed.info/sct","code":"183452005"}]}],"subject":{"reference":"Patient/8390a4d8-d09d-4889-8c3e-122900ba6a3e"},"period":{"start":"2026-06-08T08:00:00.000+00:00","end":"2026-06-10T08:15:00.000+00:00"},"length":{"value":2,"unit":"days"},"reasonCode":[{"coding":[{"system":"http://snomed.info/sct","code":"169826009","display":"Single live birth from singleton pregnancy (finding)"}]}],"reasonReference":[{"reference":"Condition/beb5d6fd-1a8d-4500-a7ef-3a3933a94503"}]},"request":{"method":"PUT","url":"Encounter/97774276-21f2-4fce-9ace-fec2e547b8fd"}},{"fullUrl":"https://madie.cms.gov/Procedure/caeea99b-0bd7-4c44-ac15-c144d880f144","resource":{"resourceType":"Procedure","id":"caeea99b-0bd7-4c44-ac15-c144d880f144","meta":{"profile":["http://hl7.org/fhir/us/qicore/StructureDefinition/qicore-procedure"]},"extension":[{"url":"http://hl7.org/fhir/us/qicore/StructureDefinition/qicore-recorded","valueDateTime":"2014-04-05T13:35:00.000+00:00"}],"status":"completed","code":{"coding":[{"system":"http://www.cms.gov/Medicare/Coding/ICD10","code":"10D00Z0"}]},"subject":{"reference":"Patient/8390a4d8-d09d-4889-8c3e-122900ba6a3e"},"performedPeriod":{"start":"2026-06-08T08:00:00.000+00:00","end":"2026-06-08T09:15:00.000+00:00"}},"request":{"method":"PUT","url":"Procedure/caeea99b-0bd7-4c44-ac15-c144d880f144"}},{"fullUrl":"https://madie.cms.gov/Condition/2f9da7f7-bd1c-4337-ac15-ee8aaa82f837","resource":{"resourceType":"Condition","id":"2f9da7f7-bd1c-4337-ac15-ee8aaa82f837","meta":{"profile":["http://hl7.org/fhir/us/qicore/StructureDefinition/qicore-condition-encounter-diagnosis"]},"category":[{"coding":[{"system":"http://terminology.hl7.org/CodeSystem/condition-category","code":"encounter-diagnosis","display":"Encounter Diagnosis"}]}],"code":{"coding":[{"system":"http://snomed.info/sct","version":"2022-09","code":"169826009","display":"Single live birth from singleton pregnancy (finding)","userSelected":true}]},"subject":{"reference":"Patient/8390a4d8-d09d-4889-8c3e-122900ba6a3e"},"encounter":{"reference":"Encounter/97774276-21f2-4fce-9ace-fec2e547b8fd"},"recordedDate":"2026-10-20T08:00:00.000+00:00"},"request":{"method":"PUT","url":"Condition/2f9da7f7-bd1c-4337-ac15-ee8aaa82f837"}},{"fullUrl":"https://madie.cms.gov/Condition/beb5d6fd-1a8d-4500-a7ef-3a3933a94503","resource":{"resourceType":"Condition","id":"beb5d6fd-1a8d-4500-a7ef-3a3933a94503","meta":{"profile":["http://hl7.org/fhir/us/qicore/StructureDefinition/qicore-condition-encounter-diagnosis"]},"category":[{"coding":[{"system":"http://terminology.hl7.org/CodeSystem/condition-category","code":"encounter-diagnosis","display":"Encounter Diagnosis"}]}],"code":{"coding":[{"system":"http://snomed.info/sct","version":"2022-09","code":"18559007","display":"Frank breech presentation (finding)","userSelected":true}]},"subject":{"reference":"Patient/8390a4d8-d09d-4889-8c3e-122900ba6a3e"},"encounter":{"reference":"Encounter/97774276-21f2-4fce-9ace-fec2e547b8fd"},"recordedDate":"2026-10-21T08:00:00.000+00:00"},"request":{"method":"PUT","url":"Condition/beb5d6fd-1a8d-4500-a7ef-3a3933a94503"}},{"fullUrl":"https://madie.cms.gov/Coverage/c710e693-f6b2-4ad8-af8f-00b2f27fe8de","resource":{"resourceType":"Coverage","id":"c710e693-f6b2-4ad8-af8f-00b2f27fe8de","meta":{"profile":["http://hl7.org/fhir/us/qicore/StructureDefinition/qicore-coverage"]},"status":"active","subscriberId":"523435","beneficiary":{"reference":"Patient/8390a4d8-d09d-4889-8c3e-122900ba6a3e"},"relationship":{"coding":[{"system":"http://terminology.hl7.org/CodeSystem/subscriber-relationship","code":"self"}]},"payor":[{"reference":"Organization/1c4e573c-8fa5-44ce-9711-765a9317f918"}]},"request":{"method":"PUT","url":"Coverage/c710e693-f6b2-4ad8-af8f-00b2f27fe8de"}},{"fullUrl":"https://madie.cms.gov/Organization/1c4e573c-8fa5-44ce-9711-765a9317f918","resource":{"resourceType":"Organization","id":"1c4e573c-8fa5-44ce-9711-765a9317f918","meta":{"profile":["http://hl7.org/fhir/us/qicore/StructureDefinition/qicore-organization"]},"identifier":[{"use":"temp","system":"urn:oid:2.16.840.1.113883.4.4","value":"21-3259825"}],"active":true,"type":[{"coding":[{"system":"http://terminology.hl7.org/CodeSystem/organization-type","code":"pay","display":"Payer"}]}],"name":"Blue Cross Blue Shield of Texas","telecom":[{"system":"phone","value":"(+1) 972-766-6900"}],"address":[{"use":"billing","type":"postal","line":["P.O. Box 660044"],"city":"Dallas","state":"TX","postalCode":"75266-0044","country":"USA"}]},"request":{"method":"PUT","url":"Organization/1c4e573c-8fa5-44ce-9711-765a9317f918"}},{"fullUrl":"https://madie.cms.gov/Practitioner/55a3a5cf-7bc2-4706-a135-99e76a7905e2","resource":{"resourceType":"Practitioner","id":"55a3a5cf-7bc2-4706-a135-99e76a7905e2","meta":{"profile":["http://hl7.org/fhir/us/qicore/StructureDefinition/qicore-practitioner"]},"identifier":[{"system":"http://hl7.org/fhir/sid/us-npi","value":"1234567890"}],"name":[{"family":"Evil","prefix":["Dr"]}]},"request":{"method":"PUT","url":"Practitioner/55a3a5cf-7bc2-4706-a135-99e76a7905e2"}},{"fullUrl":"https://madie.cms.gov/MeasureReport/e499f65a-b08e-4c96-a617-240a4b082250","resource":{"resourceType":"MeasureReport","id":"e499f65a-b08e-4c96-a617-240a4b082250","meta":{"profile":["http://hl7.org/fhir/us/cqfmeasures/StructureDefinition/test-case-cqfm"]},"contained":[{"resourceType":"Parameters","id":"c5b208cc-e181-4850-a624-d679b98c5420-parameters","parameter":[{"name":"subject","valueString":"8390a4d8-d09d-4889-8c3e-122900ba6a3e"}]}],"extension":[{"url":"http://hl7.org/fhir/StructureDefinition/cqf-inputParameters","valueReference":{"reference":"#c5b208cc-e181-4850-a624-d679b98c5420-parameters"}},{"url":"http://hl7.org/fhir/us/cqfmeasures/StructureDefinition/cqfm-testCaseDescription","valueMarkdown":"Passes: IP, Pt is 27 years of age,  encounter dx of delivery of singleton, gravida, EGA @ 37 weeks\n"}],"modifierExtension":[{"url":"http://hl7.org/fhir/us/cqfmeasures/StructureDefinition/cqfm-isTestCase","valueBoolean":true}],"status":"complete","type":"individual","measure":"https://madie.cms.gov/Measure/CMS0334FHIRPCCesareanBirth","period":{"start":"2026-01-01","end":"2026-12-31"},"group":[{"id":"Group_1","population":[{"id":"InitialPopulation_1","code":{"coding":[{"system":"http://terminology.hl7.org/CodeSystem/measure-population","code":"initial-population","display":"Initial Population"}]},"count":1},{"id":"Denominator_1","code":{"coding":[{"system":"http://terminology.hl7.org/CodeSystem/measure-population","code":"denominator","display":"Denominator"}]},"count":1},{"id":"DenominatorExclusion_1","code":{"coding":[{"system":"http://terminology.hl7.org/CodeSystem/measure-population","code":"denominator-exclusion","display":"Denominator Exclusion"}]},"count":1},{"id":"Numerator_1","code":{"coding":[{"system":"http://terminology.hl7.org/CodeSystem/measure-population","code":"numerator","display":"Numerator"}]},"count":0}],"measureScore":{"value":0.0}}],"evaluatedResource":[{"reference":"Patient/8390a4d8-d09d-4889-8c3e-122900ba6a3e"},{"reference":"Observation/dcf4405d-9216-483a-8b96-70396b3290fb"},{"reference":"Observation/58504cb6-dd2b-4cb2-b81a-a7b450b9823c"},{"reference":"Observation/f44a719e-8072-43e2-9139-8f49667635da"},{"reference":"Encounter/97774276-21f2-4fce-9ace-fec2e547b8fd"},{"reference":"Procedure/caeea99b-0bd7-4c44-ac15-c144d880f144"},{"reference":"Condition/2f9da7f7-bd1c-4337-ac15-ee8aaa82f837"},{"reference":"Condition/beb5d6fd-1a8d-4500-a7ef-3a3933a94503"},{"reference":"Coverage/c710e693-f6b2-4ad8-af8f-00b2f27fe8de"},{"reference":"Organization/1c4e573c-8fa5-44ce-9711-765a9317f918"},{"reference":"Practitioner/55a3a5cf-7bc2-4706-a135-99e76a7905e2"}]},"request":{"method":"PUT","url":"MeasureReport/e499f65a-b08e-4c96-a617-240a4b082250"}}]},"request":{"method":"PUT","url":"Bundle/63487c2e0968f80122540175"}}]}