{"resourceType":"Bundle","id":"tests-d67078ee-41eb-4c8e-a14e-7a433a2e2b87-bundle","type":"transaction","entry":[{"resource":{"resourceType":"Patient","id":"d67078ee-41eb-4c8e-a14e-7a433a2e2b87","meta":{"profile":["http://hl7.org/fhir/us/qicore/StructureDefinition/qicore-patient"]},"text":{"status":"generated","div":"<div xmlns=\"http://www.w3.org/1999/xhtml\"><div class=\"hapiHeaderText\">CalcEGAEstDelivNULL<b>DENOMFAIL </b></div><table class=\"hapiPropertyTable\"><tbody><tr><td>Identifier</td><td>b00b06f67015bda652373741cca10f65466d828e3a674df9528f73ec417ce0bb</td></tr><tr><td>Date of birth</td><td><span>14 February 1985</span></td></tr></tbody></table></div>"},"extension":[{"url":"http://hl7.org/fhir/us/core/StructureDefinition/us-core-race","extension":[{"url":"ombCategory","valueCoding":{"system":"urn:oid:2.16.840.1.113883.6.238","code":"1002-5","display":"American Indian or Alaska Native","userSelected":true}},{"url":"text","valueString":"American Indian or Alaska Native"}]},{"url":"http://hl7.org/fhir/us/core/StructureDefinition/us-core-ethnicity","extension":[{"url":"ombCategory","valueCoding":{"system":"urn:oid:2.16.840.1.113883.6.238","code":"2135-2","display":"Hispanic or Latino","userSelected":true}},{"url":"text","valueString":"Hispanic or Latino"}]}],"identifier":[{"type":{"coding":[{"system":"http://terminology.hl7.org/CodeSystem/v2-0203","code":"MR"}]},"system":"https://bonnie-fhir.healthit.gov/","value":"63487c2f0968f801225401a6"}],"active":true,"name":[{"use":"usual","family":"DENOMFail","given":["CalcEGAEstDelivNULL"]}],"gender":"female","birthDate":"1998-02-14"},"request":{"method":"PUT","url":"Patient/d67078ee-41eb-4c8e-a14e-7a433a2e2b87"}},{"resource":{"resourceType":"Coverage","id":"0d8a7156-9496-4070-beee-c059d7a16f10","meta":{"profile":["http://hl7.org/fhir/us/qicore/StructureDefinition/qicore-coverage"]},"status":"active","subscriberId":"523435","beneficiary":{"reference":"Patient/d67078ee-41eb-4c8e-a14e-7a433a2e2b87"},"relationship":{"coding":[{"system":"http://terminology.hl7.org/CodeSystem/subscriber-relationship","code":"self"}]},"payor":[{"reference":"Organization/e416c217-7e5b-4d86-98a2-97eace3617ff"}]},"request":{"method":"PUT","url":"Coverage/0d8a7156-9496-4070-beee-c059d7a16f10"}},{"resource":{"resourceType":"Bundle","id":"63487c2f0968f801225401a6","type":"transaction","entry":[{"fullUrl":"https://madie.cms.gov/Patient/d67078ee-41eb-4c8e-a14e-7a433a2e2b87","resource":{"resourceType":"Patient","id":"d67078ee-41eb-4c8e-a14e-7a433a2e2b87","meta":{"profile":["http://hl7.org/fhir/us/qicore/StructureDefinition/qicore-patient"]},"text":{"status":"generated","div":"<div xmlns=\"http://www.w3.org/1999/xhtml\"><div class=\"hapiHeaderText\">CalcEGAEstDelivNULL<b>DENOMFAIL </b></div><table class=\"hapiPropertyTable\"><tbody><tr><td>Identifier</td><td>b00b06f67015bda652373741cca10f65466d828e3a674df9528f73ec417ce0bb</td></tr><tr><td>Date of birth</td><td><span>14 February 1985</span></td></tr></tbody></table></div>"},"extension":[{"url":"http://hl7.org/fhir/us/core/StructureDefinition/us-core-race","extension":[{"url":"ombCategory","valueCoding":{"system":"urn:oid:2.16.840.1.113883.6.238","code":"1002-5","display":"American Indian or Alaska Native","userSelected":true}},{"url":"text","valueString":"American Indian or Alaska Native"}]},{"url":"http://hl7.org/fhir/us/core/StructureDefinition/us-core-ethnicity","extension":[{"url":"ombCategory","valueCoding":{"system":"urn:oid:2.16.840.1.113883.6.238","code":"2135-2","display":"Hispanic or Latino","userSelected":true}},{"url":"text","valueString":"Hispanic or Latino"}]}],"identifier":[{"type":{"coding":[{"system":"http://terminology.hl7.org/CodeSystem/v2-0203","code":"MR"}]},"system":"https://bonnie-fhir.healthit.gov/","value":"63487c2f0968f801225401a6"}],"active":true,"name":[{"use":"usual","family":"DENOMFail","given":["CalcEGAEstDelivNULL"]}],"gender":"female","birthDate":"1998-02-14"},"request":{"method":"PUT","url":"Patient/d67078ee-41eb-4c8e-a14e-7a433a2e2b87"}},{"fullUrl":"https://madie.cms.gov/Observation/081dd72e-08ed-4b34-a6a8-bef9733ddd92","resource":{"resourceType":"Observation","id":"081dd72e-08ed-4b34-a6a8-bef9733ddd92","meta":{"profile":["http://hl7.org/fhir/us/qicore/StructureDefinition/qicore-simple-observation"]},"status":"final","category":[{"coding":[{"system":"http://terminology.hl7.org/CodeSystem/observation-category","code":"exam","display":"exam","userSelected":true}]}],"code":{"coding":[{"system":"http://loinc.org","code":"93857-1"}]},"subject":{"reference":"Patient/d67078ee-41eb-4c8e-a14e-7a433a2e2b87"},"effectiveDateTime":"2026-01-15T08:00:00.000+00:00","performer":[{"reference":"Organization/example1","display":"Hendricks Country Hospital"}],"valueDateTime":"2026-01-15T08:00:00.000+00:00"},"request":{"method":"PUT","url":"Observation/081dd72e-08ed-4b34-a6a8-bef9733ddd92"}},{"fullUrl":"https://madie.cms.gov/Observation/9cba18e9-00ca-4cb5-a7be-9e5c99380c5c","resource":{"resourceType":"Observation","id":"9cba18e9-00ca-4cb5-a7be-9e5c99380c5c","meta":{"profile":["http://hl7.org/fhir/us/qicore/StructureDefinition/qicore-simple-observation"]},"status":"final","category":[{"coding":[{"system":"http://terminology.hl7.org/CodeSystem/observation-category","code":"exam","display":"exam","userSelected":true}]}],"code":{"coding":[{"system":"http://loinc.org","code":"11778-8"}]},"subject":{"reference":"Patient/d67078ee-41eb-4c8e-a14e-7a433a2e2b87"},"effectiveDateTime":"2026-01-15T07:00:00.000+00:00","performer":[{"reference":"Organization/example1","display":"Hendricks Country Hospital"}]},"request":{"method":"PUT","url":"Observation/9cba18e9-00ca-4cb5-a7be-9e5c99380c5c"}},{"fullUrl":"https://madie.cms.gov/Observation/b8449fce-5e66-4ee7-9437-0f041a0bfa15","resource":{"resourceType":"Observation","id":"b8449fce-5e66-4ee7-9437-0f041a0bfa15","meta":{"profile":["http://hl7.org/fhir/us/qicore/StructureDefinition/qicore-simple-observation"]},"status":"final","category":[{"coding":[{"system":"http://terminology.hl7.org/CodeSystem/observation-category","code":"exam","display":"exam","userSelected":true}]}],"code":{"coding":[{"system":"http://loinc.org","code":"11996-6"}]},"subject":{"reference":"Patient/d67078ee-41eb-4c8e-a14e-7a433a2e2b87"},"effectiveDateTime":"2026-01-15T07:59:00.000+00:00","performer":[{"reference":"Organization/example1","display":"Hendricks Country Hospital"}],"valueInteger":1},"request":{"method":"PUT","url":"Observation/b8449fce-5e66-4ee7-9437-0f041a0bfa15"}},{"fullUrl":"https://madie.cms.gov/Encounter/bef15f89-9805-4323-86c2-30a70794a174","resource":{"resourceType":"Encounter","id":"bef15f89-9805-4323-86c2-30a70794a174","meta":{"profile":["http://hl7.org/fhir/us/qicore/StructureDefinition/qicore-encounter"]},"status":"finished","class":{"system":"http://terminology.hl7.org/CodeSystem/v3-ActCode","code":"IMP","display":"inpatient encounter"},"type":[{"coding":[{"system":"http://snomed.info/sct","code":"183452005"}]}],"subject":{"reference":"Patient/d67078ee-41eb-4c8e-a14e-7a433a2e2b87"},"period":{"start":"2026-01-15T08:00:00.000+00:00","end":"2026-01-20T08:15:00.000+00:00"},"reasonCode":[{"coding":[{"system":"http://snomed.info/sct","code":"169826009","display":"Single live birth from singleton pregnancy (finding)"}]}]},"request":{"method":"PUT","url":"Encounter/bef15f89-9805-4323-86c2-30a70794a174"}},{"fullUrl":"https://madie.cms.gov/Procedure/8f9f4e8c-21a6-44d5-9e22-8b6d0bc21a0f","resource":{"resourceType":"Procedure","id":"8f9f4e8c-21a6-44d5-9e22-8b6d0bc21a0f","meta":{"profile":["http://hl7.org/fhir/us/qicore/StructureDefinition/qicore-procedure"]},"extension":[{"url":"http://hl7.org/fhir/us/qicore/StructureDefinition/qicore-recorded","valueDateTime":"2014-04-05T13:35:00.000+00:00"}],"status":"completed","code":{"coding":[{"system":"http://www.cms.gov/Medicare/Coding/ICD10","code":"10D07Z3"}]},"subject":{"reference":"Patient/d67078ee-41eb-4c8e-a14e-7a433a2e2b87"},"performedPeriod":{"start":"2026-01-15T08:10:00.000+00:00","end":"2026-01-15T09:14:00.000+00:00"}},"request":{"method":"PUT","url":"Procedure/8f9f4e8c-21a6-44d5-9e22-8b6d0bc21a0f"}},{"fullUrl":"https://madie.cms.gov/Condition/717aa580-8a59-4216-a3b4-4f09ee7a5e9e","resource":{"resourceType":"Condition","id":"717aa580-8a59-4216-a3b4-4f09ee7a5e9e","meta":{"profile":["http://hl7.org/fhir/us/qicore/StructureDefinition/qicore-condition"]},"category":[{"coding":[{"system":"http://terminology.hl7.org/CodeSystem/condition-category","code":"encounter-diagnosis","display":"Encounter Diagnosis"}]}],"code":{"coding":[{"system":"http://snomed.info/sct","version":"2022-09","code":"169826009","display":"Single live birth (finding)","userSelected":true}]},"subject":{"reference":"Patient/d67078ee-41eb-4c8e-a14e-7a433a2e2b87"},"recordedDate":"2026-10-21T08:00:00.000+00:00"},"request":{"method":"PUT","url":"Condition/717aa580-8a59-4216-a3b4-4f09ee7a5e9e"}},{"fullUrl":"https://madie.cms.gov/Coverage/0d8a7156-9496-4070-beee-c059d7a16f10","resource":{"resourceType":"Coverage","id":"0d8a7156-9496-4070-beee-c059d7a16f10","meta":{"profile":["http://hl7.org/fhir/us/qicore/StructureDefinition/qicore-coverage"]},"status":"active","subscriberId":"523435","beneficiary":{"reference":"Patient/d67078ee-41eb-4c8e-a14e-7a433a2e2b87"},"relationship":{"coding":[{"system":"http://terminology.hl7.org/CodeSystem/subscriber-relationship","code":"self"}]},"payor":[{"reference":"Organization/e416c217-7e5b-4d86-98a2-97eace3617ff"}]},"request":{"method":"PUT","url":"Coverage/0d8a7156-9496-4070-beee-c059d7a16f10"}},{"fullUrl":"https://madie.cms.gov/Organization/e416c217-7e5b-4d86-98a2-97eace3617ff","resource":{"resourceType":"Organization","id":"e416c217-7e5b-4d86-98a2-97eace3617ff","meta":{"profile":["http://hl7.org/fhir/us/qicore/StructureDefinition/qicore-organization"]},"identifier":[{"use":"temp","system":"urn:oid:2.16.840.1.113883.4.4","value":"21-3259825"}],"active":true,"type":[{"coding":[{"system":"http://terminology.hl7.org/CodeSystem/organization-type","code":"pay","display":"Payer"}]}],"name":"Blue Cross Blue Shield of Texas","telecom":[{"system":"phone","value":"(+1) 972-766-6900"}],"address":[{"use":"billing","type":"postal","line":["P.O. Box 660044"],"city":"Dallas","state":"TX","postalCode":"75266-0044","country":"USA"}]},"request":{"method":"PUT","url":"Organization/e416c217-7e5b-4d86-98a2-97eace3617ff"}},{"fullUrl":"https://madie.cms.gov/Practitioner/c4a90407-b440-4e82-b06f-b49c804304c2","resource":{"resourceType":"Practitioner","id":"c4a90407-b440-4e82-b06f-b49c804304c2","meta":{"profile":["http://hl7.org/fhir/us/qicore/StructureDefinition/qicore-practitioner"]},"identifier":[{"system":"http://hl7.org/fhir/sid/us-npi","value":"1234567890"}],"name":[{"family":"Evil","prefix":["Dr"]}]},"request":{"method":"PUT","url":"Practitioner/c4a90407-b440-4e82-b06f-b49c804304c2"}},{"fullUrl":"https://madie.cms.gov/MeasureReport/77ac8cd6-7cf6-4a37-aea5-d53086f955da","resource":{"resourceType":"MeasureReport","id":"77ac8cd6-7cf6-4a37-aea5-d53086f955da","meta":{"profile":["http://hl7.org/fhir/us/cqfmeasures/StructureDefinition/test-case-cqfm"]},"contained":[{"resourceType":"Parameters","id":"f9b6c105-b656-42b8-8266-deb7ff1213f1-parameters","parameter":[{"name":"subject","valueString":"d67078ee-41eb-4c8e-a14e-7a433a2e2b87"}]}],"extension":[{"url":"http://hl7.org/fhir/StructureDefinition/cqf-inputParameters","valueReference":{"reference":"#f9b6c105-b656-42b8-8266-deb7ff1213f1-parameters"}},{"url":"http://hl7.org/fhir/us/cqfmeasures/StructureDefinition/cqfm-testCaseDescription","valueMarkdown":"Passes: IP, Fails: DENOM  Pt is 27 years of age,  encounter dx delivery of singleton, gravida=1authored less than 42 weeks prior to delivery, calculated EGA is NULL because last Est Deliv is NULL\n"}],"modifierExtension":[{"url":"http://hl7.org/fhir/us/cqfmeasures/StructureDefinition/cqfm-isTestCase","valueBoolean":true}],"status":"complete","type":"individual","measure":"https://madie.cms.gov/Measure/CMS0334FHIRPCCesareanBirth","period":{"start":"2026-01-01","end":"2026-12-31"},"group":[{"id":"Group_1","population":[{"id":"InitialPopulation_1","code":{"coding":[{"system":"http://terminology.hl7.org/CodeSystem/measure-population","code":"initial-population","display":"Initial Population"}]},"count":1},{"id":"Denominator_1","code":{"coding":[{"system":"http://terminology.hl7.org/CodeSystem/measure-population","code":"denominator","display":"Denominator"}]},"count":0},{"id":"DenominatorExclusion_1","code":{"coding":[{"system":"http://terminology.hl7.org/CodeSystem/measure-population","code":"denominator-exclusion","display":"Denominator Exclusion"}]},"count":0},{"id":"Numerator_1","code":{"coding":[{"system":"http://terminology.hl7.org/CodeSystem/measure-population","code":"numerator","display":"Numerator"}]},"count":0}],"measureScore":{"value":0.0}}],"evaluatedResource":[{"reference":"Patient/d67078ee-41eb-4c8e-a14e-7a433a2e2b87"},{"reference":"Observation/081dd72e-08ed-4b34-a6a8-bef9733ddd92"},{"reference":"Observation/9cba18e9-00ca-4cb5-a7be-9e5c99380c5c"},{"reference":"Observation/b8449fce-5e66-4ee7-9437-0f041a0bfa15"},{"reference":"Encounter/bef15f89-9805-4323-86c2-30a70794a174"},{"reference":"Procedure/8f9f4e8c-21a6-44d5-9e22-8b6d0bc21a0f"},{"reference":"Condition/717aa580-8a59-4216-a3b4-4f09ee7a5e9e"},{"reference":"Coverage/0d8a7156-9496-4070-beee-c059d7a16f10"},{"reference":"Organization/e416c217-7e5b-4d86-98a2-97eace3617ff"},{"reference":"Practitioner/c4a90407-b440-4e82-b06f-b49c804304c2"}]},"request":{"method":"PUT","url":"MeasureReport/77ac8cd6-7cf6-4a37-aea5-d53086f955da"}}]},"request":{"method":"PUT","url":"Bundle/63487c2f0968f801225401a6"}},{"resource":{"resourceType":"Observation","id":"b8449fce-5e66-4ee7-9437-0f041a0bfa15","meta":{"profile":["http://hl7.org/fhir/us/qicore/StructureDefinition/qicore-simple-observation"]},"status":"final","category":[{"coding":[{"system":"http://terminology.hl7.org/CodeSystem/observation-category","code":"exam","display":"exam","userSelected":true}]}],"code":{"coding":[{"system":"http://loinc.org","code":"11996-6"}]},"subject":{"reference":"Patient/d67078ee-41eb-4c8e-a14e-7a433a2e2b87"},"effectiveDateTime":"2026-01-15T07:59:00.000+00:00","performer":[{"reference":"Organization/example1","display":"Hendricks Country Hospital"}],"valueInteger":1},"request":{"method":"PUT","url":"Observation/b8449fce-5e66-4ee7-9437-0f041a0bfa15"}},{"resource":{"resourceType":"Organization","id":"e416c217-7e5b-4d86-98a2-97eace3617ff","meta":{"profile":["http://hl7.org/fhir/us/qicore/StructureDefinition/qicore-organization"]},"identifier":[{"use":"temp","system":"urn:oid:2.16.840.1.113883.4.4","value":"21-3259825"}],"active":true,"type":[{"coding":[{"system":"http://terminology.hl7.org/CodeSystem/organization-type","code":"pay","display":"Payer"}]}],"name":"Blue Cross Blue Shield of Texas","telecom":[{"system":"phone","value":"(+1) 972-766-6900"}],"address":[{"use":"billing","type":"postal","line":["P.O. Box 660044"],"city":"Dallas","state":"TX","postalCode":"75266-0044","country":"USA"}]},"request":{"method":"PUT","url":"Organization/e416c217-7e5b-4d86-98a2-97eace3617ff"}},{"resource":{"resourceType":"Procedure","id":"8f9f4e8c-21a6-44d5-9e22-8b6d0bc21a0f","meta":{"profile":["http://hl7.org/fhir/us/qicore/StructureDefinition/qicore-procedure"]},"extension":[{"url":"http://hl7.org/fhir/us/qicore/StructureDefinition/qicore-recorded","valueDateTime":"2014-04-05T13:35:00.000+00:00"}],"status":"completed","code":{"coding":[{"system":"http://www.cms.gov/Medicare/Coding/ICD10","code":"10D07Z3"}]},"subject":{"reference":"Patient/d67078ee-41eb-4c8e-a14e-7a433a2e2b87"},"performedPeriod":{"start":"2026-01-15T08:10:00.000+00:00","end":"2026-01-15T09:14:00.000+00:00"}},"request":{"method":"PUT","url":"Procedure/8f9f4e8c-21a6-44d5-9e22-8b6d0bc21a0f"}},{"resource":{"resourceType":"Encounter","id":"bef15f89-9805-4323-86c2-30a70794a174","meta":{"profile":["http://hl7.org/fhir/us/qicore/StructureDefinition/qicore-encounter"]},"status":"finished","class":{"system":"http://terminology.hl7.org/CodeSystem/v3-ActCode","code":"IMP","display":"inpatient encounter"},"type":[{"coding":[{"system":"http://snomed.info/sct","code":"183452005"}]}],"subject":{"reference":"Patient/d67078ee-41eb-4c8e-a14e-7a433a2e2b87"},"period":{"start":"2026-01-15T08:00:00.000+00:00","end":"2026-01-20T08:15:00.000+00:00"},"reasonCode":[{"coding":[{"system":"http://snomed.info/sct","code":"169826009","display":"Single live birth from singleton pregnancy (finding)"}]}]},"request":{"method":"PUT","url":"Encounter/bef15f89-9805-4323-86c2-30a70794a174"}},{"resource":{"resourceType":"Observation","id":"9cba18e9-00ca-4cb5-a7be-9e5c99380c5c","meta":{"profile":["http://hl7.org/fhir/us/qicore/StructureDefinition/qicore-simple-observation"]},"status":"final","category":[{"coding":[{"system":"http://terminology.hl7.org/CodeSystem/observation-category","code":"exam","display":"exam","userSelected":true}]}],"code":{"coding":[{"system":"http://loinc.org","code":"11778-8"}]},"subject":{"reference":"Patient/d67078ee-41eb-4c8e-a14e-7a433a2e2b87"},"effectiveDateTime":"2026-01-15T07:00:00.000+00:00","performer":[{"reference":"Organization/example1","display":"Hendricks Country Hospital"}]},"request":{"method":"PUT","url":"Observation/9cba18e9-00ca-4cb5-a7be-9e5c99380c5c"}},{"resource":{"resourceType":"Practitioner","id":"c4a90407-b440-4e82-b06f-b49c804304c2","meta":{"profile":["http://hl7.org/fhir/us/qicore/StructureDefinition/qicore-practitioner"]},"identifier":[{"system":"http://hl7.org/fhir/sid/us-npi","value":"1234567890"}],"name":[{"family":"Evil","prefix":["Dr"]}]},"request":{"method":"PUT","url":"Practitioner/c4a90407-b440-4e82-b06f-b49c804304c2"}},{"resource":{"resourceType":"Observation","id":"081dd72e-08ed-4b34-a6a8-bef9733ddd92","meta":{"profile":["http://hl7.org/fhir/us/qicore/StructureDefinition/qicore-simple-observation"]},"status":"final","category":[{"coding":[{"system":"http://terminology.hl7.org/CodeSystem/observation-category","code":"exam","display":"exam","userSelected":true}]}],"code":{"coding":[{"system":"http://loinc.org","code":"93857-1"}]},"subject":{"reference":"Patient/d67078ee-41eb-4c8e-a14e-7a433a2e2b87"},"effectiveDateTime":"2026-01-15T08:00:00.000+00:00","performer":[{"reference":"Organization/example1","display":"Hendricks Country Hospital"}],"valueDateTime":"2026-01-15T08:00:00.000+00:00"},"request":{"method":"PUT","url":"Observation/081dd72e-08ed-4b34-a6a8-bef9733ddd92"}},{"resource":{"resourceType":"Condition","id":"717aa580-8a59-4216-a3b4-4f09ee7a5e9e","meta":{"profile":["http://hl7.org/fhir/us/qicore/StructureDefinition/qicore-condition"]},"category":[{"coding":[{"system":"http://terminology.hl7.org/CodeSystem/condition-category","code":"encounter-diagnosis","display":"Encounter Diagnosis"}]}],"code":{"coding":[{"system":"http://snomed.info/sct","version":"2022-09","code":"169826009","display":"Single live birth (finding)","userSelected":true}]},"subject":{"reference":"Patient/d67078ee-41eb-4c8e-a14e-7a433a2e2b87"},"recordedDate":"2026-10-21T08:00:00.000+00:00"},"request":{"method":"PUT","url":"Condition/717aa580-8a59-4216-a3b4-4f09ee7a5e9e"}},{"resource":{"resourceType":"MeasureReport","id":"77ac8cd6-7cf6-4a37-aea5-d53086f955da","meta":{"profile":["http://hl7.org/fhir/us/cqfmeasures/StructureDefinition/test-case-cqfm"]},"contained":[{"resourceType":"Parameters","id":"f9b6c105-b656-42b8-8266-deb7ff1213f1-parameters","parameter":[{"name":"subject","valueString":"d67078ee-41eb-4c8e-a14e-7a433a2e2b87"}]}],"extension":[{"url":"http://hl7.org/fhir/StructureDefinition/cqf-inputParameters","valueReference":{"reference":"#f9b6c105-b656-42b8-8266-deb7ff1213f1-parameters"}},{"url":"http://hl7.org/fhir/us/cqfmeasures/StructureDefinition/cqfm-testCaseDescription","valueMarkdown":"Passes: IP, Fails: DENOM  Pt is 27 years of age,  encounter dx delivery of singleton, gravida=1authored less than 42 weeks prior to delivery, calculated EGA is NULL because last Est Deliv is NULL\n"}],"modifierExtension":[{"url":"http://hl7.org/fhir/us/cqfmeasures/StructureDefinition/cqfm-isTestCase","valueBoolean":true}],"status":"complete","type":"individual","measure":"https://madie.cms.gov/Measure/CMS0334FHIRPCCesareanBirth","period":{"start":"2026-01-01","end":"2026-12-31"},"group":[{"id":"Group_1","population":[{"id":"InitialPopulation_1","code":{"coding":[{"system":"http://terminology.hl7.org/CodeSystem/measure-population","code":"initial-population","display":"Initial Population"}]},"count":1},{"id":"Denominator_1","code":{"coding":[{"system":"http://terminology.hl7.org/CodeSystem/measure-population","code":"denominator","display":"Denominator"}]},"count":0},{"id":"DenominatorExclusion_1","code":{"coding":[{"system":"http://terminology.hl7.org/CodeSystem/measure-population","code":"denominator-exclusion","display":"Denominator Exclusion"}]},"count":0},{"id":"Numerator_1","code":{"coding":[{"system":"http://terminology.hl7.org/CodeSystem/measure-population","code":"numerator","display":"Numerator"}]},"count":0}],"measureScore":{"value":0.0}}],"evaluatedResource":[{"reference":"Patient/d67078ee-41eb-4c8e-a14e-7a433a2e2b87"},{"reference":"Observation/081dd72e-08ed-4b34-a6a8-bef9733ddd92"},{"reference":"Observation/9cba18e9-00ca-4cb5-a7be-9e5c99380c5c"},{"reference":"Observation/b8449fce-5e66-4ee7-9437-0f041a0bfa15"},{"reference":"Encounter/bef15f89-9805-4323-86c2-30a70794a174"},{"reference":"Procedure/8f9f4e8c-21a6-44d5-9e22-8b6d0bc21a0f"},{"reference":"Condition/717aa580-8a59-4216-a3b4-4f09ee7a5e9e"},{"reference":"Coverage/0d8a7156-9496-4070-beee-c059d7a16f10"},{"reference":"Organization/e416c217-7e5b-4d86-98a2-97eace3617ff"},{"reference":"Practitioner/c4a90407-b440-4e82-b06f-b49c804304c2"}]},"request":{"method":"PUT","url":"MeasureReport/77ac8cd6-7cf6-4a37-aea5-d53086f955da"}}]}