{"resourceType":"Bundle","id":"tests-dac80bea-c605-43b0-bbf6-49cf74b6001e-bundle","type":"transaction","entry":[{"resource":{"resourceType":"Practitioner","id":"4a57faf0-95f3-4e93-81d6-2c8fc280f1e9","meta":{"profile":["http://hl7.org/fhir/us/qicore/StructureDefinition/qicore-practitioner"]},"identifier":[{"system":"http://hl7.org/fhir/sid/us-npi","value":"1234567890"}],"name":[{"family":"Evil","prefix":["Dr"]}]},"request":{"method":"PUT","url":"Practitioner/4a57faf0-95f3-4e93-81d6-2c8fc280f1e9"}},{"resource":{"resourceType":"Patient","id":"dac80bea-c605-43b0-bbf6-49cf74b6001e","meta":{"profile":["http://hl7.org/fhir/us/qicore/StructureDefinition/qicore-patient"]},"text":{"status":"generated","div":"<div xmlns=\"http://www.w3.org/1999/xhtml\"><div class=\"hapiHeaderText\">AssessG2P0PreTerm1Term1 <b>DENPASS </b></div><table class=\"hapiPropertyTable\"><tbody><tr><td>Identifier</td><td>b00b06f67015bda652373741cca10f65466d828e3a674df9528f73ec417ce0bb</td></tr><tr><td>Date of birth</td><td><span>14 February 1985</span></td></tr></tbody></table></div>"},"extension":[{"url":"http://hl7.org/fhir/us/core/StructureDefinition/us-core-race","extension":[{"url":"ombCategory","valueCoding":{"system":"urn:oid:2.16.840.1.113883.6.238","code":"1002-5","display":"American Indian or Alaska Native","userSelected":true}},{"url":"text","valueString":"American Indian or Alaska Native"}]},{"url":"http://hl7.org/fhir/us/core/StructureDefinition/us-core-ethnicity","extension":[{"url":"ombCategory","valueCoding":{"system":"urn:oid:2.16.840.1.113883.6.238","code":"2135-2","display":"Hispanic or Latino","userSelected":true}},{"url":"text","valueString":"Hispanic or Latino"}]}],"identifier":[{"type":{"coding":[{"system":"http://terminology.hl7.org/CodeSystem/v2-0203","code":"MR"}]},"system":"https://bonnie-fhir.healthit.gov/","value":"63487c300968f801225401b5"}],"active":true,"name":[{"use":"usual","family":"DENPass","given":["AssessG2P0PreTerm1Term1"]}],"gender":"female","birthDate":"1998-02-14"},"request":{"method":"PUT","url":"Patient/dac80bea-c605-43b0-bbf6-49cf74b6001e"}},{"resource":{"resourceType":"MeasureReport","id":"6c86f79c-8de0-424f-9c66-dd638d749d79","meta":{"profile":["http://hl7.org/fhir/us/cqfmeasures/StructureDefinition/test-case-cqfm"]},"contained":[{"resourceType":"Parameters","id":"9609e56f-19ad-4bc9-8574-ab670e00c7e5-parameters","parameter":[{"name":"subject","valueString":"dac80bea-c605-43b0-bbf6-49cf74b6001e"}]}],"extension":[{"url":"http://hl7.org/fhir/StructureDefinition/cqf-inputParameters","valueReference":{"reference":"#9609e56f-19ad-4bc9-8574-ab670e00c7e5-parameters"}},{"url":"http://hl7.org/fhir/us/cqfmeasures/StructureDefinition/cqfm-testCaseDescription","valueMarkdown":"Passes: IP, PassesDENOM,  Pt is 27 years of age,  encounter dx delivery of singleton, G2, P0, PreTerm 1 Term 1 rel date/time less than 42 weeks prior to delivery, EGA @ 38 weeks\n"}],"modifierExtension":[{"url":"http://hl7.org/fhir/us/cqfmeasures/StructureDefinition/cqfm-isTestCase","valueBoolean":true}],"status":"complete","type":"individual","measure":"https://madie.cms.gov/Measure/CMS0334FHIRPCCesareanBirth","period":{"start":"2026-01-01","end":"2026-12-31"},"group":[{"id":"Group_1","population":[{"id":"InitialPopulation_1","code":{"coding":[{"system":"http://terminology.hl7.org/CodeSystem/measure-population","code":"initial-population","display":"Initial Population"}]},"count":1},{"id":"Denominator_1","code":{"coding":[{"system":"http://terminology.hl7.org/CodeSystem/measure-population","code":"denominator","display":"Denominator"}]},"count":1},{"id":"DenominatorExclusion_1","code":{"coding":[{"system":"http://terminology.hl7.org/CodeSystem/measure-population","code":"denominator-exclusion","display":"Denominator Exclusion"}]},"count":0},{"id":"Numerator_1","code":{"coding":[{"system":"http://terminology.hl7.org/CodeSystem/measure-population","code":"numerator","display":"Numerator"}]},"count":0}],"measureScore":{"value":0.0}}],"evaluatedResource":[{"reference":"Patient/dac80bea-c605-43b0-bbf6-49cf74b6001e"},{"reference":"Observation/9c6fba57-ac17-4fe7-bf1c-037842e14502"},{"reference":"Observation/3b3aa0ad-cadf-46ec-a0c9-e95fa9f82f91"},{"reference":"Observation/001ee6e4-f9b3-4e06-aa61-f04332540928"},{"reference":"Observation/6fda40e1-d720-4a2e-b417-b548ad646562"},{"reference":"Observation/a13de1b2-cac3-41cb-bf87-c0d305a3efbf"},{"reference":"Observation/61db3933-0e50-47d5-98d6-e148dd595e98"},{"reference":"Encounter/765516bc-cb4d-4c44-ac6a-5102f4c26515"},{"reference":"Procedure/7ac72e21-78e9-494f-9dc8-35ded9c114bc"},{"reference":"Condition/31a67376-a144-468c-a0dd-00afff4023f1"},{"reference":"Coverage/1f2ee3f6-599f-4d72-a2db-4b0d7223dec1"},{"reference":"Organization/4d18b779-17cf-4b36-87b5-69b2c6edfa59"},{"reference":"Practitioner/4a57faf0-95f3-4e93-81d6-2c8fc280f1e9"}]},"request":{"method":"PUT","url":"MeasureReport/6c86f79c-8de0-424f-9c66-dd638d749d79"}},{"resource":{"resourceType":"Observation","id":"a13de1b2-cac3-41cb-bf87-c0d305a3efbf","meta":{"profile":["http://hl7.org/fhir/us/qicore/StructureDefinition/qicore-simple-observation"]},"status":"final","category":[{"coding":[{"system":"http://terminology.hl7.org/CodeSystem/observation-category","code":"exam","display":"exam","userSelected":true}]}],"code":{"coding":[{"system":"http://loinc.org","code":"11637-6"}]},"subject":{"reference":"Patient/dac80bea-c605-43b0-bbf6-49cf74b6001e"},"effectiveDateTime":"2026-06-08T08:00:00.000+00:00","valueInteger":1},"request":{"method":"PUT","url":"Observation/a13de1b2-cac3-41cb-bf87-c0d305a3efbf"}},{"resource":{"resourceType":"Observation","id":"001ee6e4-f9b3-4e06-aa61-f04332540928","meta":{"profile":["http://hl7.org/fhir/us/qicore/StructureDefinition/qicore-simple-observation"]},"status":"final","category":[{"coding":[{"system":"http://terminology.hl7.org/CodeSystem/observation-category","code":"exam","display":"exam","userSelected":true}]}],"code":{"coding":[{"system":"http://loinc.org","code":"93857-1"}]},"subject":{"reference":"Patient/dac80bea-c605-43b0-bbf6-49cf74b6001e"},"effectiveDateTime":"2026-06-08T20:00:00.000+00:00","valueDateTime":"2026-06-08T20:00:00.000+00:00"},"request":{"method":"PUT","url":"Observation/001ee6e4-f9b3-4e06-aa61-f04332540928"}},{"resource":{"resourceType":"Encounter","id":"765516bc-cb4d-4c44-ac6a-5102f4c26515","meta":{"profile":["http://hl7.org/fhir/us/qicore/StructureDefinition/qicore-encounter"]},"status":"finished","class":{"system":"http://terminology.hl7.org/CodeSystem/v3-ActCode","code":"IMP","display":"inpatient encounter"},"type":[{"coding":[{"system":"http://snomed.info/sct","code":"183452005"}]}],"subject":{"reference":"Patient/dac80bea-c605-43b0-bbf6-49cf74b6001e"},"period":{"start":"2026-06-08T08:00:00.000+00:00","end":"2026-06-10T08:15:00.000+00:00"},"length":{"value":2,"unit":"days"},"reasonReference":[{"reference":"Condition/31a67376-a144-468c-a0dd-00afff4023f1"}]},"request":{"method":"PUT","url":"Encounter/765516bc-cb4d-4c44-ac6a-5102f4c26515"}},{"resource":{"resourceType":"Condition","id":"31a67376-a144-468c-a0dd-00afff4023f1","meta":{"profile":["http://hl7.org/fhir/us/qicore/StructureDefinition/qicore-condition-encounter-diagnosis"]},"category":[{"coding":[{"system":"http://terminology.hl7.org/CodeSystem/condition-category","code":"encounter-diagnosis","display":"Encounter Diagnosis"}]}],"code":{"coding":[{"system":"http://snomed.info/sct","version":"2022-09","code":"169826009","display":"Single live birth from singleton pregnancy (finding)","userSelected":true}]},"subject":{"reference":"Patient/dac80bea-c605-43b0-bbf6-49cf74b6001e"},"encounter":{"reference":"Encounter/765516bc-cb4d-4c44-ac6a-5102f4c26515"},"recordedDate":"2026-10-18T08:00:00.000+00:00"},"request":{"method":"PUT","url":"Condition/31a67376-a144-468c-a0dd-00afff4023f1"}},{"resource":{"resourceType":"Bundle","id":"63487c300968f801225401b5","type":"transaction","entry":[{"fullUrl":"https://madie.cms.gov/Patient/dac80bea-c605-43b0-bbf6-49cf74b6001e","resource":{"resourceType":"Patient","id":"dac80bea-c605-43b0-bbf6-49cf74b6001e","meta":{"profile":["http://hl7.org/fhir/us/qicore/StructureDefinition/qicore-patient"]},"text":{"status":"generated","div":"<div xmlns=\"http://www.w3.org/1999/xhtml\"><div class=\"hapiHeaderText\">AssessG2P0PreTerm1Term1 <b>DENPASS </b></div><table class=\"hapiPropertyTable\"><tbody><tr><td>Identifier</td><td>b00b06f67015bda652373741cca10f65466d828e3a674df9528f73ec417ce0bb</td></tr><tr><td>Date of birth</td><td><span>14 February 1985</span></td></tr></tbody></table></div>"},"extension":[{"url":"http://hl7.org/fhir/us/core/StructureDefinition/us-core-race","extension":[{"url":"ombCategory","valueCoding":{"system":"urn:oid:2.16.840.1.113883.6.238","code":"1002-5","display":"American Indian or Alaska Native","userSelected":true}},{"url":"text","valueString":"American Indian or Alaska Native"}]},{"url":"http://hl7.org/fhir/us/core/StructureDefinition/us-core-ethnicity","extension":[{"url":"ombCategory","valueCoding":{"system":"urn:oid:2.16.840.1.113883.6.238","code":"2135-2","display":"Hispanic or Latino","userSelected":true}},{"url":"text","valueString":"Hispanic or Latino"}]}],"identifier":[{"type":{"coding":[{"system":"http://terminology.hl7.org/CodeSystem/v2-0203","code":"MR"}]},"system":"https://bonnie-fhir.healthit.gov/","value":"63487c300968f801225401b5"}],"active":true,"name":[{"use":"usual","family":"DENPass","given":["AssessG2P0PreTerm1Term1"]}],"gender":"female","birthDate":"1998-02-14"},"request":{"method":"PUT","url":"Patient/dac80bea-c605-43b0-bbf6-49cf74b6001e"}},{"fullUrl":"https://madie.cms.gov/Observation/9c6fba57-ac17-4fe7-bf1c-037842e14502","resource":{"resourceType":"Observation","id":"9c6fba57-ac17-4fe7-bf1c-037842e14502","meta":{"profile":["http://hl7.org/fhir/us/qicore/StructureDefinition/qicore-simple-observation"]},"status":"final","category":[{"coding":[{"system":"http://terminology.hl7.org/CodeSystem/observation-category","code":"exam","display":"exam","userSelected":true}]}],"code":{"coding":[{"system":"http://loinc.org","code":"11996-6"}]},"subject":{"reference":"Patient/dac80bea-c605-43b0-bbf6-49cf74b6001e"},"effectiveDateTime":"2025-10-19T08:10:00.000+00:00","valueInteger":2},"request":{"method":"PUT","url":"Observation/9c6fba57-ac17-4fe7-bf1c-037842e14502"}},{"fullUrl":"https://madie.cms.gov/Observation/3b3aa0ad-cadf-46ec-a0c9-e95fa9f82f91","resource":{"resourceType":"Observation","id":"3b3aa0ad-cadf-46ec-a0c9-e95fa9f82f91","meta":{"profile":["http://hl7.org/fhir/us/qicore/StructureDefinition/qicore-simple-observation"]},"status":"final","category":[{"coding":[{"system":"http://terminology.hl7.org/CodeSystem/observation-category","code":"exam","display":"exam","userSelected":true}]}],"code":{"coding":[{"system":"http://loinc.org","code":"11884-4"}]},"subject":{"reference":"Patient/dac80bea-c605-43b0-bbf6-49cf74b6001e"},"effectiveDateTime":"2026-06-08T09:15:00.000+00:00","valueQuantity":{"value":38,"system":"http://unitsofmeasure.org","code":"wk"}},"request":{"method":"PUT","url":"Observation/3b3aa0ad-cadf-46ec-a0c9-e95fa9f82f91"}},{"fullUrl":"https://madie.cms.gov/Observation/001ee6e4-f9b3-4e06-aa61-f04332540928","resource":{"resourceType":"Observation","id":"001ee6e4-f9b3-4e06-aa61-f04332540928","meta":{"profile":["http://hl7.org/fhir/us/qicore/StructureDefinition/qicore-simple-observation"]},"status":"final","category":[{"coding":[{"system":"http://terminology.hl7.org/CodeSystem/observation-category","code":"exam","display":"exam","userSelected":true}]}],"code":{"coding":[{"system":"http://loinc.org","code":"93857-1"}]},"subject":{"reference":"Patient/dac80bea-c605-43b0-bbf6-49cf74b6001e"},"effectiveDateTime":"2026-06-08T20:00:00.000+00:00","valueDateTime":"2026-06-08T20:00:00.000+00:00"},"request":{"method":"PUT","url":"Observation/001ee6e4-f9b3-4e06-aa61-f04332540928"}},{"fullUrl":"https://madie.cms.gov/Observation/6fda40e1-d720-4a2e-b417-b548ad646562","resource":{"resourceType":"Observation","id":"6fda40e1-d720-4a2e-b417-b548ad646562","meta":{"profile":["http://hl7.org/fhir/us/qicore/StructureDefinition/qicore-simple-observation"]},"status":"final","category":[{"coding":[{"system":"http://terminology.hl7.org/CodeSystem/observation-category","code":"exam","display":"exam","userSelected":true}]}],"code":{"coding":[{"system":"http://loinc.org","code":"11977-6"}]},"subject":{"reference":"Patient/dac80bea-c605-43b0-bbf6-49cf74b6001e"},"effectiveDateTime":"2026-06-08T08:00:00.000+00:00","valueInteger":0},"request":{"method":"PUT","url":"Observation/6fda40e1-d720-4a2e-b417-b548ad646562"}},{"fullUrl":"https://madie.cms.gov/Observation/a13de1b2-cac3-41cb-bf87-c0d305a3efbf","resource":{"resourceType":"Observation","id":"a13de1b2-cac3-41cb-bf87-c0d305a3efbf","meta":{"profile":["http://hl7.org/fhir/us/qicore/StructureDefinition/qicore-simple-observation"]},"status":"final","category":[{"coding":[{"system":"http://terminology.hl7.org/CodeSystem/observation-category","code":"exam","display":"exam","userSelected":true}]}],"code":{"coding":[{"system":"http://loinc.org","code":"11637-6"}]},"subject":{"reference":"Patient/dac80bea-c605-43b0-bbf6-49cf74b6001e"},"effectiveDateTime":"2026-06-08T08:00:00.000+00:00","valueInteger":1},"request":{"method":"PUT","url":"Observation/a13de1b2-cac3-41cb-bf87-c0d305a3efbf"}},{"fullUrl":"https://madie.cms.gov/Observation/61db3933-0e50-47d5-98d6-e148dd595e98","resource":{"resourceType":"Observation","id":"61db3933-0e50-47d5-98d6-e148dd595e98","meta":{"profile":["http://hl7.org/fhir/us/qicore/StructureDefinition/qicore-simple-observation"]},"status":"final","category":[{"coding":[{"system":"http://terminology.hl7.org/CodeSystem/observation-category","code":"exam","display":"exam","userSelected":true}]}],"code":{"coding":[{"system":"http://loinc.org","code":"11639-2"}]},"subject":{"reference":"Patient/dac80bea-c605-43b0-bbf6-49cf74b6001e"},"effectiveDateTime":"2026-06-08T08:00:00.000+00:00","valueInteger":1},"request":{"method":"PUT","url":"Observation/61db3933-0e50-47d5-98d6-e148dd595e98"}},{"fullUrl":"https://madie.cms.gov/Encounter/765516bc-cb4d-4c44-ac6a-5102f4c26515","resource":{"resourceType":"Encounter","id":"765516bc-cb4d-4c44-ac6a-5102f4c26515","meta":{"profile":["http://hl7.org/fhir/us/qicore/StructureDefinition/qicore-encounter"]},"status":"finished","class":{"system":"http://terminology.hl7.org/CodeSystem/v3-ActCode","code":"IMP","display":"inpatient encounter"},"type":[{"coding":[{"system":"http://snomed.info/sct","code":"183452005"}]}],"subject":{"reference":"Patient/dac80bea-c605-43b0-bbf6-49cf74b6001e"},"period":{"start":"2026-06-08T08:00:00.000+00:00","end":"2026-06-10T08:15:00.000+00:00"},"length":{"value":2,"unit":"days"},"reasonReference":[{"reference":"Condition/31a67376-a144-468c-a0dd-00afff4023f1"}]},"request":{"method":"PUT","url":"Encounter/765516bc-cb4d-4c44-ac6a-5102f4c26515"}},{"fullUrl":"https://madie.cms.gov/Procedure/7ac72e21-78e9-494f-9dc8-35ded9c114bc","resource":{"resourceType":"Procedure","id":"7ac72e21-78e9-494f-9dc8-35ded9c114bc","meta":{"profile":["http://hl7.org/fhir/us/qicore/StructureDefinition/qicore-procedure"]},"extension":[{"url":"http://hl7.org/fhir/us/qicore/StructureDefinition/qicore-recorded","valueDateTime":"2014-04-05T13:35:00.000+00:00"}],"status":"completed","code":{"coding":[{"system":"http://www.cms.gov/Medicare/Coding/ICD10","code":"10D07Z3"}]},"subject":{"reference":"Patient/dac80bea-c605-43b0-bbf6-49cf74b6001e"},"performedPeriod":{"start":"2026-06-08T08:10:00.000+00:00","end":"2026-06-08T09:14:00.000+00:00"}},"request":{"method":"PUT","url":"Procedure/7ac72e21-78e9-494f-9dc8-35ded9c114bc"}},{"fullUrl":"https://madie.cms.gov/Condition/31a67376-a144-468c-a0dd-00afff4023f1","resource":{"resourceType":"Condition","id":"31a67376-a144-468c-a0dd-00afff4023f1","meta":{"profile":["http://hl7.org/fhir/us/qicore/StructureDefinition/qicore-condition-encounter-diagnosis"]},"category":[{"coding":[{"system":"http://terminology.hl7.org/CodeSystem/condition-category","code":"encounter-diagnosis","display":"Encounter Diagnosis"}]}],"code":{"coding":[{"system":"http://snomed.info/sct","version":"2022-09","code":"169826009","display":"Single live birth from singleton pregnancy (finding)","userSelected":true}]},"subject":{"reference":"Patient/dac80bea-c605-43b0-bbf6-49cf74b6001e"},"encounter":{"reference":"Encounter/765516bc-cb4d-4c44-ac6a-5102f4c26515"},"recordedDate":"2026-10-18T08:00:00.000+00:00"},"request":{"method":"PUT","url":"Condition/31a67376-a144-468c-a0dd-00afff4023f1"}},{"fullUrl":"https://madie.cms.gov/Coverage/1f2ee3f6-599f-4d72-a2db-4b0d7223dec1","resource":{"resourceType":"Coverage","id":"1f2ee3f6-599f-4d72-a2db-4b0d7223dec1","meta":{"profile":["http://hl7.org/fhir/us/qicore/StructureDefinition/qicore-coverage"]},"status":"active","subscriberId":"523435","beneficiary":{"reference":"Patient/dac80bea-c605-43b0-bbf6-49cf74b6001e"},"relationship":{"coding":[{"system":"http://terminology.hl7.org/CodeSystem/subscriber-relationship","code":"self"}]},"payor":[{"reference":"Organization/4d18b779-17cf-4b36-87b5-69b2c6edfa59"}]},"request":{"method":"PUT","url":"Coverage/1f2ee3f6-599f-4d72-a2db-4b0d7223dec1"}},{"fullUrl":"https://madie.cms.gov/Organization/4d18b779-17cf-4b36-87b5-69b2c6edfa59","resource":{"resourceType":"Organization","id":"4d18b779-17cf-4b36-87b5-69b2c6edfa59","meta":{"profile":["http://hl7.org/fhir/us/qicore/StructureDefinition/qicore-organization"]},"identifier":[{"use":"temp","system":"urn:oid:2.16.840.1.113883.4.4","value":"21-3259825"}],"active":true,"type":[{"coding":[{"system":"http://terminology.hl7.org/CodeSystem/organization-type","code":"pay","display":"Payer"}]}],"name":"Blue Cross Blue Shield of Texas","telecom":[{"system":"phone","value":"(+1) 972-766-6900"}],"address":[{"use":"billing","type":"postal","line":["P.O. Box 660044"],"city":"Dallas","state":"TX","postalCode":"75266-0044","country":"USA"}]},"request":{"method":"PUT","url":"Organization/4d18b779-17cf-4b36-87b5-69b2c6edfa59"}},{"fullUrl":"https://madie.cms.gov/Practitioner/4a57faf0-95f3-4e93-81d6-2c8fc280f1e9","resource":{"resourceType":"Practitioner","id":"4a57faf0-95f3-4e93-81d6-2c8fc280f1e9","meta":{"profile":["http://hl7.org/fhir/us/qicore/StructureDefinition/qicore-practitioner"]},"identifier":[{"system":"http://hl7.org/fhir/sid/us-npi","value":"1234567890"}],"name":[{"family":"Evil","prefix":["Dr"]}]},"request":{"method":"PUT","url":"Practitioner/4a57faf0-95f3-4e93-81d6-2c8fc280f1e9"}},{"fullUrl":"https://madie.cms.gov/MeasureReport/6c86f79c-8de0-424f-9c66-dd638d749d79","resource":{"resourceType":"MeasureReport","id":"6c86f79c-8de0-424f-9c66-dd638d749d79","meta":{"profile":["http://hl7.org/fhir/us/cqfmeasures/StructureDefinition/test-case-cqfm"]},"contained":[{"resourceType":"Parameters","id":"9609e56f-19ad-4bc9-8574-ab670e00c7e5-parameters","parameter":[{"name":"subject","valueString":"dac80bea-c605-43b0-bbf6-49cf74b6001e"}]}],"extension":[{"url":"http://hl7.org/fhir/StructureDefinition/cqf-inputParameters","valueReference":{"reference":"#9609e56f-19ad-4bc9-8574-ab670e00c7e5-parameters"}},{"url":"http://hl7.org/fhir/us/cqfmeasures/StructureDefinition/cqfm-testCaseDescription","valueMarkdown":"Passes: IP, PassesDENOM,  Pt is 27 years of age,  encounter dx delivery of singleton, G2, P0, PreTerm 1 Term 1 rel date/time less than 42 weeks prior to delivery, EGA @ 38 weeks\n"}],"modifierExtension":[{"url":"http://hl7.org/fhir/us/cqfmeasures/StructureDefinition/cqfm-isTestCase","valueBoolean":true}],"status":"complete","type":"individual","measure":"https://madie.cms.gov/Measure/CMS0334FHIRPCCesareanBirth","period":{"start":"2026-01-01","end":"2026-12-31"},"group":[{"id":"Group_1","population":[{"id":"InitialPopulation_1","code":{"coding":[{"system":"http://terminology.hl7.org/CodeSystem/measure-population","code":"initial-population","display":"Initial Population"}]},"count":1},{"id":"Denominator_1","code":{"coding":[{"system":"http://terminology.hl7.org/CodeSystem/measure-population","code":"denominator","display":"Denominator"}]},"count":1},{"id":"DenominatorExclusion_1","code":{"coding":[{"system":"http://terminology.hl7.org/CodeSystem/measure-population","code":"denominator-exclusion","display":"Denominator Exclusion"}]},"count":0},{"id":"Numerator_1","code":{"coding":[{"system":"http://terminology.hl7.org/CodeSystem/measure-population","code":"numerator","display":"Numerator"}]},"count":0}],"measureScore":{"value":0.0}}],"evaluatedResource":[{"reference":"Patient/dac80bea-c605-43b0-bbf6-49cf74b6001e"},{"reference":"Observation/9c6fba57-ac17-4fe7-bf1c-037842e14502"},{"reference":"Observation/3b3aa0ad-cadf-46ec-a0c9-e95fa9f82f91"},{"reference":"Observation/001ee6e4-f9b3-4e06-aa61-f04332540928"},{"reference":"Observation/6fda40e1-d720-4a2e-b417-b548ad646562"},{"reference":"Observation/a13de1b2-cac3-41cb-bf87-c0d305a3efbf"},{"reference":"Observation/61db3933-0e50-47d5-98d6-e148dd595e98"},{"reference":"Encounter/765516bc-cb4d-4c44-ac6a-5102f4c26515"},{"reference":"Procedure/7ac72e21-78e9-494f-9dc8-35ded9c114bc"},{"reference":"Condition/31a67376-a144-468c-a0dd-00afff4023f1"},{"reference":"Coverage/1f2ee3f6-599f-4d72-a2db-4b0d7223dec1"},{"reference":"Organization/4d18b779-17cf-4b36-87b5-69b2c6edfa59"},{"reference":"Practitioner/4a57faf0-95f3-4e93-81d6-2c8fc280f1e9"}]},"request":{"method":"PUT","url":"MeasureReport/6c86f79c-8de0-424f-9c66-dd638d749d79"}}]},"request":{"method":"PUT","url":"Bundle/63487c300968f801225401b5"}},{"resource":{"resourceType":"Observation","id":"6fda40e1-d720-4a2e-b417-b548ad646562","meta":{"profile":["http://hl7.org/fhir/us/qicore/StructureDefinition/qicore-simple-observation"]},"status":"final","category":[{"coding":[{"system":"http://terminology.hl7.org/CodeSystem/observation-category","code":"exam","display":"exam","userSelected":true}]}],"code":{"coding":[{"system":"http://loinc.org","code":"11977-6"}]},"subject":{"reference":"Patient/dac80bea-c605-43b0-bbf6-49cf74b6001e"},"effectiveDateTime":"2026-06-08T08:00:00.000+00:00","valueInteger":0},"request":{"method":"PUT","url":"Observation/6fda40e1-d720-4a2e-b417-b548ad646562"}},{"resource":{"resourceType":"Observation","id":"3b3aa0ad-cadf-46ec-a0c9-e95fa9f82f91","meta":{"profile":["http://hl7.org/fhir/us/qicore/StructureDefinition/qicore-simple-observation"]},"status":"final","category":[{"coding":[{"system":"http://terminology.hl7.org/CodeSystem/observation-category","code":"exam","display":"exam","userSelected":true}]}],"code":{"coding":[{"system":"http://loinc.org","code":"11884-4"}]},"subject":{"reference":"Patient/dac80bea-c605-43b0-bbf6-49cf74b6001e"},"effectiveDateTime":"2026-06-08T09:15:00.000+00:00","valueQuantity":{"value":38,"system":"http://unitsofmeasure.org","code":"wk"}},"request":{"method":"PUT","url":"Observation/3b3aa0ad-cadf-46ec-a0c9-e95fa9f82f91"}},{"resource":{"resourceType":"Observation","id":"61db3933-0e50-47d5-98d6-e148dd595e98","meta":{"profile":["http://hl7.org/fhir/us/qicore/StructureDefinition/qicore-simple-observation"]},"status":"final","category":[{"coding":[{"system":"http://terminology.hl7.org/CodeSystem/observation-category","code":"exam","display":"exam","userSelected":true}]}],"code":{"coding":[{"system":"http://loinc.org","code":"11639-2"}]},"subject":{"reference":"Patient/dac80bea-c605-43b0-bbf6-49cf74b6001e"},"effectiveDateTime":"2026-06-08T08:00:00.000+00:00","valueInteger":1},"request":{"method":"PUT","url":"Observation/61db3933-0e50-47d5-98d6-e148dd595e98"}},{"resource":{"resourceType":"Observation","id":"9c6fba57-ac17-4fe7-bf1c-037842e14502","meta":{"profile":["http://hl7.org/fhir/us/qicore/StructureDefinition/qicore-simple-observation"]},"status":"final","category":[{"coding":[{"system":"http://terminology.hl7.org/CodeSystem/observation-category","code":"exam","display":"exam","userSelected":true}]}],"code":{"coding":[{"system":"http://loinc.org","code":"11996-6"}]},"subject":{"reference":"Patient/dac80bea-c605-43b0-bbf6-49cf74b6001e"},"effectiveDateTime":"2025-10-19T08:10:00.000+00:00","valueInteger":2},"request":{"method":"PUT","url":"Observation/9c6fba57-ac17-4fe7-bf1c-037842e14502"}},{"resource":{"resourceType":"Organization","id":"4d18b779-17cf-4b36-87b5-69b2c6edfa59","meta":{"profile":["http://hl7.org/fhir/us/qicore/StructureDefinition/qicore-organization"]},"identifier":[{"use":"temp","system":"urn:oid:2.16.840.1.113883.4.4","value":"21-3259825"}],"active":true,"type":[{"coding":[{"system":"http://terminology.hl7.org/CodeSystem/organization-type","code":"pay","display":"Payer"}]}],"name":"Blue Cross Blue Shield of Texas","telecom":[{"system":"phone","value":"(+1) 972-766-6900"}],"address":[{"use":"billing","type":"postal","line":["P.O. Box 660044"],"city":"Dallas","state":"TX","postalCode":"75266-0044","country":"USA"}]},"request":{"method":"PUT","url":"Organization/4d18b779-17cf-4b36-87b5-69b2c6edfa59"}},{"resource":{"resourceType":"Coverage","id":"1f2ee3f6-599f-4d72-a2db-4b0d7223dec1","meta":{"profile":["http://hl7.org/fhir/us/qicore/StructureDefinition/qicore-coverage"]},"status":"active","subscriberId":"523435","beneficiary":{"reference":"Patient/dac80bea-c605-43b0-bbf6-49cf74b6001e"},"relationship":{"coding":[{"system":"http://terminology.hl7.org/CodeSystem/subscriber-relationship","code":"self"}]},"payor":[{"reference":"Organization/4d18b779-17cf-4b36-87b5-69b2c6edfa59"}]},"request":{"method":"PUT","url":"Coverage/1f2ee3f6-599f-4d72-a2db-4b0d7223dec1"}},{"resource":{"resourceType":"Procedure","id":"7ac72e21-78e9-494f-9dc8-35ded9c114bc","meta":{"profile":["http://hl7.org/fhir/us/qicore/StructureDefinition/qicore-procedure"]},"extension":[{"url":"http://hl7.org/fhir/us/qicore/StructureDefinition/qicore-recorded","valueDateTime":"2014-04-05T13:35:00.000+00:00"}],"status":"completed","code":{"coding":[{"system":"http://www.cms.gov/Medicare/Coding/ICD10","code":"10D07Z3"}]},"subject":{"reference":"Patient/dac80bea-c605-43b0-bbf6-49cf74b6001e"},"performedPeriod":{"start":"2026-06-08T08:10:00.000+00:00","end":"2026-06-08T09:14:00.000+00:00"}},"request":{"method":"PUT","url":"Procedure/7ac72e21-78e9-494f-9dc8-35ded9c114bc"}}]}