{"resourceType":"Bundle","id":"tests-337997e0-68a7-47e2-a9b8-f9846bf23baf-bundle","type":"transaction","entry":[{"resource":{"resourceType":"Observation","id":"f5a06ceb-75c9-44d1-931b-452c43e2bd5d","meta":{"profile":["http://hl7.org/fhir/us/qicore/StructureDefinition/qicore-simple-observation"]},"status":"final","category":[{"coding":[{"system":"http://terminology.hl7.org/CodeSystem/observation-category","code":"exam","display":"exam","userSelected":true}]}],"code":{"coding":[{"system":"http://loinc.org","code":"11996-6"}]},"subject":{"reference":"Patient/337997e0-68a7-47e2-a9b8-f9846bf23baf"},"effectiveDateTime":"2026-06-08T07:59:00.000+00:00","valueInteger":1},"request":{"method":"PUT","url":"Observation/f5a06ceb-75c9-44d1-931b-452c43e2bd5d"}},{"resource":{"resourceType":"Observation","id":"2cd8fc24-7b88-4c2d-9696-2dd74acb948a","meta":{"profile":["http://hl7.org/fhir/us/qicore/StructureDefinition/qicore-simple-observation"]},"status":"final","category":[{"coding":[{"system":"http://terminology.hl7.org/CodeSystem/observation-category","code":"exam","display":"exam","userSelected":true}]}],"code":{"coding":[{"system":"http://loinc.org","code":"11884-4"}]},"subject":{"reference":"Patient/337997e0-68a7-47e2-a9b8-f9846bf23baf"},"effectiveDateTime":"2026-06-08T07:15:00.000+00:00","valueQuantity":{"value":38,"system":"http://unitsofmeasure.org","code":"wk"}},"request":{"method":"PUT","url":"Observation/2cd8fc24-7b88-4c2d-9696-2dd74acb948a"}},{"resource":{"resourceType":"Bundle","id":"63487c2f0968f801225401aa","type":"transaction","entry":[{"fullUrl":"https://madie.cms.gov/Patient/337997e0-68a7-47e2-a9b8-f9846bf23baf","resource":{"resourceType":"Patient","id":"337997e0-68a7-47e2-a9b8-f9846bf23baf","meta":{"profile":["http://hl7.org/fhir/us/qicore/StructureDefinition/qicore-patient"]},"text":{"status":"generated","div":"<div xmlns=\"http://www.w3.org/1999/xhtml\"><div class=\"hapiHeaderText\">AssessTimeOfDeliveryResultIsBad<b>DENOMFail</b></div><table class=\"hapiPropertyTable\"><tbody><tr><td>Identifier</td><td>2b1f0141ffe85efd85bb0ba18ddf833ac147ccc7ffd86f1de2a9b7f23de6478b</td></tr><tr><td>Date of birth</td><td><span>14 February 1985</span></td></tr></tbody></table></div>"},"extension":[{"url":"http://hl7.org/fhir/us/core/StructureDefinition/us-core-race","extension":[{"url":"ombCategory","valueCoding":{"system":"urn:oid:2.16.840.1.113883.6.238","code":"1002-5","display":"American Indian or Alaska Native","userSelected":true}},{"url":"text","valueString":"American Indian or Alaska Native"}]},{"url":"http://hl7.org/fhir/us/core/StructureDefinition/us-core-ethnicity","extension":[{"url":"ombCategory","valueCoding":{"system":"urn:oid:2.16.840.1.113883.6.238","code":"2135-2","display":"Hispanic or Latino","userSelected":true}},{"url":"text","valueString":"Hispanic or Latino"}]}],"identifier":[{"type":{"coding":[{"system":"http://terminology.hl7.org/CodeSystem/v2-0203","code":"MR"}]},"system":"https://bonnie-fhir.healthit.gov/","value":"63487c2f0968f801225401aa"}],"active":true,"name":[{"use":"usual","family":"DENOMFail","given":["AssessTimeOfDeliveryResultIsBad"]}],"gender":"female","birthDate":"1998-02-14"},"request":{"method":"PUT","url":"Patient/337997e0-68a7-47e2-a9b8-f9846bf23baf"}},{"fullUrl":"https://madie.cms.gov/Observation/2cd8fc24-7b88-4c2d-9696-2dd74acb948a","resource":{"resourceType":"Observation","id":"2cd8fc24-7b88-4c2d-9696-2dd74acb948a","meta":{"profile":["http://hl7.org/fhir/us/qicore/StructureDefinition/qicore-simple-observation"]},"status":"final","category":[{"coding":[{"system":"http://terminology.hl7.org/CodeSystem/observation-category","code":"exam","display":"exam","userSelected":true}]}],"code":{"coding":[{"system":"http://loinc.org","code":"11884-4"}]},"subject":{"reference":"Patient/337997e0-68a7-47e2-a9b8-f9846bf23baf"},"effectiveDateTime":"2026-06-08T07:15:00.000+00:00","valueQuantity":{"value":38,"system":"http://unitsofmeasure.org","code":"wk"}},"request":{"method":"PUT","url":"Observation/2cd8fc24-7b88-4c2d-9696-2dd74acb948a"}},{"fullUrl":"https://madie.cms.gov/Observation/f5a06ceb-75c9-44d1-931b-452c43e2bd5d","resource":{"resourceType":"Observation","id":"f5a06ceb-75c9-44d1-931b-452c43e2bd5d","meta":{"profile":["http://hl7.org/fhir/us/qicore/StructureDefinition/qicore-simple-observation"]},"status":"final","category":[{"coding":[{"system":"http://terminology.hl7.org/CodeSystem/observation-category","code":"exam","display":"exam","userSelected":true}]}],"code":{"coding":[{"system":"http://loinc.org","code":"11996-6"}]},"subject":{"reference":"Patient/337997e0-68a7-47e2-a9b8-f9846bf23baf"},"effectiveDateTime":"2026-06-08T07:59:00.000+00:00","valueInteger":1},"request":{"method":"PUT","url":"Observation/f5a06ceb-75c9-44d1-931b-452c43e2bd5d"}},{"fullUrl":"https://madie.cms.gov/Observation/ce03c1ed-2826-4f42-89a8-eea5d7b095d2","resource":{"resourceType":"Observation","id":"ce03c1ed-2826-4f42-89a8-eea5d7b095d2","meta":{"profile":["http://hl7.org/fhir/us/qicore/StructureDefinition/qicore-simple-observation"]},"status":"final","category":[{"coding":[{"system":"http://terminology.hl7.org/CodeSystem/observation-category","code":"exam","display":"exam","userSelected":true}]}],"code":{"coding":[{"system":"http://loinc.org","code":"93857-1"}]},"subject":{"reference":"Patient/337997e0-68a7-47e2-a9b8-f9846bf23baf"},"effectiveDateTime":"2026-06-08T08:00:00.000+00:00","valueDateTime":"1901-04-13T08:00:00.000+00:00"},"request":{"method":"PUT","url":"Observation/ce03c1ed-2826-4f42-89a8-eea5d7b095d2"}},{"fullUrl":"https://madie.cms.gov/Encounter/05a07ee8-15be-45e9-8884-a5fba7b69c7c","resource":{"resourceType":"Encounter","id":"05a07ee8-15be-45e9-8884-a5fba7b69c7c","meta":{"profile":["http://hl7.org/fhir/us/qicore/StructureDefinition/qicore-encounter"]},"status":"finished","class":{"system":"http://terminology.hl7.org/CodeSystem/v3-ActCode","code":"IMP","display":"inpatient encounter"},"type":[{"coding":[{"system":"http://snomed.info/sct","code":"183452005"}]}],"subject":{"reference":"Patient/337997e0-68a7-47e2-a9b8-f9846bf23baf"},"period":{"start":"2026-06-08T08:00:00.000+00:00","end":"2026-06-10T08:15:00.000+00:00"},"length":{"value":2,"unit":"days"},"reasonReference":[{"reference":"Condition/dcef10cb-29e2-4125-923f-8ad8422668bd"}]},"request":{"method":"PUT","url":"Encounter/05a07ee8-15be-45e9-8884-a5fba7b69c7c"}},{"fullUrl":"https://madie.cms.gov/Procedure/a5811382-3ac4-48eb-9174-030c03d9500a","resource":{"resourceType":"Procedure","id":"a5811382-3ac4-48eb-9174-030c03d9500a","meta":{"profile":["http://hl7.org/fhir/us/qicore/StructureDefinition/qicore-procedure"]},"extension":[{"url":"http://hl7.org/fhir/us/qicore/StructureDefinition/qicore-recorded","valueDateTime":"2014-04-05T13:35:00.000+00:00"}],"status":"completed","code":{"coding":[{"system":"http://www.cms.gov/Medicare/Coding/ICD10","code":"10D00Z0"}]},"subject":{"reference":"Patient/337997e0-68a7-47e2-a9b8-f9846bf23baf"},"performedPeriod":{"start":"2026-06-08T08:00:00.000+00:00","end":"2026-06-08T09:15:00.000+00:00"}},"request":{"method":"PUT","url":"Procedure/a5811382-3ac4-48eb-9174-030c03d9500a"}},{"fullUrl":"https://madie.cms.gov/Condition/dcef10cb-29e2-4125-923f-8ad8422668bd","resource":{"resourceType":"Condition","id":"dcef10cb-29e2-4125-923f-8ad8422668bd","meta":{"profile":["http://hl7.org/fhir/us/qicore/StructureDefinition/qicore-condition-encounter-diagnosis"]},"category":[{"coding":[{"system":"http://terminology.hl7.org/CodeSystem/condition-category","code":"encounter-diagnosis","display":"Encounter Diagnosis"}]}],"code":{"coding":[{"system":"http://snomed.info/sct","version":"2022-09","code":"169826009","display":"Single live birth from singleton pregnancy (finding)","userSelected":true}]},"subject":{"reference":"Patient/337997e0-68a7-47e2-a9b8-f9846bf23baf"},"encounter":{"reference":"Encounter/05a07ee8-15be-45e9-8884-a5fba7b69c7c"},"recordedDate":"2026-10-21T08:00:00.000+00:00"},"request":{"method":"PUT","url":"Condition/dcef10cb-29e2-4125-923f-8ad8422668bd"}},{"fullUrl":"https://madie.cms.gov/Coverage/39e3705c-e3aa-4e3d-be1b-fd1f2048b8f2","resource":{"resourceType":"Coverage","id":"39e3705c-e3aa-4e3d-be1b-fd1f2048b8f2","meta":{"profile":["http://hl7.org/fhir/us/qicore/StructureDefinition/qicore-coverage"]},"status":"active","subscriberId":"523435","beneficiary":{"reference":"Patient/337997e0-68a7-47e2-a9b8-f9846bf23baf"},"relationship":{"coding":[{"system":"http://terminology.hl7.org/CodeSystem/subscriber-relationship","code":"self"}]},"payor":[{"reference":"Organization/d004c158-0bf7-42c5-8a17-66f55b8b59c7"}]},"request":{"method":"PUT","url":"Coverage/39e3705c-e3aa-4e3d-be1b-fd1f2048b8f2"}},{"fullUrl":"https://madie.cms.gov/Organization/d004c158-0bf7-42c5-8a17-66f55b8b59c7","resource":{"resourceType":"Organization","id":"d004c158-0bf7-42c5-8a17-66f55b8b59c7","meta":{"profile":["http://hl7.org/fhir/us/qicore/StructureDefinition/qicore-organization"]},"identifier":[{"use":"temp","system":"urn:oid:2.16.840.1.113883.4.4","value":"21-3259825"}],"active":true,"type":[{"coding":[{"system":"http://terminology.hl7.org/CodeSystem/organization-type","code":"pay","display":"Payer"}]}],"name":"Blue Cross Blue Shield of Texas","telecom":[{"system":"phone","value":"(+1) 972-766-6900"}],"address":[{"use":"billing","type":"postal","line":["P.O. Box 660044"],"city":"Dallas","state":"TX","postalCode":"75266-0044","country":"USA"}]},"request":{"method":"PUT","url":"Organization/d004c158-0bf7-42c5-8a17-66f55b8b59c7"}},{"fullUrl":"https://madie.cms.gov/Practitioner/efa14df7-0ab5-4660-b140-a26372eab8af","resource":{"resourceType":"Practitioner","id":"efa14df7-0ab5-4660-b140-a26372eab8af","meta":{"profile":["http://hl7.org/fhir/us/qicore/StructureDefinition/qicore-practitioner"]},"identifier":[{"system":"http://hl7.org/fhir/sid/us-npi","value":"1234567890"}],"name":[{"family":"Evil","prefix":["Dr"]}]},"request":{"method":"PUT","url":"Practitioner/efa14df7-0ab5-4660-b140-a26372eab8af"}},{"fullUrl":"https://madie.cms.gov/MeasureReport/6fe1df85-6b55-46e6-85bf-ef77ac0ddaa4","resource":{"resourceType":"MeasureReport","id":"6fe1df85-6b55-46e6-85bf-ef77ac0ddaa4","meta":{"profile":["http://hl7.org/fhir/us/cqfmeasures/StructureDefinition/test-case-cqfm"]},"contained":[{"resourceType":"Parameters","id":"8dc14800-cbc7-4d60-88ee-423e504d3052-parameters","parameter":[{"name":"subject","valueString":"337997e0-68a7-47e2-a9b8-f9846bf23baf"}]}],"extension":[{"url":"http://hl7.org/fhir/StructureDefinition/cqf-inputParameters","valueReference":{"reference":"#8dc14800-cbc7-4d60-88ee-423e504d3052-parameters"}},{"url":"http://hl7.org/fhir/us/cqfmeasures/StructureDefinition/cqfm-testCaseDescription","valueMarkdown":"Passes: IP, Fails DENOM Pt is 27 years of age,  encounter dx of delivery of singleton, gravida, EGA( >37 ) and @ 38 weeks, AsseDelivTm Result has date out of range, lower than 1900\n"}],"modifierExtension":[{"url":"http://hl7.org/fhir/us/cqfmeasures/StructureDefinition/cqfm-isTestCase","valueBoolean":true}],"status":"complete","type":"individual","measure":"https://madie.cms.gov/Measure/CMS0334FHIRPCCesareanBirth","period":{"start":"2026-01-01","end":"2026-12-31"},"group":[{"id":"Group_1","population":[{"id":"InitialPopulation_1","code":{"coding":[{"system":"http://terminology.hl7.org/CodeSystem/measure-population","code":"initial-population","display":"Initial Population"}]},"count":1},{"id":"Denominator_1","code":{"coding":[{"system":"http://terminology.hl7.org/CodeSystem/measure-population","code":"denominator","display":"Denominator"}]},"count":0},{"id":"DenominatorExclusion_1","code":{"coding":[{"system":"http://terminology.hl7.org/CodeSystem/measure-population","code":"denominator-exclusion","display":"Denominator Exclusion"}]},"count":0},{"id":"Numerator_1","code":{"coding":[{"system":"http://terminology.hl7.org/CodeSystem/measure-population","code":"numerator","display":"Numerator"}]},"count":0}],"measureScore":{"value":0.0}}],"evaluatedResource":[{"reference":"Patient/337997e0-68a7-47e2-a9b8-f9846bf23baf"},{"reference":"Observation/2cd8fc24-7b88-4c2d-9696-2dd74acb948a"},{"reference":"Observation/f5a06ceb-75c9-44d1-931b-452c43e2bd5d"},{"reference":"Observation/ce03c1ed-2826-4f42-89a8-eea5d7b095d2"},{"reference":"Encounter/05a07ee8-15be-45e9-8884-a5fba7b69c7c"},{"reference":"Procedure/a5811382-3ac4-48eb-9174-030c03d9500a"},{"reference":"Condition/dcef10cb-29e2-4125-923f-8ad8422668bd"},{"reference":"Coverage/39e3705c-e3aa-4e3d-be1b-fd1f2048b8f2"},{"reference":"Organization/d004c158-0bf7-42c5-8a17-66f55b8b59c7"},{"reference":"Practitioner/efa14df7-0ab5-4660-b140-a26372eab8af"}]},"request":{"method":"PUT","url":"MeasureReport/6fe1df85-6b55-46e6-85bf-ef77ac0ddaa4"}}]},"request":{"method":"PUT","url":"Bundle/63487c2f0968f801225401aa"}},{"resource":{"resourceType":"Encounter","id":"05a07ee8-15be-45e9-8884-a5fba7b69c7c","meta":{"profile":["http://hl7.org/fhir/us/qicore/StructureDefinition/qicore-encounter"]},"status":"finished","class":{"system":"http://terminology.hl7.org/CodeSystem/v3-ActCode","code":"IMP","display":"inpatient encounter"},"type":[{"coding":[{"system":"http://snomed.info/sct","code":"183452005"}]}],"subject":{"reference":"Patient/337997e0-68a7-47e2-a9b8-f9846bf23baf"},"period":{"start":"2026-06-08T08:00:00.000+00:00","end":"2026-06-10T08:15:00.000+00:00"},"length":{"value":2,"unit":"days"},"reasonReference":[{"reference":"Condition/dcef10cb-29e2-4125-923f-8ad8422668bd"}]},"request":{"method":"PUT","url":"Encounter/05a07ee8-15be-45e9-8884-a5fba7b69c7c"}},{"resource":{"resourceType":"Condition","id":"dcef10cb-29e2-4125-923f-8ad8422668bd","meta":{"profile":["http://hl7.org/fhir/us/qicore/StructureDefinition/qicore-condition-encounter-diagnosis"]},"category":[{"coding":[{"system":"http://terminology.hl7.org/CodeSystem/condition-category","code":"encounter-diagnosis","display":"Encounter Diagnosis"}]}],"code":{"coding":[{"system":"http://snomed.info/sct","version":"2022-09","code":"169826009","display":"Single live birth from singleton pregnancy (finding)","userSelected":true}]},"subject":{"reference":"Patient/337997e0-68a7-47e2-a9b8-f9846bf23baf"},"encounter":{"reference":"Encounter/05a07ee8-15be-45e9-8884-a5fba7b69c7c"},"recordedDate":"2026-10-21T08:00:00.000+00:00"},"request":{"method":"PUT","url":"Condition/dcef10cb-29e2-4125-923f-8ad8422668bd"}},{"resource":{"resourceType":"Observation","id":"ce03c1ed-2826-4f42-89a8-eea5d7b095d2","meta":{"profile":["http://hl7.org/fhir/us/qicore/StructureDefinition/qicore-simple-observation"]},"status":"final","category":[{"coding":[{"system":"http://terminology.hl7.org/CodeSystem/observation-category","code":"exam","display":"exam","userSelected":true}]}],"code":{"coding":[{"system":"http://loinc.org","code":"93857-1"}]},"subject":{"reference":"Patient/337997e0-68a7-47e2-a9b8-f9846bf23baf"},"effectiveDateTime":"2026-06-08T08:00:00.000+00:00","valueDateTime":"1901-04-13T08:00:00.000+00:00"},"request":{"method":"PUT","url":"Observation/ce03c1ed-2826-4f42-89a8-eea5d7b095d2"}},{"resource":{"resourceType":"Patient","id":"337997e0-68a7-47e2-a9b8-f9846bf23baf","meta":{"profile":["http://hl7.org/fhir/us/qicore/StructureDefinition/qicore-patient"]},"text":{"status":"generated","div":"<div xmlns=\"http://www.w3.org/1999/xhtml\"><div class=\"hapiHeaderText\">AssessTimeOfDeliveryResultIsBad<b>DENOMFail</b></div><table class=\"hapiPropertyTable\"><tbody><tr><td>Identifier</td><td>2b1f0141ffe85efd85bb0ba18ddf833ac147ccc7ffd86f1de2a9b7f23de6478b</td></tr><tr><td>Date of birth</td><td><span>14 February 1985</span></td></tr></tbody></table></div>"},"extension":[{"url":"http://hl7.org/fhir/us/core/StructureDefinition/us-core-race","extension":[{"url":"ombCategory","valueCoding":{"system":"urn:oid:2.16.840.1.113883.6.238","code":"1002-5","display":"American Indian or Alaska Native","userSelected":true}},{"url":"text","valueString":"American Indian or Alaska Native"}]},{"url":"http://hl7.org/fhir/us/core/StructureDefinition/us-core-ethnicity","extension":[{"url":"ombCategory","valueCoding":{"system":"urn:oid:2.16.840.1.113883.6.238","code":"2135-2","display":"Hispanic or Latino","userSelected":true}},{"url":"text","valueString":"Hispanic or Latino"}]}],"identifier":[{"type":{"coding":[{"system":"http://terminology.hl7.org/CodeSystem/v2-0203","code":"MR"}]},"system":"https://bonnie-fhir.healthit.gov/","value":"63487c2f0968f801225401aa"}],"active":true,"name":[{"use":"usual","family":"DENOMFail","given":["AssessTimeOfDeliveryResultIsBad"]}],"gender":"female","birthDate":"1998-02-14"},"request":{"method":"PUT","url":"Patient/337997e0-68a7-47e2-a9b8-f9846bf23baf"}},{"resource":{"resourceType":"Coverage","id":"39e3705c-e3aa-4e3d-be1b-fd1f2048b8f2","meta":{"profile":["http://hl7.org/fhir/us/qicore/StructureDefinition/qicore-coverage"]},"status":"active","subscriberId":"523435","beneficiary":{"reference":"Patient/337997e0-68a7-47e2-a9b8-f9846bf23baf"},"relationship":{"coding":[{"system":"http://terminology.hl7.org/CodeSystem/subscriber-relationship","code":"self"}]},"payor":[{"reference":"Organization/d004c158-0bf7-42c5-8a17-66f55b8b59c7"}]},"request":{"method":"PUT","url":"Coverage/39e3705c-e3aa-4e3d-be1b-fd1f2048b8f2"}},{"resource":{"resourceType":"Organization","id":"d004c158-0bf7-42c5-8a17-66f55b8b59c7","meta":{"profile":["http://hl7.org/fhir/us/qicore/StructureDefinition/qicore-organization"]},"identifier":[{"use":"temp","system":"urn:oid:2.16.840.1.113883.4.4","value":"21-3259825"}],"active":true,"type":[{"coding":[{"system":"http://terminology.hl7.org/CodeSystem/organization-type","code":"pay","display":"Payer"}]}],"name":"Blue Cross Blue Shield of Texas","telecom":[{"system":"phone","value":"(+1) 972-766-6900"}],"address":[{"use":"billing","type":"postal","line":["P.O. Box 660044"],"city":"Dallas","state":"TX","postalCode":"75266-0044","country":"USA"}]},"request":{"method":"PUT","url":"Organization/d004c158-0bf7-42c5-8a17-66f55b8b59c7"}},{"resource":{"resourceType":"Practitioner","id":"efa14df7-0ab5-4660-b140-a26372eab8af","meta":{"profile":["http://hl7.org/fhir/us/qicore/StructureDefinition/qicore-practitioner"]},"identifier":[{"system":"http://hl7.org/fhir/sid/us-npi","value":"1234567890"}],"name":[{"family":"Evil","prefix":["Dr"]}]},"request":{"method":"PUT","url":"Practitioner/efa14df7-0ab5-4660-b140-a26372eab8af"}},{"resource":{"resourceType":"Procedure","id":"a5811382-3ac4-48eb-9174-030c03d9500a","meta":{"profile":["http://hl7.org/fhir/us/qicore/StructureDefinition/qicore-procedure"]},"extension":[{"url":"http://hl7.org/fhir/us/qicore/StructureDefinition/qicore-recorded","valueDateTime":"2014-04-05T13:35:00.000+00:00"}],"status":"completed","code":{"coding":[{"system":"http://www.cms.gov/Medicare/Coding/ICD10","code":"10D00Z0"}]},"subject":{"reference":"Patient/337997e0-68a7-47e2-a9b8-f9846bf23baf"},"performedPeriod":{"start":"2026-06-08T08:00:00.000+00:00","end":"2026-06-08T09:15:00.000+00:00"}},"request":{"method":"PUT","url":"Procedure/a5811382-3ac4-48eb-9174-030c03d9500a"}},{"resource":{"resourceType":"MeasureReport","id":"6fe1df85-6b55-46e6-85bf-ef77ac0ddaa4","meta":{"profile":["http://hl7.org/fhir/us/cqfmeasures/StructureDefinition/test-case-cqfm"]},"contained":[{"resourceType":"Parameters","id":"8dc14800-cbc7-4d60-88ee-423e504d3052-parameters","parameter":[{"name":"subject","valueString":"337997e0-68a7-47e2-a9b8-f9846bf23baf"}]}],"extension":[{"url":"http://hl7.org/fhir/StructureDefinition/cqf-inputParameters","valueReference":{"reference":"#8dc14800-cbc7-4d60-88ee-423e504d3052-parameters"}},{"url":"http://hl7.org/fhir/us/cqfmeasures/StructureDefinition/cqfm-testCaseDescription","valueMarkdown":"Passes: IP, Fails DENOM Pt is 27 years of age,  encounter dx of delivery of singleton, gravida, EGA( >37 ) and @ 38 weeks, AsseDelivTm Result has date out of range, lower than 1900\n"}],"modifierExtension":[{"url":"http://hl7.org/fhir/us/cqfmeasures/StructureDefinition/cqfm-isTestCase","valueBoolean":true}],"status":"complete","type":"individual","measure":"https://madie.cms.gov/Measure/CMS0334FHIRPCCesareanBirth","period":{"start":"2026-01-01","end":"2026-12-31"},"group":[{"id":"Group_1","population":[{"id":"InitialPopulation_1","code":{"coding":[{"system":"http://terminology.hl7.org/CodeSystem/measure-population","code":"initial-population","display":"Initial Population"}]},"count":1},{"id":"Denominator_1","code":{"coding":[{"system":"http://terminology.hl7.org/CodeSystem/measure-population","code":"denominator","display":"Denominator"}]},"count":0},{"id":"DenominatorExclusion_1","code":{"coding":[{"system":"http://terminology.hl7.org/CodeSystem/measure-population","code":"denominator-exclusion","display":"Denominator Exclusion"}]},"count":0},{"id":"Numerator_1","code":{"coding":[{"system":"http://terminology.hl7.org/CodeSystem/measure-population","code":"numerator","display":"Numerator"}]},"count":0}],"measureScore":{"value":0.0}}],"evaluatedResource":[{"reference":"Patient/337997e0-68a7-47e2-a9b8-f9846bf23baf"},{"reference":"Observation/2cd8fc24-7b88-4c2d-9696-2dd74acb948a"},{"reference":"Observation/f5a06ceb-75c9-44d1-931b-452c43e2bd5d"},{"reference":"Observation/ce03c1ed-2826-4f42-89a8-eea5d7b095d2"},{"reference":"Encounter/05a07ee8-15be-45e9-8884-a5fba7b69c7c"},{"reference":"Procedure/a5811382-3ac4-48eb-9174-030c03d9500a"},{"reference":"Condition/dcef10cb-29e2-4125-923f-8ad8422668bd"},{"reference":"Coverage/39e3705c-e3aa-4e3d-be1b-fd1f2048b8f2"},{"reference":"Organization/d004c158-0bf7-42c5-8a17-66f55b8b59c7"},{"reference":"Practitioner/efa14df7-0ab5-4660-b140-a26372eab8af"}]},"request":{"method":"PUT","url":"MeasureReport/6fe1df85-6b55-46e6-85bf-ef77ac0ddaa4"}}]}