{"resourceType":"Bundle","id":"tests-4355cfd9-9700-4bd3-b828-e7726e73f857-bundle","type":"transaction","entry":[{"resource":{"resourceType":"MeasureReport","id":"61f38bcb-326a-46b2-8abf-80868716a410","meta":{"profile":["http://hl7.org/fhir/us/cqfmeasures/StructureDefinition/test-case-cqfm"]},"contained":[{"resourceType":"Parameters","id":"64457c91-3fda-446b-baf8-63174bfeadf8-parameters","parameter":[{"name":"subject","valueString":"4355cfd9-9700-4bd3-b828-e7726e73f857"}]}],"extension":[{"url":"http://hl7.org/fhir/StructureDefinition/cqf-inputParameters","valueReference":{"reference":"#64457c91-3fda-446b-baf8-63174bfeadf8-parameters"}},{"url":"http://hl7.org/fhir/us/cqfmeasures/StructureDefinition/cqfm-testCaseDescription","valueMarkdown":"Two Parities, first Parity=0 but last Parity is missing result, relevant date/time less than 42 weeks prior to delivery date/time\n"}],"modifierExtension":[{"url":"http://hl7.org/fhir/us/cqfmeasures/StructureDefinition/cqfm-isTestCase","valueBoolean":true}],"status":"complete","type":"individual","measure":"https://madie.cms.gov/Measure/CMS0334FHIRPCCesareanBirth","period":{"start":"2026-01-01","end":"2026-12-31"},"group":[{"id":"Group_1","population":[{"id":"InitialPopulation_1","code":{"coding":[{"system":"http://terminology.hl7.org/CodeSystem/measure-population","code":"initial-population","display":"Initial Population"}]},"count":1},{"id":"Denominator_1","code":{"coding":[{"system":"http://terminology.hl7.org/CodeSystem/measure-population","code":"denominator","display":"Denominator"}]},"count":1},{"id":"DenominatorExclusion_1","code":{"coding":[{"system":"http://terminology.hl7.org/CodeSystem/measure-population","code":"denominator-exclusion","display":"Denominator Exclusion"}]},"count":0},{"id":"Numerator_1","code":{"coding":[{"system":"http://terminology.hl7.org/CodeSystem/measure-population","code":"numerator","display":"Numerator"}]},"count":1}],"measureScore":{"value":0.0}}],"evaluatedResource":[{"reference":"Patient/4355cfd9-9700-4bd3-b828-e7726e73f857"},{"reference":"Observation/53013d5b-917a-45ec-9c6c-f003dbed9906"},{"reference":"Observation/9e4d8a5a-eeca-468b-aa00-e36a77c482ec"},{"reference":"Observation/174927bd-ba6f-477e-a285-227d3824a25d"},{"reference":"Observation/2b2dec4f-2f2f-4a87-9f9b-59db94873b70"},{"reference":"Encounter/f35e61fa-35ee-4579-8068-f5482a7d3a4f"},{"reference":"Coverage/fab1b507-e216-4aa4-a45a-929d8fbac10c"},{"reference":"Procedure/2d762313-e53b-4ef6-95b2-210e5d80ffbc"},{"reference":"Condition/ddec7911-6166-4a49-9bf0-12c1004d2446"},{"reference":"Organization/47ed16fb-4908-428c-aac0-046af087a6ae"},{"reference":"Practitioner/9b892c23-871c-4d5c-b6a8-b75c3ffeeeb0"}]},"request":{"method":"PUT","url":"MeasureReport/61f38bcb-326a-46b2-8abf-80868716a410"}},{"resource":{"resourceType":"Practitioner","id":"9b892c23-871c-4d5c-b6a8-b75c3ffeeeb0","meta":{"profile":["http://hl7.org/fhir/us/qicore/StructureDefinition/qicore-practitioner"]},"identifier":[{"system":"http://hl7.org/fhir/sid/us-npi","value":"1234567890"}],"name":[{"family":"Evil","prefix":["Dr"]}]},"request":{"method":"PUT","url":"Practitioner/9b892c23-871c-4d5c-b6a8-b75c3ffeeeb0"}},{"resource":{"resourceType":"Observation","id":"53013d5b-917a-45ec-9c6c-f003dbed9906","meta":{"profile":["http://hl7.org/fhir/us/qicore/StructureDefinition/qicore-simple-observation"]},"status":"final","category":[{"coding":[{"system":"http://terminology.hl7.org/CodeSystem/observation-category","code":"exam","display":"exam","userSelected":true}]}],"code":{"coding":[{"system":"http://loinc.org","code":"11977-6"}]},"subject":{"reference":"Patient/4355cfd9-9700-4bd3-b828-e7726e73f857"},"effectiveDateTime":"2025-10-20T09:00:00.000+00:00","valueInteger":0},"request":{"method":"PUT","url":"Observation/53013d5b-917a-45ec-9c6c-f003dbed9906"}},{"resource":{"resourceType":"Procedure","id":"2d762313-e53b-4ef6-95b2-210e5d80ffbc","meta":{"profile":["http://hl7.org/fhir/us/qicore/StructureDefinition/qicore-procedure"]},"extension":[{"url":"http://hl7.org/fhir/us/qicore/StructureDefinition/qicore-recorded","valueDateTime":"2014-04-05T13:35:00.000+00:00"}],"status":"completed","code":{"coding":[{"system":"http://www.cms.gov/Medicare/Coding/ICD10","code":"10D00Z0"}]},"subject":{"reference":"Patient/4355cfd9-9700-4bd3-b828-e7726e73f857"},"performedPeriod":{"start":"2026-06-08T20:00:00.000+00:00","end":"2026-06-08T20:15:00.000+00:00"}},"request":{"method":"PUT","url":"Procedure/2d762313-e53b-4ef6-95b2-210e5d80ffbc"}},{"resource":{"resourceType":"Organization","id":"47ed16fb-4908-428c-aac0-046af087a6ae","meta":{"profile":["http://hl7.org/fhir/us/qicore/StructureDefinition/qicore-organization"]},"identifier":[{"use":"temp","system":"urn:oid:2.16.840.1.113883.4.4","value":"21-3259825"}],"active":true,"type":[{"coding":[{"system":"http://terminology.hl7.org/CodeSystem/organization-type","code":"pay","display":"Payer"}]}],"name":"Blue Cross Blue Shield of Texas","telecom":[{"system":"phone","value":"(+1) 972-766-6900"}],"address":[{"use":"billing","type":"postal","line":["P.O. Box 660044"],"city":"Dallas","state":"TX","postalCode":"75266-0044","country":"USA"}]},"request":{"method":"PUT","url":"Organization/47ed16fb-4908-428c-aac0-046af087a6ae"}},{"resource":{"resourceType":"Patient","id":"4355cfd9-9700-4bd3-b828-e7726e73f857","meta":{"profile":["http://hl7.org/fhir/us/qicore/StructureDefinition/qicore-patient"]},"text":{"status":"generated","div":"<div xmlns=\"http://www.w3.org/1999/xhtml\"><div class=\"hapiHeaderText\">AssessParityLastMissingResult <b>DENPASS </b></div><table class=\"hapiPropertyTable\"><tbody><tr><td>Identifier</td><td>c06cc2d514ccfaffa49c54295f23978df6f00fe92fbd59d826ce4eb31140ad8c</td></tr><tr><td>Date of birth</td><td><span>14 February 1985</span></td></tr></tbody></table></div>"},"extension":[{"url":"http://hl7.org/fhir/us/core/StructureDefinition/us-core-race","extension":[{"url":"ombCategory","valueCoding":{"system":"urn:oid:2.16.840.1.113883.6.238","code":"1002-5","display":"American Indian or Alaska Native","userSelected":true}},{"url":"text","valueString":"American Indian or Alaska Native"}]},{"url":"http://hl7.org/fhir/us/core/StructureDefinition/us-core-ethnicity","extension":[{"url":"ombCategory","valueCoding":{"system":"urn:oid:2.16.840.1.113883.6.238","code":"2135-2","display":"Hispanic or Latino","userSelected":true}},{"url":"text","valueString":"Hispanic or Latino"}]}],"identifier":[{"type":{"coding":[{"system":"http://terminology.hl7.org/CodeSystem/v2-0203","code":"MR"}]},"system":"https://bonnie-fhir.healthit.gov/","value":"63487c300968f801225401bb"}],"active":true,"name":[{"use":"usual","family":"DENPass","given":["AssessParityLastMissingResult"]}],"gender":"female","birthDate":"1998-02-14"},"request":{"method":"PUT","url":"Patient/4355cfd9-9700-4bd3-b828-e7726e73f857"}},{"resource":{"resourceType":"Condition","id":"ddec7911-6166-4a49-9bf0-12c1004d2446","meta":{"profile":["http://hl7.org/fhir/us/qicore/StructureDefinition/qicore-condition-encounter-diagnosis"]},"category":[{"coding":[{"system":"http://terminology.hl7.org/CodeSystem/condition-category","code":"encounter-diagnosis","display":"Encounter Diagnosis"}]}],"code":{"coding":[{"system":"http://snomed.info/sct","version":"2022-09","code":"169826009","display":"Single live birth from singleton pregnancy (finding)","userSelected":true}]},"subject":{"reference":"Patient/4355cfd9-9700-4bd3-b828-e7726e73f857"},"encounter":{"reference":"Encounter/f35e61fa-35ee-4579-8068-f5482a7d3a4f"},"recordedDate":"2026-10-18T08:00:00.000+00:00"},"request":{"method":"PUT","url":"Condition/ddec7911-6166-4a49-9bf0-12c1004d2446"}},{"resource":{"resourceType":"Observation","id":"9e4d8a5a-eeca-468b-aa00-e36a77c482ec","meta":{"profile":["http://hl7.org/fhir/us/qicore/StructureDefinition/qicore-simple-observation"]},"status":"final","category":[{"coding":[{"system":"http://terminology.hl7.org/CodeSystem/observation-category","code":"exam","display":"exam","userSelected":true}]}],"code":{"coding":[{"system":"http://loinc.org","code":"11884-4"}]},"subject":{"reference":"Patient/4355cfd9-9700-4bd3-b828-e7726e73f857"},"effectiveDateTime":"2026-06-08T20:00:00.000+00:00","valueQuantity":{"value":37,"system":"http://unitsofmeasure.org","code":"wk"}},"request":{"method":"PUT","url":"Observation/9e4d8a5a-eeca-468b-aa00-e36a77c482ec"}},{"resource":{"resourceType":"Observation","id":"174927bd-ba6f-477e-a285-227d3824a25d","meta":{"profile":["http://hl7.org/fhir/us/qicore/StructureDefinition/qicore-simple-observation"]},"status":"final","category":[{"coding":[{"system":"http://terminology.hl7.org/CodeSystem/observation-category","code":"exam","display":"exam","userSelected":true}]}],"code":{"coding":[{"system":"http://loinc.org","code":"93857-1"}]},"subject":{"reference":"Patient/4355cfd9-9700-4bd3-b828-e7726e73f857"},"effectiveDateTime":"2026-06-08T20:00:00.000+00:00","valueDateTime":"2026-06-08T20:00:00.000+00:00"},"request":{"method":"PUT","url":"Observation/174927bd-ba6f-477e-a285-227d3824a25d"}},{"resource":{"resourceType":"Bundle","id":"63487c300968f801225401bb","type":"transaction","entry":[{"fullUrl":"https://madie.cms.gov/Patient/4355cfd9-9700-4bd3-b828-e7726e73f857","resource":{"resourceType":"Patient","id":"4355cfd9-9700-4bd3-b828-e7726e73f857","meta":{"profile":["http://hl7.org/fhir/us/qicore/StructureDefinition/qicore-patient"]},"text":{"status":"generated","div":"<div xmlns=\"http://www.w3.org/1999/xhtml\"><div class=\"hapiHeaderText\">AssessParityLastMissingResult <b>DENPASS </b></div><table class=\"hapiPropertyTable\"><tbody><tr><td>Identifier</td><td>c06cc2d514ccfaffa49c54295f23978df6f00fe92fbd59d826ce4eb31140ad8c</td></tr><tr><td>Date of birth</td><td><span>14 February 1985</span></td></tr></tbody></table></div>"},"extension":[{"url":"http://hl7.org/fhir/us/core/StructureDefinition/us-core-race","extension":[{"url":"ombCategory","valueCoding":{"system":"urn:oid:2.16.840.1.113883.6.238","code":"1002-5","display":"American Indian or Alaska Native","userSelected":true}},{"url":"text","valueString":"American Indian or Alaska Native"}]},{"url":"http://hl7.org/fhir/us/core/StructureDefinition/us-core-ethnicity","extension":[{"url":"ombCategory","valueCoding":{"system":"urn:oid:2.16.840.1.113883.6.238","code":"2135-2","display":"Hispanic or Latino","userSelected":true}},{"url":"text","valueString":"Hispanic or Latino"}]}],"identifier":[{"type":{"coding":[{"system":"http://terminology.hl7.org/CodeSystem/v2-0203","code":"MR"}]},"system":"https://bonnie-fhir.healthit.gov/","value":"63487c300968f801225401bb"}],"active":true,"name":[{"use":"usual","family":"DENPass","given":["AssessParityLastMissingResult"]}],"gender":"female","birthDate":"1998-02-14"},"request":{"method":"PUT","url":"Patient/4355cfd9-9700-4bd3-b828-e7726e73f857"}},{"fullUrl":"https://madie.cms.gov/Observation/53013d5b-917a-45ec-9c6c-f003dbed9906","resource":{"resourceType":"Observation","id":"53013d5b-917a-45ec-9c6c-f003dbed9906","meta":{"profile":["http://hl7.org/fhir/us/qicore/StructureDefinition/qicore-simple-observation"]},"status":"final","category":[{"coding":[{"system":"http://terminology.hl7.org/CodeSystem/observation-category","code":"exam","display":"exam","userSelected":true}]}],"code":{"coding":[{"system":"http://loinc.org","code":"11977-6"}]},"subject":{"reference":"Patient/4355cfd9-9700-4bd3-b828-e7726e73f857"},"effectiveDateTime":"2025-10-20T09:00:00.000+00:00","valueInteger":0},"request":{"method":"PUT","url":"Observation/53013d5b-917a-45ec-9c6c-f003dbed9906"}},{"fullUrl":"https://madie.cms.gov/Observation/9e4d8a5a-eeca-468b-aa00-e36a77c482ec","resource":{"resourceType":"Observation","id":"9e4d8a5a-eeca-468b-aa00-e36a77c482ec","meta":{"profile":["http://hl7.org/fhir/us/qicore/StructureDefinition/qicore-simple-observation"]},"status":"final","category":[{"coding":[{"system":"http://terminology.hl7.org/CodeSystem/observation-category","code":"exam","display":"exam","userSelected":true}]}],"code":{"coding":[{"system":"http://loinc.org","code":"11884-4"}]},"subject":{"reference":"Patient/4355cfd9-9700-4bd3-b828-e7726e73f857"},"effectiveDateTime":"2026-06-08T20:00:00.000+00:00","valueQuantity":{"value":37,"system":"http://unitsofmeasure.org","code":"wk"}},"request":{"method":"PUT","url":"Observation/9e4d8a5a-eeca-468b-aa00-e36a77c482ec"}},{"fullUrl":"https://madie.cms.gov/Observation/174927bd-ba6f-477e-a285-227d3824a25d","resource":{"resourceType":"Observation","id":"174927bd-ba6f-477e-a285-227d3824a25d","meta":{"profile":["http://hl7.org/fhir/us/qicore/StructureDefinition/qicore-simple-observation"]},"status":"final","category":[{"coding":[{"system":"http://terminology.hl7.org/CodeSystem/observation-category","code":"exam","display":"exam","userSelected":true}]}],"code":{"coding":[{"system":"http://loinc.org","code":"93857-1"}]},"subject":{"reference":"Patient/4355cfd9-9700-4bd3-b828-e7726e73f857"},"effectiveDateTime":"2026-06-08T20:00:00.000+00:00","valueDateTime":"2026-06-08T20:00:00.000+00:00"},"request":{"method":"PUT","url":"Observation/174927bd-ba6f-477e-a285-227d3824a25d"}},{"fullUrl":"https://madie.cms.gov/Observation/2b2dec4f-2f2f-4a87-9f9b-59db94873b70","resource":{"resourceType":"Observation","id":"2b2dec4f-2f2f-4a87-9f9b-59db94873b70","meta":{"profile":["http://hl7.org/fhir/us/qicore/StructureDefinition/qicore-simple-observation"]},"status":"final","category":[{"coding":[{"system":"http://terminology.hl7.org/CodeSystem/observation-category","code":"exam","display":"exam","userSelected":true}]}],"code":{"coding":[{"system":"http://loinc.org","code":"11977-6"}]},"subject":{"reference":"Patient/4355cfd9-9700-4bd3-b828-e7726e73f857"}},"request":{"method":"PUT","url":"Observation/2b2dec4f-2f2f-4a87-9f9b-59db94873b70"}},{"fullUrl":"https://madie.cms.gov/Encounter/f35e61fa-35ee-4579-8068-f5482a7d3a4f","resource":{"resourceType":"Encounter","id":"f35e61fa-35ee-4579-8068-f5482a7d3a4f","meta":{"profile":["http://hl7.org/fhir/us/qicore/StructureDefinition/qicore-encounter"]},"status":"finished","class":{"system":"http://terminology.hl7.org/CodeSystem/v3-ActCode","code":"IMP","display":"inpatient encounter"},"type":[{"coding":[{"system":"http://snomed.info/sct","code":"8715000"}]}],"subject":{"reference":"Patient/4355cfd9-9700-4bd3-b828-e7726e73f857"},"period":{"start":"2026-06-08T08:00:00.000+00:00","end":"2026-06-10T08:15:00.000+00:00"},"length":{"value":2,"unit":"days"},"reasonReference":[{"reference":"Condition/ddec7911-6166-4a49-9bf0-12c1004d2446"}]},"request":{"method":"PUT","url":"Encounter/f35e61fa-35ee-4579-8068-f5482a7d3a4f"}},{"fullUrl":"https://madie.cms.gov/Coverage/fab1b507-e216-4aa4-a45a-929d8fbac10c","resource":{"resourceType":"Coverage","id":"fab1b507-e216-4aa4-a45a-929d8fbac10c","status":"active","subscriberId":"523435","beneficiary":{"reference":"Patient/4355cfd9-9700-4bd3-b828-e7726e73f857"},"relationship":{"coding":[{"system":"http://terminology.hl7.org/CodeSystem/subscriber-relationship","code":"self"}]},"period":{"start":"1986-02-14T08:00:00.000+00:00"},"payor":[{"reference":"Organization/47ed16fb-4908-428c-aac0-046af087a6ae"}]},"request":{"method":"PUT","url":"Coverage/fab1b507-e216-4aa4-a45a-929d8fbac10c"}},{"fullUrl":"https://madie.cms.gov/Procedure/2d762313-e53b-4ef6-95b2-210e5d80ffbc","resource":{"resourceType":"Procedure","id":"2d762313-e53b-4ef6-95b2-210e5d80ffbc","meta":{"profile":["http://hl7.org/fhir/us/qicore/StructureDefinition/qicore-procedure"]},"extension":[{"url":"http://hl7.org/fhir/us/qicore/StructureDefinition/qicore-recorded","valueDateTime":"2014-04-05T13:35:00.000+00:00"}],"status":"completed","code":{"coding":[{"system":"http://www.cms.gov/Medicare/Coding/ICD10","code":"10D00Z0"}]},"subject":{"reference":"Patient/4355cfd9-9700-4bd3-b828-e7726e73f857"},"performedPeriod":{"start":"2026-06-08T20:00:00.000+00:00","end":"2026-06-08T20:15:00.000+00:00"}},"request":{"method":"PUT","url":"Procedure/2d762313-e53b-4ef6-95b2-210e5d80ffbc"}},{"fullUrl":"https://madie.cms.gov/Condition/ddec7911-6166-4a49-9bf0-12c1004d2446","resource":{"resourceType":"Condition","id":"ddec7911-6166-4a49-9bf0-12c1004d2446","meta":{"profile":["http://hl7.org/fhir/us/qicore/StructureDefinition/qicore-condition-encounter-diagnosis"]},"category":[{"coding":[{"system":"http://terminology.hl7.org/CodeSystem/condition-category","code":"encounter-diagnosis","display":"Encounter Diagnosis"}]}],"code":{"coding":[{"system":"http://snomed.info/sct","version":"2022-09","code":"169826009","display":"Single live birth from singleton pregnancy (finding)","userSelected":true}]},"subject":{"reference":"Patient/4355cfd9-9700-4bd3-b828-e7726e73f857"},"encounter":{"reference":"Encounter/f35e61fa-35ee-4579-8068-f5482a7d3a4f"},"recordedDate":"2026-10-18T08:00:00.000+00:00"},"request":{"method":"PUT","url":"Condition/ddec7911-6166-4a49-9bf0-12c1004d2446"}},{"fullUrl":"https://madie.cms.gov/Organization/47ed16fb-4908-428c-aac0-046af087a6ae","resource":{"resourceType":"Organization","id":"47ed16fb-4908-428c-aac0-046af087a6ae","meta":{"profile":["http://hl7.org/fhir/us/qicore/StructureDefinition/qicore-organization"]},"identifier":[{"use":"temp","system":"urn:oid:2.16.840.1.113883.4.4","value":"21-3259825"}],"active":true,"type":[{"coding":[{"system":"http://terminology.hl7.org/CodeSystem/organization-type","code":"pay","display":"Payer"}]}],"name":"Blue Cross Blue Shield of Texas","telecom":[{"system":"phone","value":"(+1) 972-766-6900"}],"address":[{"use":"billing","type":"postal","line":["P.O. Box 660044"],"city":"Dallas","state":"TX","postalCode":"75266-0044","country":"USA"}]},"request":{"method":"PUT","url":"Organization/47ed16fb-4908-428c-aac0-046af087a6ae"}},{"fullUrl":"https://madie.cms.gov/Practitioner/9b892c23-871c-4d5c-b6a8-b75c3ffeeeb0","resource":{"resourceType":"Practitioner","id":"9b892c23-871c-4d5c-b6a8-b75c3ffeeeb0","meta":{"profile":["http://hl7.org/fhir/us/qicore/StructureDefinition/qicore-practitioner"]},"identifier":[{"system":"http://hl7.org/fhir/sid/us-npi","value":"1234567890"}],"name":[{"family":"Evil","prefix":["Dr"]}]},"request":{"method":"PUT","url":"Practitioner/9b892c23-871c-4d5c-b6a8-b75c3ffeeeb0"}},{"fullUrl":"https://madie.cms.gov/MeasureReport/61f38bcb-326a-46b2-8abf-80868716a410","resource":{"resourceType":"MeasureReport","id":"61f38bcb-326a-46b2-8abf-80868716a410","meta":{"profile":["http://hl7.org/fhir/us/cqfmeasures/StructureDefinition/test-case-cqfm"]},"contained":[{"resourceType":"Parameters","id":"64457c91-3fda-446b-baf8-63174bfeadf8-parameters","parameter":[{"name":"subject","valueString":"4355cfd9-9700-4bd3-b828-e7726e73f857"}]}],"extension":[{"url":"http://hl7.org/fhir/StructureDefinition/cqf-inputParameters","valueReference":{"reference":"#64457c91-3fda-446b-baf8-63174bfeadf8-parameters"}},{"url":"http://hl7.org/fhir/us/cqfmeasures/StructureDefinition/cqfm-testCaseDescription","valueMarkdown":"Two Parities, first Parity=0 but last Parity is missing result, relevant date/time less than 42 weeks prior to delivery date/time\n"}],"modifierExtension":[{"url":"http://hl7.org/fhir/us/cqfmeasures/StructureDefinition/cqfm-isTestCase","valueBoolean":true}],"status":"complete","type":"individual","measure":"https://madie.cms.gov/Measure/CMS0334FHIRPCCesareanBirth","period":{"start":"2026-01-01","end":"2026-12-31"},"group":[{"id":"Group_1","population":[{"id":"InitialPopulation_1","code":{"coding":[{"system":"http://terminology.hl7.org/CodeSystem/measure-population","code":"initial-population","display":"Initial Population"}]},"count":1},{"id":"Denominator_1","code":{"coding":[{"system":"http://terminology.hl7.org/CodeSystem/measure-population","code":"denominator","display":"Denominator"}]},"count":1},{"id":"DenominatorExclusion_1","code":{"coding":[{"system":"http://terminology.hl7.org/CodeSystem/measure-population","code":"denominator-exclusion","display":"Denominator Exclusion"}]},"count":0},{"id":"Numerator_1","code":{"coding":[{"system":"http://terminology.hl7.org/CodeSystem/measure-population","code":"numerator","display":"Numerator"}]},"count":1}],"measureScore":{"value":0.0}}],"evaluatedResource":[{"reference":"Patient/4355cfd9-9700-4bd3-b828-e7726e73f857"},{"reference":"Observation/53013d5b-917a-45ec-9c6c-f003dbed9906"},{"reference":"Observation/9e4d8a5a-eeca-468b-aa00-e36a77c482ec"},{"reference":"Observation/174927bd-ba6f-477e-a285-227d3824a25d"},{"reference":"Observation/2b2dec4f-2f2f-4a87-9f9b-59db94873b70"},{"reference":"Encounter/f35e61fa-35ee-4579-8068-f5482a7d3a4f"},{"reference":"Coverage/fab1b507-e216-4aa4-a45a-929d8fbac10c"},{"reference":"Procedure/2d762313-e53b-4ef6-95b2-210e5d80ffbc"},{"reference":"Condition/ddec7911-6166-4a49-9bf0-12c1004d2446"},{"reference":"Organization/47ed16fb-4908-428c-aac0-046af087a6ae"},{"reference":"Practitioner/9b892c23-871c-4d5c-b6a8-b75c3ffeeeb0"}]},"request":{"method":"PUT","url":"MeasureReport/61f38bcb-326a-46b2-8abf-80868716a410"}}]},"request":{"method":"PUT","url":"Bundle/63487c300968f801225401bb"}},{"resource":{"resourceType":"Encounter","id":"f35e61fa-35ee-4579-8068-f5482a7d3a4f","meta":{"profile":["http://hl7.org/fhir/us/qicore/StructureDefinition/qicore-encounter"]},"status":"finished","class":{"system":"http://terminology.hl7.org/CodeSystem/v3-ActCode","code":"IMP","display":"inpatient encounter"},"type":[{"coding":[{"system":"http://snomed.info/sct","code":"8715000"}]}],"subject":{"reference":"Patient/4355cfd9-9700-4bd3-b828-e7726e73f857"},"period":{"start":"2026-06-08T08:00:00.000+00:00","end":"2026-06-10T08:15:00.000+00:00"},"length":{"value":2,"unit":"days"},"reasonReference":[{"reference":"Condition/ddec7911-6166-4a49-9bf0-12c1004d2446"}]},"request":{"method":"PUT","url":"Encounter/f35e61fa-35ee-4579-8068-f5482a7d3a4f"}},{"resource":{"resourceType":"Coverage","id":"fab1b507-e216-4aa4-a45a-929d8fbac10c","status":"active","subscriberId":"523435","beneficiary":{"reference":"Patient/4355cfd9-9700-4bd3-b828-e7726e73f857"},"relationship":{"coding":[{"system":"http://terminology.hl7.org/CodeSystem/subscriber-relationship","code":"self"}]},"period":{"start":"1986-02-14T08:00:00.000+00:00"},"payor":[{"reference":"Organization/47ed16fb-4908-428c-aac0-046af087a6ae"}]},"request":{"method":"PUT","url":"Coverage/fab1b507-e216-4aa4-a45a-929d8fbac10c"}},{"resource":{"resourceType":"Observation","id":"2b2dec4f-2f2f-4a87-9f9b-59db94873b70","meta":{"profile":["http://hl7.org/fhir/us/qicore/StructureDefinition/qicore-simple-observation"]},"status":"final","category":[{"coding":[{"system":"http://terminology.hl7.org/CodeSystem/observation-category","code":"exam","display":"exam","userSelected":true}]}],"code":{"coding":[{"system":"http://loinc.org","code":"11977-6"}]},"subject":{"reference":"Patient/4355cfd9-9700-4bd3-b828-e7726e73f857"}},"request":{"method":"PUT","url":"Observation/2b2dec4f-2f2f-4a87-9f9b-59db94873b70"}}]}