{"resourceType":"Bundle","id":"tests-b2cb7909-8a02-46ad-8bc9-4154902fee43-bundle","type":"transaction","entry":[{"resource":{"resourceType":"Observation","id":"03328700-7701-443f-8d88-ccdc01b6dbc6","meta":{"profile":["http://hl7.org/fhir/us/qicore/StructureDefinition/qicore-simple-observation"]},"status":"final","category":[{"coding":[{"system":"http://terminology.hl7.org/CodeSystem/observation-category","code":"exam","display":"exam","userSelected":true}]}],"code":{"coding":[{"system":"http://loinc.org","code":"11884-4"}]},"subject":{"reference":"Patient/b2cb7909-8a02-46ad-8bc9-4154902fee43"},"effectiveDateTime":"2026-06-08T20:00:00.000+00:00","valueQuantity":{"value":37,"system":"http://unitsofmeasure.org","code":"wk"}},"request":{"method":"PUT","url":"Observation/03328700-7701-443f-8d88-ccdc01b6dbc6"}},{"resource":{"resourceType":"Condition","id":"cfe437ae-80d2-407c-92fb-967d347150c8","meta":{"profile":["http://hl7.org/fhir/us/qicore/StructureDefinition/qicore-condition-encounter-diagnosis"]},"category":[{"coding":[{"system":"http://terminology.hl7.org/CodeSystem/condition-category","code":"encounter-diagnosis","display":"Encounter Diagnosis"}]}],"code":{"coding":[{"system":"http://snomed.info/sct","version":"2022-09","code":"169826009","display":"Single live birth from singleton pregnancy (finding)","userSelected":true}]},"subject":{"reference":"Patient/b2cb7909-8a02-46ad-8bc9-4154902fee43"},"encounter":{"reference":"Encounter/3a7c8981-522b-4aa6-847a-7863bafe9e5c"},"recordedDate":"2026-10-19T08:00:00.000+00:00"},"request":{"method":"PUT","url":"Condition/cfe437ae-80d2-407c-92fb-967d347150c8"}},{"resource":{"resourceType":"Observation","id":"7ba9ba6c-f93a-4892-8859-1b847d51f875","meta":{"profile":["http://hl7.org/fhir/us/qicore/StructureDefinition/qicore-simple-observation"]},"status":"final","category":[{"coding":[{"system":"http://terminology.hl7.org/CodeSystem/observation-category","code":"exam","display":"exam","userSelected":true}]}],"code":{"coding":[{"system":"http://loinc.org","code":"11977-6"}]},"subject":{"reference":"Patient/b2cb7909-8a02-46ad-8bc9-4154902fee43"},"effectiveDateTime":"2026-06-08T19:59:00.000+00:00"},"request":{"method":"PUT","url":"Observation/7ba9ba6c-f93a-4892-8859-1b847d51f875"}},{"resource":{"resourceType":"Patient","id":"b2cb7909-8a02-46ad-8bc9-4154902fee43","meta":{"profile":["http://hl7.org/fhir/us/qicore/StructureDefinition/qicore-patient"]},"text":{"status":"generated","div":"<div xmlns=\"http://www.w3.org/1999/xhtml\"><div class=\"hapiHeaderText\">AssessPLastResultIsNull <b>DENPASS </b></div><table class=\"hapiPropertyTable\"><tbody><tr><td>Identifier</td><td>cb4a87fae0aeb4667064306e289209af09ca2376f26fb181f5d5ea03cba5dc53</td></tr><tr><td>Date of birth</td><td><span>14 February 1985</span></td></tr></tbody></table></div>"},"extension":[{"url":"http://hl7.org/fhir/us/core/StructureDefinition/us-core-race","extension":[{"url":"ombCategory","valueCoding":{"system":"urn:oid:2.16.840.1.113883.6.238","code":"1002-5","display":"American Indian or Alaska Native","userSelected":true}},{"url":"text","valueString":"American Indian or Alaska Native"}]},{"url":"http://hl7.org/fhir/us/core/StructureDefinition/us-core-ethnicity","extension":[{"url":"ombCategory","valueCoding":{"system":"urn:oid:2.16.840.1.113883.6.238","code":"2135-2","display":"Hispanic or Latino","userSelected":true}},{"url":"text","valueString":"Hispanic or Latino"}]}],"identifier":[{"type":{"coding":[{"system":"http://terminology.hl7.org/CodeSystem/v2-0203","code":"MR"}]},"system":"https://bonnie-fhir.healthit.gov/","value":"63487c300968f801225401c6"}],"active":true,"name":[{"use":"usual","family":"DENPass","given":["AssessPLastResultIsNull"]}],"gender":"female","birthDate":"1998-02-14"},"request":{"method":"PUT","url":"Patient/b2cb7909-8a02-46ad-8bc9-4154902fee43"}},{"resource":{"resourceType":"Bundle","id":"63487c300968f801225401c6","type":"transaction","entry":[{"fullUrl":"https://madie.cms.gov/Patient/b2cb7909-8a02-46ad-8bc9-4154902fee43","resource":{"resourceType":"Patient","id":"b2cb7909-8a02-46ad-8bc9-4154902fee43","meta":{"profile":["http://hl7.org/fhir/us/qicore/StructureDefinition/qicore-patient"]},"text":{"status":"generated","div":"<div xmlns=\"http://www.w3.org/1999/xhtml\"><div class=\"hapiHeaderText\">AssessPLastResultIsNull <b>DENPASS </b></div><table class=\"hapiPropertyTable\"><tbody><tr><td>Identifier</td><td>cb4a87fae0aeb4667064306e289209af09ca2376f26fb181f5d5ea03cba5dc53</td></tr><tr><td>Date of birth</td><td><span>14 February 1985</span></td></tr></tbody></table></div>"},"extension":[{"url":"http://hl7.org/fhir/us/core/StructureDefinition/us-core-race","extension":[{"url":"ombCategory","valueCoding":{"system":"urn:oid:2.16.840.1.113883.6.238","code":"1002-5","display":"American Indian or Alaska Native","userSelected":true}},{"url":"text","valueString":"American Indian or Alaska Native"}]},{"url":"http://hl7.org/fhir/us/core/StructureDefinition/us-core-ethnicity","extension":[{"url":"ombCategory","valueCoding":{"system":"urn:oid:2.16.840.1.113883.6.238","code":"2135-2","display":"Hispanic or Latino","userSelected":true}},{"url":"text","valueString":"Hispanic or Latino"}]}],"identifier":[{"type":{"coding":[{"system":"http://terminology.hl7.org/CodeSystem/v2-0203","code":"MR"}]},"system":"https://bonnie-fhir.healthit.gov/","value":"63487c300968f801225401c6"}],"active":true,"name":[{"use":"usual","family":"DENPass","given":["AssessPLastResultIsNull"]}],"gender":"female","birthDate":"1998-02-14"},"request":{"method":"PUT","url":"Patient/b2cb7909-8a02-46ad-8bc9-4154902fee43"}},{"fullUrl":"https://madie.cms.gov/Observation/f0a71565-27d7-439c-afd0-3cf379dfa341","resource":{"resourceType":"Observation","id":"f0a71565-27d7-439c-afd0-3cf379dfa341","meta":{"profile":["http://hl7.org/fhir/us/qicore/StructureDefinition/qicore-simple-observation"]},"status":"final","category":[{"coding":[{"system":"http://terminology.hl7.org/CodeSystem/observation-category","code":"exam","display":"exam","userSelected":true}]}],"code":{"coding":[{"system":"http://loinc.org","code":"11977-6"}]},"subject":{"reference":"Patient/b2cb7909-8a02-46ad-8bc9-4154902fee43"},"effectiveDateTime":"2026-06-08T18:00:00.000+00:00","valueInteger":0},"request":{"method":"PUT","url":"Observation/f0a71565-27d7-439c-afd0-3cf379dfa341"}},{"fullUrl":"https://madie.cms.gov/Observation/03328700-7701-443f-8d88-ccdc01b6dbc6","resource":{"resourceType":"Observation","id":"03328700-7701-443f-8d88-ccdc01b6dbc6","meta":{"profile":["http://hl7.org/fhir/us/qicore/StructureDefinition/qicore-simple-observation"]},"status":"final","category":[{"coding":[{"system":"http://terminology.hl7.org/CodeSystem/observation-category","code":"exam","display":"exam","userSelected":true}]}],"code":{"coding":[{"system":"http://loinc.org","code":"11884-4"}]},"subject":{"reference":"Patient/b2cb7909-8a02-46ad-8bc9-4154902fee43"},"effectiveDateTime":"2026-06-08T20:00:00.000+00:00","valueQuantity":{"value":37,"system":"http://unitsofmeasure.org","code":"wk"}},"request":{"method":"PUT","url":"Observation/03328700-7701-443f-8d88-ccdc01b6dbc6"}},{"fullUrl":"https://madie.cms.gov/Observation/c315ad6f-5ad9-48b5-9f3f-1957d191e9c3","resource":{"resourceType":"Observation","id":"c315ad6f-5ad9-48b5-9f3f-1957d191e9c3","meta":{"profile":["http://hl7.org/fhir/us/qicore/StructureDefinition/qicore-simple-observation"]},"status":"final","category":[{"coding":[{"system":"http://terminology.hl7.org/CodeSystem/observation-category","code":"exam","display":"exam","userSelected":true}]}],"code":{"coding":[{"system":"http://loinc.org","code":"93857-1"}]},"subject":{"reference":"Patient/b2cb7909-8a02-46ad-8bc9-4154902fee43"},"effectiveDateTime":"2026-06-08T20:00:00.000+00:00","valueDateTime":"2026-06-08T20:00:00.000+00:00"},"request":{"method":"PUT","url":"Observation/c315ad6f-5ad9-48b5-9f3f-1957d191e9c3"}},{"fullUrl":"https://madie.cms.gov/Observation/7ba9ba6c-f93a-4892-8859-1b847d51f875","resource":{"resourceType":"Observation","id":"7ba9ba6c-f93a-4892-8859-1b847d51f875","meta":{"profile":["http://hl7.org/fhir/us/qicore/StructureDefinition/qicore-simple-observation"]},"status":"final","category":[{"coding":[{"system":"http://terminology.hl7.org/CodeSystem/observation-category","code":"exam","display":"exam","userSelected":true}]}],"code":{"coding":[{"system":"http://loinc.org","code":"11977-6"}]},"subject":{"reference":"Patient/b2cb7909-8a02-46ad-8bc9-4154902fee43"},"effectiveDateTime":"2026-06-08T19:59:00.000+00:00"},"request":{"method":"PUT","url":"Observation/7ba9ba6c-f93a-4892-8859-1b847d51f875"}},{"fullUrl":"https://madie.cms.gov/Observation/fec105d7-e329-4f92-8107-08e2d680690b","resource":{"resourceType":"Observation","id":"fec105d7-e329-4f92-8107-08e2d680690b","meta":{"profile":["http://hl7.org/fhir/us/qicore/StructureDefinition/qicore-simple-observation"]},"status":"final","category":[{"coding":[{"system":"http://terminology.hl7.org/CodeSystem/observation-category","code":"exam","display":"exam","userSelected":true}]}],"code":{"coding":[{"system":"http://loinc.org","code":"11977-6"}]},"subject":{"reference":"Patient/b2cb7909-8a02-46ad-8bc9-4154902fee43"},"effectivePeriod":{"start":"2026-05-11T08:00:00.000+00:00","end":"2026-05-11T08:15:00.000+00:00"},"issued":"2026-05-11T08:00:00.000+00:00"},"request":{"method":"PUT","url":"Observation/fec105d7-e329-4f92-8107-08e2d680690b"}},{"fullUrl":"https://madie.cms.gov/Encounter/3a7c8981-522b-4aa6-847a-7863bafe9e5c","resource":{"resourceType":"Encounter","id":"3a7c8981-522b-4aa6-847a-7863bafe9e5c","meta":{"profile":["http://hl7.org/fhir/us/qicore/StructureDefinition/qicore-encounter"]},"status":"finished","class":{"system":"http://terminology.hl7.org/CodeSystem/v3-ActCode","code":"IMP","display":"inpatient encounter"},"type":[{"coding":[{"system":"http://snomed.info/sct","code":"8715000"}]}],"subject":{"reference":"Patient/b2cb7909-8a02-46ad-8bc9-4154902fee43"},"period":{"start":"2026-06-08T08:00:00.000+00:00","end":"2026-06-10T08:15:00.000+00:00"},"length":{"value":2,"unit":"days"},"reasonReference":[{"reference":"Condition/cfe437ae-80d2-407c-92fb-967d347150c8"}]},"request":{"method":"PUT","url":"Encounter/3a7c8981-522b-4aa6-847a-7863bafe9e5c"}},{"fullUrl":"https://madie.cms.gov/Coverage/5f5f9e561c76ba674bb03403","resource":{"resourceType":"Coverage","id":"5f5f9e561c76ba674bb03403","meta":{"profile":["http://hl7.org/fhir/us/qicore/StructureDefinition/qicore-coverage"]},"status":"active","subscriberId":"523435","beneficiary":{"reference":"Patient/b2cb7909-8a02-46ad-8bc9-4154902fee43"},"relationship":{"coding":[{"system":"http://terminology.hl7.org/CodeSystem/subscriber-relationship","code":"self"}]},"period":{"start":"1986-02-14T08:00:00.000+00:00"},"payor":[{"reference":"Organization/c5d97db5-a534-423e-8de3-2242568a577e"}]},"request":{"method":"PUT","url":"Coverage/5f5f9e561c76ba674bb03403"}},{"fullUrl":"https://madie.cms.gov/Procedure/3fa172d3-273c-4f5e-9b8c-48afdebff87f","resource":{"resourceType":"Procedure","id":"3fa172d3-273c-4f5e-9b8c-48afdebff87f","meta":{"profile":["http://hl7.org/fhir/us/qicore/StructureDefinition/qicore-procedure"]},"extension":[{"url":"http://hl7.org/fhir/us/qicore/StructureDefinition/qicore-recorded","valueDateTime":"2014-04-05T13:35:00.000+00:00"}],"status":"completed","code":{"coding":[{"system":"http://www.cms.gov/Medicare/Coding/ICD10","code":"10D00Z0"},{"system":"http://snomed.info/sct","code":"4504004"}]},"subject":{"reference":"Patient/b2cb7909-8a02-46ad-8bc9-4154902fee43"},"performedPeriod":{"start":"2026-06-08T20:00:00.000+00:00","end":"2026-06-08T20:15:00.000+00:00"}},"request":{"method":"PUT","url":"Procedure/3fa172d3-273c-4f5e-9b8c-48afdebff87f"}},{"fullUrl":"https://madie.cms.gov/Condition/cfe437ae-80d2-407c-92fb-967d347150c8","resource":{"resourceType":"Condition","id":"cfe437ae-80d2-407c-92fb-967d347150c8","meta":{"profile":["http://hl7.org/fhir/us/qicore/StructureDefinition/qicore-condition-encounter-diagnosis"]},"category":[{"coding":[{"system":"http://terminology.hl7.org/CodeSystem/condition-category","code":"encounter-diagnosis","display":"Encounter Diagnosis"}]}],"code":{"coding":[{"system":"http://snomed.info/sct","version":"2022-09","code":"169826009","display":"Single live birth from singleton pregnancy (finding)","userSelected":true}]},"subject":{"reference":"Patient/b2cb7909-8a02-46ad-8bc9-4154902fee43"},"encounter":{"reference":"Encounter/3a7c8981-522b-4aa6-847a-7863bafe9e5c"},"recordedDate":"2026-10-19T08:00:00.000+00:00"},"request":{"method":"PUT","url":"Condition/cfe437ae-80d2-407c-92fb-967d347150c8"}},{"fullUrl":"https://madie.cms.gov/Organization/c5d97db5-a534-423e-8de3-2242568a577e","resource":{"resourceType":"Organization","id":"c5d97db5-a534-423e-8de3-2242568a577e","meta":{"profile":["http://hl7.org/fhir/us/qicore/StructureDefinition/qicore-organization"]},"identifier":[{"use":"temp","system":"urn:oid:2.16.840.1.113883.4.4","value":"21-3259825"}],"active":true,"type":[{"coding":[{"system":"http://terminology.hl7.org/CodeSystem/organization-type","code":"pay","display":"Payer"}]}],"name":"Blue Cross Blue Shield of Texas","telecom":[{"system":"phone","value":"(+1) 972-766-6900"}],"address":[{"use":"billing","type":"postal","line":["P.O. Box 660044"],"city":"Dallas","state":"TX","postalCode":"75266-0044","country":"USA"}]},"request":{"method":"PUT","url":"Organization/c5d97db5-a534-423e-8de3-2242568a577e"}},{"fullUrl":"https://madie.cms.gov/Practitioner/cbef3e42-be33-40dd-8cc9-2e389cea7d3a","resource":{"resourceType":"Practitioner","id":"cbef3e42-be33-40dd-8cc9-2e389cea7d3a","meta":{"profile":["http://hl7.org/fhir/us/qicore/StructureDefinition/qicore-practitioner"]},"identifier":[{"system":"http://hl7.org/fhir/sid/us-npi","value":"1234567890"}],"name":[{"family":"Evil","prefix":["Dr"]}]},"request":{"method":"PUT","url":"Practitioner/cbef3e42-be33-40dd-8cc9-2e389cea7d3a"}},{"fullUrl":"https://madie.cms.gov/MeasureReport/a9074229-59a0-4850-99f9-097bf2936f71","resource":{"resourceType":"MeasureReport","id":"a9074229-59a0-4850-99f9-097bf2936f71","meta":{"profile":["http://hl7.org/fhir/us/cqfmeasures/StructureDefinition/test-case-cqfm"]},"contained":[{"resourceType":"Parameters","id":"2a651c06-07cd-4127-9580-18d085df980b-parameters","parameter":[{"name":"subject","valueString":"b2cb7909-8a02-46ad-8bc9-4154902fee43"}]}],"extension":[{"url":"http://hl7.org/fhir/StructureDefinition/cqf-inputParameters","valueReference":{"reference":"#2a651c06-07cd-4127-9580-18d085df980b-parameters"}},{"url":"http://hl7.org/fhir/us/cqfmeasures/StructureDefinition/cqfm-testCaseDescription","valueMarkdown":"Parity Last Result is Null but first is zero, relevant date/time same date but time less than delivery date/time\n"}],"modifierExtension":[{"url":"http://hl7.org/fhir/us/cqfmeasures/StructureDefinition/cqfm-isTestCase","valueBoolean":true}],"status":"complete","type":"individual","measure":"https://madie.cms.gov/Measure/CMS0334FHIRPCCesareanBirth","period":{"start":"2026-01-01","end":"2026-12-31"},"group":[{"id":"Group_1","population":[{"id":"InitialPopulation_1","code":{"coding":[{"system":"http://terminology.hl7.org/CodeSystem/measure-population","code":"initial-population","display":"Initial Population"}]},"count":1},{"id":"Denominator_1","code":{"coding":[{"system":"http://terminology.hl7.org/CodeSystem/measure-population","code":"denominator","display":"Denominator"}]},"count":1},{"id":"DenominatorExclusion_1","code":{"coding":[{"system":"http://terminology.hl7.org/CodeSystem/measure-population","code":"denominator-exclusion","display":"Denominator Exclusion"}]},"count":0},{"id":"Numerator_1","code":{"coding":[{"system":"http://terminology.hl7.org/CodeSystem/measure-population","code":"numerator","display":"Numerator"}]},"count":1}],"measureScore":{"value":0.0}}],"evaluatedResource":[{"reference":"Patient/b2cb7909-8a02-46ad-8bc9-4154902fee43"},{"reference":"Observation/f0a71565-27d7-439c-afd0-3cf379dfa341"},{"reference":"Observation/03328700-7701-443f-8d88-ccdc01b6dbc6"},{"reference":"Observation/c315ad6f-5ad9-48b5-9f3f-1957d191e9c3"},{"reference":"Observation/7ba9ba6c-f93a-4892-8859-1b847d51f875"},{"reference":"Observation/fec105d7-e329-4f92-8107-08e2d680690b"},{"reference":"Encounter/3a7c8981-522b-4aa6-847a-7863bafe9e5c"},{"reference":"Coverage/5f5f9e561c76ba674bb03403"},{"reference":"Procedure/3fa172d3-273c-4f5e-9b8c-48afdebff87f"},{"reference":"Condition/cfe437ae-80d2-407c-92fb-967d347150c8"},{"reference":"Organization/c5d97db5-a534-423e-8de3-2242568a577e"},{"reference":"Practitioner/cbef3e42-be33-40dd-8cc9-2e389cea7d3a"}]},"request":{"method":"PUT","url":"MeasureReport/a9074229-59a0-4850-99f9-097bf2936f71"}}]},"request":{"method":"PUT","url":"Bundle/63487c300968f801225401c6"}},{"resource":{"resourceType":"Observation","id":"c315ad6f-5ad9-48b5-9f3f-1957d191e9c3","meta":{"profile":["http://hl7.org/fhir/us/qicore/StructureDefinition/qicore-simple-observation"]},"status":"final","category":[{"coding":[{"system":"http://terminology.hl7.org/CodeSystem/observation-category","code":"exam","display":"exam","userSelected":true}]}],"code":{"coding":[{"system":"http://loinc.org","code":"93857-1"}]},"subject":{"reference":"Patient/b2cb7909-8a02-46ad-8bc9-4154902fee43"},"effectiveDateTime":"2026-06-08T20:00:00.000+00:00","valueDateTime":"2026-06-08T20:00:00.000+00:00"},"request":{"method":"PUT","url":"Observation/c315ad6f-5ad9-48b5-9f3f-1957d191e9c3"}},{"resource":{"resourceType":"Encounter","id":"3a7c8981-522b-4aa6-847a-7863bafe9e5c","meta":{"profile":["http://hl7.org/fhir/us/qicore/StructureDefinition/qicore-encounter"]},"status":"finished","class":{"system":"http://terminology.hl7.org/CodeSystem/v3-ActCode","code":"IMP","display":"inpatient encounter"},"type":[{"coding":[{"system":"http://snomed.info/sct","code":"8715000"}]}],"subject":{"reference":"Patient/b2cb7909-8a02-46ad-8bc9-4154902fee43"},"period":{"start":"2026-06-08T08:00:00.000+00:00","end":"2026-06-10T08:15:00.000+00:00"},"length":{"value":2,"unit":"days"},"reasonReference":[{"reference":"Condition/cfe437ae-80d2-407c-92fb-967d347150c8"}]},"request":{"method":"PUT","url":"Encounter/3a7c8981-522b-4aa6-847a-7863bafe9e5c"}},{"resource":{"resourceType":"Organization","id":"c5d97db5-a534-423e-8de3-2242568a577e","meta":{"profile":["http://hl7.org/fhir/us/qicore/StructureDefinition/qicore-organization"]},"identifier":[{"use":"temp","system":"urn:oid:2.16.840.1.113883.4.4","value":"21-3259825"}],"active":true,"type":[{"coding":[{"system":"http://terminology.hl7.org/CodeSystem/organization-type","code":"pay","display":"Payer"}]}],"name":"Blue Cross Blue Shield of Texas","telecom":[{"system":"phone","value":"(+1) 972-766-6900"}],"address":[{"use":"billing","type":"postal","line":["P.O. Box 660044"],"city":"Dallas","state":"TX","postalCode":"75266-0044","country":"USA"}]},"request":{"method":"PUT","url":"Organization/c5d97db5-a534-423e-8de3-2242568a577e"}},{"resource":{"resourceType":"Coverage","id":"5f5f9e561c76ba674bb03403","meta":{"profile":["http://hl7.org/fhir/us/qicore/StructureDefinition/qicore-coverage"]},"status":"active","subscriberId":"523435","beneficiary":{"reference":"Patient/b2cb7909-8a02-46ad-8bc9-4154902fee43"},"relationship":{"coding":[{"system":"http://terminology.hl7.org/CodeSystem/subscriber-relationship","code":"self"}]},"period":{"start":"1986-02-14T08:00:00.000+00:00"},"payor":[{"reference":"Organization/c5d97db5-a534-423e-8de3-2242568a577e"}]},"request":{"method":"PUT","url":"Coverage/5f5f9e561c76ba674bb03403"}},{"resource":{"resourceType":"MeasureReport","id":"a9074229-59a0-4850-99f9-097bf2936f71","meta":{"profile":["http://hl7.org/fhir/us/cqfmeasures/StructureDefinition/test-case-cqfm"]},"contained":[{"resourceType":"Parameters","id":"2a651c06-07cd-4127-9580-18d085df980b-parameters","parameter":[{"name":"subject","valueString":"b2cb7909-8a02-46ad-8bc9-4154902fee43"}]}],"extension":[{"url":"http://hl7.org/fhir/StructureDefinition/cqf-inputParameters","valueReference":{"reference":"#2a651c06-07cd-4127-9580-18d085df980b-parameters"}},{"url":"http://hl7.org/fhir/us/cqfmeasures/StructureDefinition/cqfm-testCaseDescription","valueMarkdown":"Parity Last Result is Null but first is zero, relevant date/time same date but time less than delivery date/time\n"}],"modifierExtension":[{"url":"http://hl7.org/fhir/us/cqfmeasures/StructureDefinition/cqfm-isTestCase","valueBoolean":true}],"status":"complete","type":"individual","measure":"https://madie.cms.gov/Measure/CMS0334FHIRPCCesareanBirth","period":{"start":"2026-01-01","end":"2026-12-31"},"group":[{"id":"Group_1","population":[{"id":"InitialPopulation_1","code":{"coding":[{"system":"http://terminology.hl7.org/CodeSystem/measure-population","code":"initial-population","display":"Initial Population"}]},"count":1},{"id":"Denominator_1","code":{"coding":[{"system":"http://terminology.hl7.org/CodeSystem/measure-population","code":"denominator","display":"Denominator"}]},"count":1},{"id":"DenominatorExclusion_1","code":{"coding":[{"system":"http://terminology.hl7.org/CodeSystem/measure-population","code":"denominator-exclusion","display":"Denominator Exclusion"}]},"count":0},{"id":"Numerator_1","code":{"coding":[{"system":"http://terminology.hl7.org/CodeSystem/measure-population","code":"numerator","display":"Numerator"}]},"count":1}],"measureScore":{"value":0.0}}],"evaluatedResource":[{"reference":"Patient/b2cb7909-8a02-46ad-8bc9-4154902fee43"},{"reference":"Observation/f0a71565-27d7-439c-afd0-3cf379dfa341"},{"reference":"Observation/03328700-7701-443f-8d88-ccdc01b6dbc6"},{"reference":"Observation/c315ad6f-5ad9-48b5-9f3f-1957d191e9c3"},{"reference":"Observation/7ba9ba6c-f93a-4892-8859-1b847d51f875"},{"reference":"Observation/fec105d7-e329-4f92-8107-08e2d680690b"},{"reference":"Encounter/3a7c8981-522b-4aa6-847a-7863bafe9e5c"},{"reference":"Coverage/5f5f9e561c76ba674bb03403"},{"reference":"Procedure/3fa172d3-273c-4f5e-9b8c-48afdebff87f"},{"reference":"Condition/cfe437ae-80d2-407c-92fb-967d347150c8"},{"reference":"Organization/c5d97db5-a534-423e-8de3-2242568a577e"},{"reference":"Practitioner/cbef3e42-be33-40dd-8cc9-2e389cea7d3a"}]},"request":{"method":"PUT","url":"MeasureReport/a9074229-59a0-4850-99f9-097bf2936f71"}},{"resource":{"resourceType":"Practitioner","id":"cbef3e42-be33-40dd-8cc9-2e389cea7d3a","meta":{"profile":["http://hl7.org/fhir/us/qicore/StructureDefinition/qicore-practitioner"]},"identifier":[{"system":"http://hl7.org/fhir/sid/us-npi","value":"1234567890"}],"name":[{"family":"Evil","prefix":["Dr"]}]},"request":{"method":"PUT","url":"Practitioner/cbef3e42-be33-40dd-8cc9-2e389cea7d3a"}},{"resource":{"resourceType":"Observation","id":"fec105d7-e329-4f92-8107-08e2d680690b","meta":{"profile":["http://hl7.org/fhir/us/qicore/StructureDefinition/qicore-simple-observation"]},"status":"final","category":[{"coding":[{"system":"http://terminology.hl7.org/CodeSystem/observation-category","code":"exam","display":"exam","userSelected":true}]}],"code":{"coding":[{"system":"http://loinc.org","code":"11977-6"}]},"subject":{"reference":"Patient/b2cb7909-8a02-46ad-8bc9-4154902fee43"},"effectivePeriod":{"start":"2026-05-11T08:00:00.000+00:00","end":"2026-05-11T08:15:00.000+00:00"},"issued":"2026-05-11T08:00:00.000+00:00"},"request":{"method":"PUT","url":"Observation/fec105d7-e329-4f92-8107-08e2d680690b"}},{"resource":{"resourceType":"Procedure","id":"3fa172d3-273c-4f5e-9b8c-48afdebff87f","meta":{"profile":["http://hl7.org/fhir/us/qicore/StructureDefinition/qicore-procedure"]},"extension":[{"url":"http://hl7.org/fhir/us/qicore/StructureDefinition/qicore-recorded","valueDateTime":"2014-04-05T13:35:00.000+00:00"}],"status":"completed","code":{"coding":[{"system":"http://www.cms.gov/Medicare/Coding/ICD10","code":"10D00Z0"},{"system":"http://snomed.info/sct","code":"4504004"}]},"subject":{"reference":"Patient/b2cb7909-8a02-46ad-8bc9-4154902fee43"},"performedPeriod":{"start":"2026-06-08T20:00:00.000+00:00","end":"2026-06-08T20:15:00.000+00:00"}},"request":{"method":"PUT","url":"Procedure/3fa172d3-273c-4f5e-9b8c-48afdebff87f"}},{"resource":{"resourceType":"Observation","id":"f0a71565-27d7-439c-afd0-3cf379dfa341","meta":{"profile":["http://hl7.org/fhir/us/qicore/StructureDefinition/qicore-simple-observation"]},"status":"final","category":[{"coding":[{"system":"http://terminology.hl7.org/CodeSystem/observation-category","code":"exam","display":"exam","userSelected":true}]}],"code":{"coding":[{"system":"http://loinc.org","code":"11977-6"}]},"subject":{"reference":"Patient/b2cb7909-8a02-46ad-8bc9-4154902fee43"},"effectiveDateTime":"2026-06-08T18:00:00.000+00:00","valueInteger":0},"request":{"method":"PUT","url":"Observation/f0a71565-27d7-439c-afd0-3cf379dfa341"}}]}