{"resourceType":"Bundle","id":"tests-a8a9f09f-168b-4548-b18a-cb65f30fdb24-bundle","type":"transaction","entry":[{"resource":{"resourceType":"Coverage","id":"77b42fe5-dabf-43ea-b8ff-20cd20bb06a4","meta":{"profile":["http://hl7.org/fhir/us/qicore/StructureDefinition/qicore-coverage"]},"status":"active","subscriberId":"523435","beneficiary":{"reference":"Patient/a8a9f09f-168b-4548-b18a-cb65f30fdb24"},"relationship":{"coding":[{"system":"http://terminology.hl7.org/CodeSystem/subscriber-relationship","code":"self"}]},"payor":[{"reference":"Organization/503c6f6d-511d-4ee4-a16e-edf690f979b5"}]},"request":{"method":"PUT","url":"Coverage/77b42fe5-dabf-43ea-b8ff-20cd20bb06a4"}},{"resource":{"resourceType":"Procedure","id":"628960f0-df1f-4146-95b6-d066932f967d","meta":{"profile":["http://hl7.org/fhir/us/qicore/StructureDefinition/qicore-procedure"]},"extension":[{"url":"http://hl7.org/fhir/us/qicore/StructureDefinition/qicore-recorded","valueDateTime":"2014-04-05T13:35:00.000+00:00"}],"status":"completed","code":{"coding":[{"system":"http://snomed.info/sct","code":"22633006"}]},"subject":{"reference":"Patient/a8a9f09f-168b-4548-b18a-cb65f30fdb24"},"performedPeriod":{"start":"2026-11-28T20:00:00.000+00:00","end":"2026-11-28T20:15:00.000+00:00"}},"request":{"method":"PUT","url":"Procedure/628960f0-df1f-4146-95b6-d066932f967d"}},{"resource":{"resourceType":"Observation","id":"9db10459-205f-4308-8659-c01c0c3884b0","meta":{"profile":["http://hl7.org/fhir/us/qicore/StructureDefinition/qicore-simple-observation"]},"status":"final","category":[{"coding":[{"system":"http://terminology.hl7.org/CodeSystem/observation-category","code":"exam","display":"exam","userSelected":true}]}],"code":{"coding":[{"system":"http://loinc.org","code":"11996-6"}]},"subject":{"reference":"Patient/a8a9f09f-168b-4548-b18a-cb65f30fdb24"},"effectiveDateTime":"2026-03-09T08:00:00.000+00:00","valueInteger":1},"request":{"method":"PUT","url":"Observation/9db10459-205f-4308-8659-c01c0c3884b0"}},{"resource":{"resourceType":"Practitioner","id":"c199a265-5b35-4dd0-9c6c-727a0f6e908e","meta":{"profile":["http://hl7.org/fhir/us/qicore/StructureDefinition/qicore-practitioner"]},"identifier":[{"system":"http://hl7.org/fhir/sid/us-npi","value":"1234567890"}],"name":[{"family":"Evil","prefix":["Dr"]}]},"request":{"method":"PUT","url":"Practitioner/c199a265-5b35-4dd0-9c6c-727a0f6e908e"}},{"resource":{"resourceType":"Bundle","id":"63487c300968f801225401c5","type":"transaction","entry":[{"fullUrl":"https://madie.cms.gov/Patient/a8a9f09f-168b-4548-b18a-cb65f30fdb24","resource":{"resourceType":"Patient","id":"a8a9f09f-168b-4548-b18a-cb65f30fdb24","meta":{"profile":["http://hl7.org/fhir/us/qicore/StructureDefinition/qicore-patient"]},"text":{"status":"generated","div":"<div xmlns=\"http://www.w3.org/1999/xhtml\"><div class=\"hapiHeaderText\">AssessTimeOfDelivResultEQDelivEncEnd <b>DENPASS </b></div><table class=\"hapiPropertyTable\"><tbody><tr><td>Identifier</td><td>71189d70ba3427612f2a418107466ed1652ec9a0e76c1b9c30a1691a1d91b34c</td></tr><tr><td>Date of birth</td><td><span>14 February 1985</span></td></tr></tbody></table></div>"},"extension":[{"url":"http://hl7.org/fhir/us/core/StructureDefinition/us-core-race","extension":[{"url":"ombCategory","valueCoding":{"system":"urn:oid:2.16.840.1.113883.6.238","code":"1002-5","display":"American Indian or Alaska Native","userSelected":true}},{"url":"text","valueString":"American Indian or Alaska Native"}]},{"url":"http://hl7.org/fhir/us/core/StructureDefinition/us-core-ethnicity","extension":[{"url":"ombCategory","valueCoding":{"system":"urn:oid:2.16.840.1.113883.6.238","code":"2135-2","display":"Hispanic or Latino","userSelected":true}},{"url":"text","valueString":"Hispanic or Latino"}]}],"identifier":[{"type":{"coding":[{"system":"http://terminology.hl7.org/CodeSystem/v2-0203","code":"MR"}]},"system":"https://bonnie-fhir.healthit.gov/","value":"63487c300968f801225401c5"}],"active":true,"name":[{"use":"usual","family":"DENPass","given":["AssessTimeOfDelivResultEQDelivEncEnd"]}],"gender":"female","birthDate":"1998-02-14"},"request":{"method":"PUT","url":"Patient/a8a9f09f-168b-4548-b18a-cb65f30fdb24"}},{"fullUrl":"https://madie.cms.gov/Observation/9db10459-205f-4308-8659-c01c0c3884b0","resource":{"resourceType":"Observation","id":"9db10459-205f-4308-8659-c01c0c3884b0","meta":{"profile":["http://hl7.org/fhir/us/qicore/StructureDefinition/qicore-simple-observation"]},"status":"final","category":[{"coding":[{"system":"http://terminology.hl7.org/CodeSystem/observation-category","code":"exam","display":"exam","userSelected":true}]}],"code":{"coding":[{"system":"http://loinc.org","code":"11996-6"}]},"subject":{"reference":"Patient/a8a9f09f-168b-4548-b18a-cb65f30fdb24"},"effectiveDateTime":"2026-03-09T08:00:00.000+00:00","valueInteger":1},"request":{"method":"PUT","url":"Observation/9db10459-205f-4308-8659-c01c0c3884b0"}},{"fullUrl":"https://madie.cms.gov/Observation/a7e97217-6821-4a19-bc64-8d3a5dac974a","resource":{"resourceType":"Observation","id":"a7e97217-6821-4a19-bc64-8d3a5dac974a","meta":{"profile":["http://hl7.org/fhir/us/qicore/StructureDefinition/qicore-simple-observation"]},"status":"final","category":[{"coding":[{"system":"http://terminology.hl7.org/CodeSystem/observation-category","code":"exam","display":"exam","userSelected":true}]}],"code":{"coding":[{"system":"http://loinc.org","code":"11884-4"}]},"subject":{"reference":"Patient/a8a9f09f-168b-4548-b18a-cb65f30fdb24"},"effectiveDateTime":"2026-11-30T08:00:00.000+00:00","valueQuantity":{"value":40,"system":"http://unitsofmeasure.org","code":"wk"}},"request":{"method":"PUT","url":"Observation/a7e97217-6821-4a19-bc64-8d3a5dac974a"}},{"fullUrl":"https://madie.cms.gov/Observation/a917ffde-cfae-4cd2-9538-5b06186e2901","resource":{"resourceType":"Observation","id":"a917ffde-cfae-4cd2-9538-5b06186e2901","meta":{"profile":["http://hl7.org/fhir/us/qicore/StructureDefinition/qicore-simple-observation"]},"status":"final","category":[{"coding":[{"system":"http://terminology.hl7.org/CodeSystem/observation-category","code":"exam","display":"exam","userSelected":true}]}],"code":{"coding":[{"system":"http://loinc.org","code":"93857-1"}]},"subject":{"reference":"Patient/a8a9f09f-168b-4548-b18a-cb65f30fdb24"},"effectiveDateTime":"2026-11-28T21:30:00.000+00:00","valueDateTime":"2026-11-30T08:15:00.000+00:00"},"request":{"method":"PUT","url":"Observation/a917ffde-cfae-4cd2-9538-5b06186e2901"}},{"fullUrl":"https://madie.cms.gov/Encounter/24f3151a-08a3-45d4-b34c-04f2b811374b","resource":{"resourceType":"Encounter","id":"24f3151a-08a3-45d4-b34c-04f2b811374b","meta":{"profile":["http://hl7.org/fhir/us/qicore/StructureDefinition/qicore-encounter"]},"status":"finished","class":{"system":"http://terminology.hl7.org/CodeSystem/v3-ActCode","code":"IMP","display":"inpatient encounter"},"type":[{"coding":[{"system":"http://snomed.info/sct","code":"8715000"}]}],"subject":{"reference":"Patient/a8a9f09f-168b-4548-b18a-cb65f30fdb24"},"period":{"start":"2026-11-28T08:00:00.000+00:00","end":"2026-11-30T08:15:00.000+00:00"},"length":{"value":2,"unit":"days"},"reasonReference":[{"reference":"Condition/4bfa69ef-8b72-4c52-8173-e73a66fb4d5e"}]},"request":{"method":"PUT","url":"Encounter/24f3151a-08a3-45d4-b34c-04f2b811374b"}},{"fullUrl":"https://madie.cms.gov/Procedure/628960f0-df1f-4146-95b6-d066932f967d","resource":{"resourceType":"Procedure","id":"628960f0-df1f-4146-95b6-d066932f967d","meta":{"profile":["http://hl7.org/fhir/us/qicore/StructureDefinition/qicore-procedure"]},"extension":[{"url":"http://hl7.org/fhir/us/qicore/StructureDefinition/qicore-recorded","valueDateTime":"2014-04-05T13:35:00.000+00:00"}],"status":"completed","code":{"coding":[{"system":"http://snomed.info/sct","code":"22633006"}]},"subject":{"reference":"Patient/a8a9f09f-168b-4548-b18a-cb65f30fdb24"},"performedPeriod":{"start":"2026-11-28T20:00:00.000+00:00","end":"2026-11-28T20:15:00.000+00:00"}},"request":{"method":"PUT","url":"Procedure/628960f0-df1f-4146-95b6-d066932f967d"}},{"fullUrl":"https://madie.cms.gov/Condition/4bfa69ef-8b72-4c52-8173-e73a66fb4d5e","resource":{"resourceType":"Condition","id":"4bfa69ef-8b72-4c52-8173-e73a66fb4d5e","meta":{"profile":["http://hl7.org/fhir/us/qicore/StructureDefinition/qicore-condition-encounter-diagnosis"]},"category":[{"coding":[{"system":"http://terminology.hl7.org/CodeSystem/condition-category","code":"encounter-diagnosis","display":"Encounter Diagnosis"}]}],"code":{"coding":[{"system":"http://snomed.info/sct","version":"2022-09","code":"169826009","display":"Single live birth from singleton pregnancy (finding)","userSelected":true}]},"subject":{"reference":"Patient/a8a9f09f-168b-4548-b18a-cb65f30fdb24"},"encounter":{"reference":"Encounter/24f3151a-08a3-45d4-b34c-04f2b811374b"},"recordedDate":"2026-10-20T08:00:00.000+00:00"},"request":{"method":"PUT","url":"Condition/4bfa69ef-8b72-4c52-8173-e73a66fb4d5e"}},{"fullUrl":"https://madie.cms.gov/Coverage/77b42fe5-dabf-43ea-b8ff-20cd20bb06a4","resource":{"resourceType":"Coverage","id":"77b42fe5-dabf-43ea-b8ff-20cd20bb06a4","meta":{"profile":["http://hl7.org/fhir/us/qicore/StructureDefinition/qicore-coverage"]},"status":"active","subscriberId":"523435","beneficiary":{"reference":"Patient/a8a9f09f-168b-4548-b18a-cb65f30fdb24"},"relationship":{"coding":[{"system":"http://terminology.hl7.org/CodeSystem/subscriber-relationship","code":"self"}]},"payor":[{"reference":"Organization/503c6f6d-511d-4ee4-a16e-edf690f979b5"}]},"request":{"method":"PUT","url":"Coverage/77b42fe5-dabf-43ea-b8ff-20cd20bb06a4"}},{"fullUrl":"https://madie.cms.gov/Organization/503c6f6d-511d-4ee4-a16e-edf690f979b5","resource":{"resourceType":"Organization","id":"503c6f6d-511d-4ee4-a16e-edf690f979b5","meta":{"profile":["http://hl7.org/fhir/us/qicore/StructureDefinition/qicore-organization"]},"identifier":[{"use":"temp","system":"urn:oid:2.16.840.1.113883.4.4","value":"21-3259825"}],"active":true,"type":[{"coding":[{"system":"http://terminology.hl7.org/CodeSystem/organization-type","code":"pay","display":"Payer"}]}],"name":"Blue Cross Blue Shield of Texas","telecom":[{"system":"phone","value":"(+1) 972-766-6900"}],"address":[{"use":"billing","type":"postal","line":["P.O. Box 660044"],"city":"Dallas","state":"TX","postalCode":"75266-0044","country":"USA"}]},"request":{"method":"PUT","url":"Organization/503c6f6d-511d-4ee4-a16e-edf690f979b5"}},{"fullUrl":"https://madie.cms.gov/Practitioner/c199a265-5b35-4dd0-9c6c-727a0f6e908e","resource":{"resourceType":"Practitioner","id":"c199a265-5b35-4dd0-9c6c-727a0f6e908e","meta":{"profile":["http://hl7.org/fhir/us/qicore/StructureDefinition/qicore-practitioner"]},"identifier":[{"system":"http://hl7.org/fhir/sid/us-npi","value":"1234567890"}],"name":[{"family":"Evil","prefix":["Dr"]}]},"request":{"method":"PUT","url":"Practitioner/c199a265-5b35-4dd0-9c6c-727a0f6e908e"}},{"fullUrl":"https://madie.cms.gov/MeasureReport/6b3c9185-1e23-4b0d-af26-240c989dda90","resource":{"resourceType":"MeasureReport","id":"6b3c9185-1e23-4b0d-af26-240c989dda90","meta":{"profile":["http://hl7.org/fhir/us/cqfmeasures/StructureDefinition/test-case-cqfm"]},"contained":[{"resourceType":"Parameters","id":"80e6a8a6-09ea-492c-9564-a83cd6501be2-parameters","parameter":[{"name":"subject","valueString":"a8a9f09f-168b-4548-b18a-cb65f30fdb24"}]}],"extension":[{"url":"http://hl7.org/fhir/StructureDefinition/cqf-inputParameters","valueReference":{"reference":"#80e6a8a6-09ea-492c-9564-a83cd6501be2-parameters"}},{"url":"http://hl7.org/fhir/us/cqfmeasures/StructureDefinition/cqfm-testCaseDescription","valueMarkdown":"Passes IP, Passes DENOM but fails NUM; Gravida 1(auth 42 weeks)  and EGA 40 weeks;  Proc is not Cesarean Birth. LastTimeOfDelivery result equals Delivery Encounter EndTime.   \n"}],"modifierExtension":[{"url":"http://hl7.org/fhir/us/cqfmeasures/StructureDefinition/cqfm-isTestCase","valueBoolean":true}],"status":"complete","type":"individual","measure":"https://madie.cms.gov/Measure/CMS0334FHIRPCCesareanBirth","period":{"start":"2026-01-01","end":"2026-12-31"},"group":[{"id":"Group_1","population":[{"id":"InitialPopulation_1","code":{"coding":[{"system":"http://terminology.hl7.org/CodeSystem/measure-population","code":"initial-population","display":"Initial Population"}]},"count":1},{"id":"Denominator_1","code":{"coding":[{"system":"http://terminology.hl7.org/CodeSystem/measure-population","code":"denominator","display":"Denominator"}]},"count":1},{"id":"DenominatorExclusion_1","code":{"coding":[{"system":"http://terminology.hl7.org/CodeSystem/measure-population","code":"denominator-exclusion","display":"Denominator Exclusion"}]},"count":0},{"id":"Numerator_1","code":{"coding":[{"system":"http://terminology.hl7.org/CodeSystem/measure-population","code":"numerator","display":"Numerator"}]},"count":0}],"measureScore":{"value":0.0}}],"evaluatedResource":[{"reference":"Patient/a8a9f09f-168b-4548-b18a-cb65f30fdb24"},{"reference":"Observation/9db10459-205f-4308-8659-c01c0c3884b0"},{"reference":"Observation/a7e97217-6821-4a19-bc64-8d3a5dac974a"},{"reference":"Observation/a917ffde-cfae-4cd2-9538-5b06186e2901"},{"reference":"Encounter/24f3151a-08a3-45d4-b34c-04f2b811374b"},{"reference":"Procedure/628960f0-df1f-4146-95b6-d066932f967d"},{"reference":"Condition/4bfa69ef-8b72-4c52-8173-e73a66fb4d5e"},{"reference":"Coverage/77b42fe5-dabf-43ea-b8ff-20cd20bb06a4"},{"reference":"Organization/503c6f6d-511d-4ee4-a16e-edf690f979b5"},{"reference":"Practitioner/c199a265-5b35-4dd0-9c6c-727a0f6e908e"}]},"request":{"method":"PUT","url":"MeasureReport/6b3c9185-1e23-4b0d-af26-240c989dda90"}}]},"request":{"method":"PUT","url":"Bundle/63487c300968f801225401c5"}},{"resource":{"resourceType":"Encounter","id":"24f3151a-08a3-45d4-b34c-04f2b811374b","meta":{"profile":["http://hl7.org/fhir/us/qicore/StructureDefinition/qicore-encounter"]},"status":"finished","class":{"system":"http://terminology.hl7.org/CodeSystem/v3-ActCode","code":"IMP","display":"inpatient encounter"},"type":[{"coding":[{"system":"http://snomed.info/sct","code":"8715000"}]}],"subject":{"reference":"Patient/a8a9f09f-168b-4548-b18a-cb65f30fdb24"},"period":{"start":"2026-11-28T08:00:00.000+00:00","end":"2026-11-30T08:15:00.000+00:00"},"length":{"value":2,"unit":"days"},"reasonReference":[{"reference":"Condition/4bfa69ef-8b72-4c52-8173-e73a66fb4d5e"}]},"request":{"method":"PUT","url":"Encounter/24f3151a-08a3-45d4-b34c-04f2b811374b"}},{"resource":{"resourceType":"Condition","id":"4bfa69ef-8b72-4c52-8173-e73a66fb4d5e","meta":{"profile":["http://hl7.org/fhir/us/qicore/StructureDefinition/qicore-condition-encounter-diagnosis"]},"category":[{"coding":[{"system":"http://terminology.hl7.org/CodeSystem/condition-category","code":"encounter-diagnosis","display":"Encounter Diagnosis"}]}],"code":{"coding":[{"system":"http://snomed.info/sct","version":"2022-09","code":"169826009","display":"Single live birth from singleton pregnancy (finding)","userSelected":true}]},"subject":{"reference":"Patient/a8a9f09f-168b-4548-b18a-cb65f30fdb24"},"encounter":{"reference":"Encounter/24f3151a-08a3-45d4-b34c-04f2b811374b"},"recordedDate":"2026-10-20T08:00:00.000+00:00"},"request":{"method":"PUT","url":"Condition/4bfa69ef-8b72-4c52-8173-e73a66fb4d5e"}},{"resource":{"resourceType":"Observation","id":"a917ffde-cfae-4cd2-9538-5b06186e2901","meta":{"profile":["http://hl7.org/fhir/us/qicore/StructureDefinition/qicore-simple-observation"]},"status":"final","category":[{"coding":[{"system":"http://terminology.hl7.org/CodeSystem/observation-category","code":"exam","display":"exam","userSelected":true}]}],"code":{"coding":[{"system":"http://loinc.org","code":"93857-1"}]},"subject":{"reference":"Patient/a8a9f09f-168b-4548-b18a-cb65f30fdb24"},"effectiveDateTime":"2026-11-28T21:30:00.000+00:00","valueDateTime":"2026-11-30T08:15:00.000+00:00"},"request":{"method":"PUT","url":"Observation/a917ffde-cfae-4cd2-9538-5b06186e2901"}},{"resource":{"resourceType":"Organization","id":"503c6f6d-511d-4ee4-a16e-edf690f979b5","meta":{"profile":["http://hl7.org/fhir/us/qicore/StructureDefinition/qicore-organization"]},"identifier":[{"use":"temp","system":"urn:oid:2.16.840.1.113883.4.4","value":"21-3259825"}],"active":true,"type":[{"coding":[{"system":"http://terminology.hl7.org/CodeSystem/organization-type","code":"pay","display":"Payer"}]}],"name":"Blue Cross Blue Shield of Texas","telecom":[{"system":"phone","value":"(+1) 972-766-6900"}],"address":[{"use":"billing","type":"postal","line":["P.O. Box 660044"],"city":"Dallas","state":"TX","postalCode":"75266-0044","country":"USA"}]},"request":{"method":"PUT","url":"Organization/503c6f6d-511d-4ee4-a16e-edf690f979b5"}},{"resource":{"resourceType":"MeasureReport","id":"6b3c9185-1e23-4b0d-af26-240c989dda90","meta":{"profile":["http://hl7.org/fhir/us/cqfmeasures/StructureDefinition/test-case-cqfm"]},"contained":[{"resourceType":"Parameters","id":"80e6a8a6-09ea-492c-9564-a83cd6501be2-parameters","parameter":[{"name":"subject","valueString":"a8a9f09f-168b-4548-b18a-cb65f30fdb24"}]}],"extension":[{"url":"http://hl7.org/fhir/StructureDefinition/cqf-inputParameters","valueReference":{"reference":"#80e6a8a6-09ea-492c-9564-a83cd6501be2-parameters"}},{"url":"http://hl7.org/fhir/us/cqfmeasures/StructureDefinition/cqfm-testCaseDescription","valueMarkdown":"Passes IP, Passes DENOM but fails NUM; Gravida 1(auth 42 weeks)  and EGA 40 weeks;  Proc is not Cesarean Birth. LastTimeOfDelivery result equals Delivery Encounter EndTime.   \n"}],"modifierExtension":[{"url":"http://hl7.org/fhir/us/cqfmeasures/StructureDefinition/cqfm-isTestCase","valueBoolean":true}],"status":"complete","type":"individual","measure":"https://madie.cms.gov/Measure/CMS0334FHIRPCCesareanBirth","period":{"start":"2026-01-01","end":"2026-12-31"},"group":[{"id":"Group_1","population":[{"id":"InitialPopulation_1","code":{"coding":[{"system":"http://terminology.hl7.org/CodeSystem/measure-population","code":"initial-population","display":"Initial Population"}]},"count":1},{"id":"Denominator_1","code":{"coding":[{"system":"http://terminology.hl7.org/CodeSystem/measure-population","code":"denominator","display":"Denominator"}]},"count":1},{"id":"DenominatorExclusion_1","code":{"coding":[{"system":"http://terminology.hl7.org/CodeSystem/measure-population","code":"denominator-exclusion","display":"Denominator Exclusion"}]},"count":0},{"id":"Numerator_1","code":{"coding":[{"system":"http://terminology.hl7.org/CodeSystem/measure-population","code":"numerator","display":"Numerator"}]},"count":0}],"measureScore":{"value":0.0}}],"evaluatedResource":[{"reference":"Patient/a8a9f09f-168b-4548-b18a-cb65f30fdb24"},{"reference":"Observation/9db10459-205f-4308-8659-c01c0c3884b0"},{"reference":"Observation/a7e97217-6821-4a19-bc64-8d3a5dac974a"},{"reference":"Observation/a917ffde-cfae-4cd2-9538-5b06186e2901"},{"reference":"Encounter/24f3151a-08a3-45d4-b34c-04f2b811374b"},{"reference":"Procedure/628960f0-df1f-4146-95b6-d066932f967d"},{"reference":"Condition/4bfa69ef-8b72-4c52-8173-e73a66fb4d5e"},{"reference":"Coverage/77b42fe5-dabf-43ea-b8ff-20cd20bb06a4"},{"reference":"Organization/503c6f6d-511d-4ee4-a16e-edf690f979b5"},{"reference":"Practitioner/c199a265-5b35-4dd0-9c6c-727a0f6e908e"}]},"request":{"method":"PUT","url":"MeasureReport/6b3c9185-1e23-4b0d-af26-240c989dda90"}},{"resource":{"resourceType":"Patient","id":"a8a9f09f-168b-4548-b18a-cb65f30fdb24","meta":{"profile":["http://hl7.org/fhir/us/qicore/StructureDefinition/qicore-patient"]},"text":{"status":"generated","div":"<div xmlns=\"http://www.w3.org/1999/xhtml\"><div class=\"hapiHeaderText\">AssessTimeOfDelivResultEQDelivEncEnd <b>DENPASS </b></div><table class=\"hapiPropertyTable\"><tbody><tr><td>Identifier</td><td>71189d70ba3427612f2a418107466ed1652ec9a0e76c1b9c30a1691a1d91b34c</td></tr><tr><td>Date of birth</td><td><span>14 February 1985</span></td></tr></tbody></table></div>"},"extension":[{"url":"http://hl7.org/fhir/us/core/StructureDefinition/us-core-race","extension":[{"url":"ombCategory","valueCoding":{"system":"urn:oid:2.16.840.1.113883.6.238","code":"1002-5","display":"American Indian or Alaska Native","userSelected":true}},{"url":"text","valueString":"American Indian or Alaska Native"}]},{"url":"http://hl7.org/fhir/us/core/StructureDefinition/us-core-ethnicity","extension":[{"url":"ombCategory","valueCoding":{"system":"urn:oid:2.16.840.1.113883.6.238","code":"2135-2","display":"Hispanic or Latino","userSelected":true}},{"url":"text","valueString":"Hispanic or Latino"}]}],"identifier":[{"type":{"coding":[{"system":"http://terminology.hl7.org/CodeSystem/v2-0203","code":"MR"}]},"system":"https://bonnie-fhir.healthit.gov/","value":"63487c300968f801225401c5"}],"active":true,"name":[{"use":"usual","family":"DENPass","given":["AssessTimeOfDelivResultEQDelivEncEnd"]}],"gender":"female","birthDate":"1998-02-14"},"request":{"method":"PUT","url":"Patient/a8a9f09f-168b-4548-b18a-cb65f30fdb24"}},{"resource":{"resourceType":"Observation","id":"a7e97217-6821-4a19-bc64-8d3a5dac974a","meta":{"profile":["http://hl7.org/fhir/us/qicore/StructureDefinition/qicore-simple-observation"]},"status":"final","category":[{"coding":[{"system":"http://terminology.hl7.org/CodeSystem/observation-category","code":"exam","display":"exam","userSelected":true}]}],"code":{"coding":[{"system":"http://loinc.org","code":"11884-4"}]},"subject":{"reference":"Patient/a8a9f09f-168b-4548-b18a-cb65f30fdb24"},"effectiveDateTime":"2026-11-30T08:00:00.000+00:00","valueQuantity":{"value":40,"system":"http://unitsofmeasure.org","code":"wk"}},"request":{"method":"PUT","url":"Observation/a7e97217-6821-4a19-bc64-8d3a5dac974a"}}]}