{
  "resourceType": "Bundle",
  "id": "63232f15414ba67d4e1d1c29",
  "type": "transaction",
  "entry": [ {
    "fullUrl": "https://madie.cms.gov/Patient/b92d0b5a-a019-4023-9e0b-50a0e5248d07",
    "resource": {
      "resourceType": "Patient",
      "id": "b92d0b5a-a019-4023-9e0b-50a0e5248d07",
      "meta": {
        "profile": [ "http://hl7.org/fhir/us/qicore/StructureDefinition/qicore-patient" ]
      },
      "extension": [ {
        "url": "http://hl7.org/fhir/us/core/StructureDefinition/us-core-race",
        "extension": [ {
          "url": "ombCategory",
          "valueCoding": {
            "system": "urn:oid:2.16.840.1.113883.6.238",
            "code": "1002-5",
            "display": "American Indian or Alaska Native",
            "userSelected": true
          }
        }, {
          "url": "text",
          "valueString": "American Indian or Alaska Native"
        } ]
      }, {
        "url": "http://hl7.org/fhir/us/core/StructureDefinition/us-core-ethnicity",
        "extension": [ {
          "url": "ombCategory",
          "valueCoding": {
            "system": "urn:oid:2.16.840.1.113883.6.238",
            "code": "2135-2",
            "display": "Hispanic or Latino",
            "userSelected": true
          }
        }, {
          "url": "text",
          "valueString": "Hispanic or Latino"
        } ]
      } ],
      "identifier": [ {
        "type": {
          "coding": [ {
            "system": "http://terminology.hl7.org/CodeSystem/v2-0203",
            "code": "MR"
          } ]
        },
        "system": "https://bonnie-fhir.healthit.gov/",
        "value": "63232f15414ba67d4e1d1c29"
      } ],
      "name": [ {
        "family": "DENEXPass",
        "given": [ "ProcedurePalliativeCare" ]
      } ],
      "gender": "male",
      "birthDate": "2006-12-31"
    },
    "request": {
      "method": "PUT",
      "url": "Patient/b92d0b5a-a019-4023-9e0b-50a0e5248d07"
    }
  }, {
    "fullUrl": "https://madie.cms.gov/Encounter/08d8d55a-1db6-467b-afe5-c21f19a3d9d0",
    "resource": {
      "resourceType": "Encounter",
      "id": "08d8d55a-1db6-467b-afe5-c21f19a3d9d0",
      "meta": {
        "profile": [ "http://hl7.org/fhir/us/qicore/StructureDefinition/qicore-encounter" ]
      },
      "status": "finished",
      "class": {
        "system": "http://terminology.hl7.org/CodeSystem/v3-ActCode",
        "code": "IMP",
        "display": "inpatient"
      },
      "type": [ {
        "coding": [ {
          "system": "http://snomed.info/sct",
          "version": "2022-03",
          "code": "183452005",
          "display": "Emergency hospital admission (procedure)",
          "userSelected": true
        } ]
      } ],
      "subject": {
        "reference": "Patient/b92d0b5a-a019-4023-9e0b-50a0e5248d07"
      },
      "period": {
        "start": "2026-01-01T00:00:00.000+00:00",
        "end": "2026-01-03T00:35:00.000+00:00"
      }
    },
    "request": {
      "method": "PUT",
      "url": "Encounter/08d8d55a-1db6-467b-afe5-c21f19a3d9d0"
    }
  }, {
    "fullUrl": "https://madie.cms.gov/MedicationRequest/e8fe3b0b-7287-4616-b74e-43a6cbdd35ad",
    "resource": {
      "resourceType": "MedicationRequest",
      "id": "e8fe3b0b-7287-4616-b74e-43a6cbdd35ad",
      "meta": {
        "profile": [ "http://hl7.org/fhir/us/qicore/StructureDefinition/qicore-medicationrequest" ]
      },
      "status": "active",
      "intent": "order",
      "category": [ {
        "coding": [ {
          "system": "http://terminology.hl7.org/CodeSystem/medicationrequest-category",
          "code": "discharge",
          "display": "Discharge",
          "userSelected": true
        } ]
      } ],
      "doNotPerform": false,
      "medicationCodeableConcept": {
        "coding": [ {
          "system": "http://www.nlm.nih.gov/research/umls/rxnorm",
          "code": "1298088",
          "display": "flurazepam hydrochloride 15 MG Oral Capsule",
          "userSelected": true
        } ]
      },
      "subject": {
        "reference": "Patient/b92d0b5a-a019-4023-9e0b-50a0e5248d07"
      },
      "authoredOn": "2026-01-03T00:05:00.000+00:00",
      "requester": {
        "reference": "Practitioner/aeac4b36-8d7d-43df-8f9e-5b058b3df689"
      }
    },
    "request": {
      "method": "PUT",
      "url": "MedicationRequest/e8fe3b0b-7287-4616-b74e-43a6cbdd35ad"
    }
  }, {
    "fullUrl": "https://madie.cms.gov/Practitioner/aeac4b36-8d7d-43df-8f9e-5b058b3df689",
    "resource": {
      "resourceType": "Practitioner",
      "id": "aeac4b36-8d7d-43df-8f9e-5b058b3df689",
      "meta": {
        "profile": [ "http://hl7.org/fhir/us/qicore/StructureDefinition/qicore-practitioner" ]
      },
      "identifier": [ {
        "system": "http://hl7.org/fhir/sid/us-npi",
        "value": "9999999896"
      } ],
      "active": true,
      "name": [ {
        "family": "Ramires",
        "given": [ "Alma" ],
        "prefix": [ "Dr" ]
      } ],
      "address": [ {
        "use": "home",
        "line": [ "534 Erewhon St" ],
        "city": "Netherville",
        "state": "IN",
        "postalCode": "46131"
      } ],
      "qualification": [ {
        "identifier": [ {
          "system": "http://goodhealth.org/prIdentifier",
          "value": "12345"
        } ],
        "code": {
          "coding": [ {
            "system": "http://terminology.hl7.org/CodeSystem/v2-0360|2.7",
            "code": "BS",
            "display": "Bachelor of Science"
          } ],
          "text": "Bachelor of Science"
        },
        "period": {
          "start": "1995"
        },
        "issuer": {
          "display": "Example University"
        }
      } ]
    },
    "request": {
      "method": "PUT",
      "url": "Practitioner/aeac4b36-8d7d-43df-8f9e-5b058b3df689"
    }
  }, {
    "fullUrl": "https://madie.cms.gov/Procedure/db24f6dc-0164-4e54-bd03-3908124d39a9",
    "resource": {
      "resourceType": "Procedure",
      "id": "db24f6dc-0164-4e54-bd03-3908124d39a9",
      "meta": {
        "profile": [ "http://hl7.org/fhir/us/qicore/StructureDefinition/qicore-procedure" ]
      },
      "extension": [ {
        "url": "http://hl7.org/fhir/us/qicore/StructureDefinition/qicore-recorded",
        "valueDateTime": "2026-01-03T00:10:00.000+00:00"
      } ],
      "status": "completed",
      "code": {
        "coding": [ {
          "system": "http://snomed.info/sct",
          "version": "2022-03",
          "code": "103735009",
          "display": "Palliative care (regime/therapy)",
          "userSelected": true
        } ]
      },
      "subject": {
        "reference": "Patient/b92d0b5a-a019-4023-9e0b-50a0e5248d07"
      },
      "performedDateTime": "2026-01-01T00:10:00.000+00:00"
    },
    "request": {
      "method": "PUT",
      "url": "Procedure/db24f6dc-0164-4e54-bd03-3908124d39a9"
    }
  }, {
    "fullUrl": "https://madie.cms.gov/Coverage/b7a53b50-0e2b-4b79-a759-95182b57896f",
    "resource": {
      "resourceType": "Coverage",
      "id": "b7a53b50-0e2b-4b79-a759-95182b57896f",
      "meta": {
        "profile": [ "http://hl7.org/fhir/us/qicore/StructureDefinition/qicore-coverage" ]
      },
      "status": "active",
      "subscriberId": "523435",
      "beneficiary": {
        "reference": "Patient/b92d0b5a-a019-4023-9e0b-50a0e5248d07"
      },
      "relationship": {
        "coding": [ {
          "system": "http://terminology.hl7.org/CodeSystem/subscriber-relationship",
          "code": "self"
        } ]
      },
      "payor": [ {
        "reference": "Organization/ffdf09cd-e680-40f3-a0d8-0e20cbe0cafd"
      } ]
    },
    "request": {
      "method": "PUT",
      "url": "Coverage/b7a53b50-0e2b-4b79-a759-95182b57896f"
    }
  }, {
    "fullUrl": "https://madie.cms.gov/Organization/ffdf09cd-e680-40f3-a0d8-0e20cbe0cafd",
    "resource": {
      "resourceType": "Organization",
      "id": "ffdf09cd-e680-40f3-a0d8-0e20cbe0cafd",
      "meta": {
        "profile": [ "http://hl7.org/fhir/us/qicore/StructureDefinition/qicore-organization" ]
      },
      "identifier": [ {
        "use": "temp",
        "system": "urn:oid:2.16.840.1.113883.4.4",
        "value": "21-3259825"
      } ],
      "active": true,
      "type": [ {
        "coding": [ {
          "system": "http://terminology.hl7.org/CodeSystem/organization-type",
          "code": "pay",
          "display": "Payer"
        } ]
      } ],
      "name": "Blue Cross Blue Shield of Texas",
      "telecom": [ {
        "system": "phone",
        "value": "(+1) 972-766-6900"
      } ],
      "address": [ {
        "use": "billing",
        "type": "postal",
        "line": [ "P.O. Box 660044" ],
        "city": "Dallas",
        "state": "TX",
        "postalCode": "75266-0044",
        "country": "USA"
      } ]
    },
    "request": {
      "method": "PUT",
      "url": "Organization/ffdf09cd-e680-40f3-a0d8-0e20cbe0cafd"
    }
  }, {
    "fullUrl": "https://madie.cms.gov/MeasureReport/055549b3-f63b-4472-9c5b-bf1b3419128e",
    "resource": {
      "resourceType": "MeasureReport",
      "id": "055549b3-f63b-4472-9c5b-bf1b3419128e",
      "meta": {
        "profile": [ "http://hl7.org/fhir/us/cqfmeasures/StructureDefinition/test-case-cqfm" ]
      },
      "contained": [ {
        "resourceType": "Parameters",
        "id": "535ce389-8d1d-44cf-af01-15bdfc8854ff-parameters",
        "parameter": [ {
          "name": "subject",
          "valueString": "b92d0b5a-a019-4023-9e0b-50a0e5248d07"
        } ]
      } ],
      "extension": [ {
        "url": "http://hl7.org/fhir/StructureDefinition/cqf-inputParameters",
        "valueReference": {
          "reference": "#535ce389-8d1d-44cf-af01-15bdfc8854ff-parameters"
        }
      }, {
        "url": "http://hl7.org/fhir/us/cqfmeasures/StructureDefinition/cqfm-testCaseDescription",
        "valueMarkdown": "Encounter 1/1 - 1/3 , age 18 one day before encounter, Procedure Palliative care performed 1/1 during enc"
      } ],
      "modifierExtension": [ {
        "url": "http://hl7.org/fhir/us/cqfmeasures/StructureDefinition/cqfm-isTestCase",
        "valueBoolean": true
      } ],
      "status": "complete",
      "type": "individual",
      "measure": "https://madie.cms.gov/Measure/CMS506FHIRSafeUseofOpioids",
      "period": {
        "start": "2026-01-01",
        "end": "2026-12-31"
      },
      "group": [ {
        "id": "Group_1",
        "population": [ {
          "id": "InitialPopulation_1",
          "code": {
            "coding": [ {
              "system": "http://terminology.hl7.org/CodeSystem/measure-population",
              "code": "initial-population",
              "display": "Initial Population"
            } ]
          },
          "count": 1
        }, {
          "id": "Denominator_1",
          "code": {
            "coding": [ {
              "system": "http://terminology.hl7.org/CodeSystem/measure-population",
              "code": "denominator",
              "display": "Denominator"
            } ]
          },
          "count": 1
        }, {
          "id": "DenominatorExclusion_1",
          "code": {
            "coding": [ {
              "system": "http://terminology.hl7.org/CodeSystem/measure-population",
              "code": "denominator-exclusion",
              "display": "Denominator Exclusion"
            } ]
          },
          "count": 1
        }, {
          "id": "Numerator_1",
          "code": {
            "coding": [ {
              "system": "http://terminology.hl7.org/CodeSystem/measure-population",
              "code": "numerator",
              "display": "Numerator"
            } ]
          },
          "count": 0
        } ],
        "measureScore": {
          "value": 0.0
        }
      } ],
      "evaluatedResource": [ {
        "reference": "Patient/b92d0b5a-a019-4023-9e0b-50a0e5248d07"
      }, {
        "reference": "Encounter/08d8d55a-1db6-467b-afe5-c21f19a3d9d0"
      }, {
        "reference": "MedicationRequest/e8fe3b0b-7287-4616-b74e-43a6cbdd35ad"
      }, {
        "reference": "Practitioner/aeac4b36-8d7d-43df-8f9e-5b058b3df689"
      }, {
        "reference": "Procedure/db24f6dc-0164-4e54-bd03-3908124d39a9"
      }, {
        "reference": "Coverage/b7a53b50-0e2b-4b79-a759-95182b57896f"
      }, {
        "reference": "Organization/ffdf09cd-e680-40f3-a0d8-0e20cbe0cafd"
      } ]
    },
    "request": {
      "method": "PUT",
      "url": "MeasureReport/055549b3-f63b-4472-9c5b-bf1b3419128e"
    }
  } ]
}