{
  "resourceType": "Bundle",
  "id": "62b1e0113968556e5150cf36",
  "type": "transaction",
  "entry": [ {
    "fullUrl": "https://madie.cms.gov/Patient/ff6f7416-7e1d-4712-b4f5-aab79b2a7c01",
    "resource": {
      "resourceType": "Patient",
      "id": "ff6f7416-7e1d-4712-b4f5-aab79b2a7c01",
      "meta": {
        "profile": [ "http://hl7.org/fhir/us/qicore/StructureDefinition/qicore-patient" ]
      },
      "extension": [ {
        "url": "http://hl7.org/fhir/us/core/StructureDefinition/us-core-race",
        "extension": [ {
          "url": "ombCategory",
          "valueCoding": {
            "system": "urn:oid:2.16.840.1.113883.6.238",
            "code": "1002-5",
            "display": "American Indian or Alaska Native",
            "userSelected": true
          }
        }, {
          "url": "text",
          "valueString": "American Indian or Alaska Native"
        } ]
      }, {
        "url": "http://hl7.org/fhir/us/core/StructureDefinition/us-core-ethnicity",
        "extension": [ {
          "url": "ombCategory",
          "valueCoding": {
            "system": "urn:oid:2.16.840.1.113883.6.238",
            "code": "2135-2",
            "display": "Hispanic or Latino",
            "userSelected": true
          }
        }, {
          "url": "text",
          "valueString": "Hispanic or Latino"
        } ]
      } ],
      "identifier": [ {
        "type": {
          "coding": [ {
            "system": "http://terminology.hl7.org/CodeSystem/v2-0203",
            "code": "MR"
          } ]
        },
        "system": "https://bonnie-fhir.healthit.gov/",
        "value": "62b1e0113968556e5150cf36"
      } ],
      "name": [ {
        "family": "NUMERPass",
        "given": [ "17yoPositiveAdolescentDepressionScreeningandMedsActive" ]
      } ],
      "gender": "male",
      "birthDate": "2009-01-01"
    },
    "request": {
      "method": "PUT",
      "url": "Patient/ff6f7416-7e1d-4712-b4f5-aab79b2a7c01"
    }
  }, {
    "fullUrl": "https://madie.cms.gov/Encounter/9c5be682-cd37-4095-ac1a-b50eea14a4bf",
    "resource": {
      "resourceType": "Encounter",
      "id": "9c5be682-cd37-4095-ac1a-b50eea14a4bf",
      "meta": {
        "profile": [ "http://hl7.org/fhir/us/qicore/StructureDefinition/qicore-encounter" ]
      },
      "status": "finished",
      "class": {
        "system": "http://terminology.hl7.org/CodeSystem/v3-ActCode",
        "code": "AMB",
        "display": "ambulatory"
      },
      "type": [ {
        "coding": [ {
          "system": "http://snomed.info/sct",
          "code": "10197000",
          "display": "Psychiatric interview and evaluation (procedure)",
          "userSelected": true
        } ]
      } ],
      "subject": {
        "reference": "Patient/ff6f7416-7e1d-4712-b4f5-aab79b2a7c01"
      },
      "period": {
        "start": "2026-06-21T08:00:00.000+00:00",
        "end": "2026-06-21T08:15:00.000+00:00"
      }
    },
    "request": {
      "method": "PUT",
      "url": "Encounter/9c5be682-cd37-4095-ac1a-b50eea14a4bf"
    }
  }, {
    "fullUrl": "https://madie.cms.gov/Observation/169c24b7-a6cd-4174-a4b2-3dda0d19fcbd",
    "resource": {
      "resourceType": "Observation",
      "id": "169c24b7-a6cd-4174-a4b2-3dda0d19fcbd",
      "meta": {
        "profile": [ "http://hl7.org/fhir/us/qicore/StructureDefinition/qicore-observation-screening-assessment" ]
      },
      "status": "final",
      "category": [ {
        "coding": [ {
          "system": "http://terminology.hl7.org/CodeSystem/observation-category",
          "code": "procedure",
          "display": "Procedure"
        } ]
      }, {
        "coding": [ {
          "system": "http://terminology.hl7.org/CodeSystem/observation-category",
          "code": "survey",
          "display": "Survey"
        } ]
      } ],
      "code": {
        "coding": [ {
          "system": "http://loinc.org",
          "code": "73831-0",
          "display": "Adolescent depression screening assessment",
          "userSelected": true
        } ]
      },
      "subject": {
        "reference": "Patient/ff6f7416-7e1d-4712-b4f5-aab79b2a7c01"
      },
      "effectiveDateTime": "2026-06-15T08:00:00.000+00:00",
      "valueCodeableConcept": {
        "coding": [ {
          "system": "http://snomed.info/sct",
          "code": "428181000124104",
          "display": "Depression screening positive (finding)",
          "userSelected": true
        } ]
      }
    },
    "request": {
      "method": "PUT",
      "url": "Observation/169c24b7-a6cd-4174-a4b2-3dda0d19fcbd"
    }
  }, {
    "fullUrl": "https://madie.cms.gov/MedicationRequest/12385d7b-909c-48ee-a5c8-4dccb0d2c5e1",
    "resource": {
      "resourceType": "MedicationRequest",
      "id": "12385d7b-909c-48ee-a5c8-4dccb0d2c5e1",
      "meta": {
        "profile": [ "http://hl7.org/fhir/us/qicore/StructureDefinition/qicore-medicationrequest" ]
      },
      "status": "active",
      "intent": "order",
      "doNotPerform": false,
      "medicationCodeableConcept": {
        "coding": [ {
          "system": "http://www.nlm.nih.gov/research/umls/rxnorm",
          "code": "1190110",
          "display": "fluoxetine 60 MG Oral Tablet",
          "userSelected": true
        } ]
      },
      "subject": {
        "reference": "Patient/ff6f7416-7e1d-4712-b4f5-aab79b2a7c01"
      },
      "authoredOn": "2026-06-21T08:00:00.000+00:00",
      "requester": {
        "reference": "Practitioner/123456"
      },
      "dispenseRequest": {
        "expectedSupplyDuration": {
          "value": 30,
          "system": "http://unitsofmeasure.org",
          "code": "days"
        }
      }
    },
    "request": {
      "method": "PUT",
      "url": "MedicationRequest/12385d7b-909c-48ee-a5c8-4dccb0d2c5e1"
    }
  }, {
    "fullUrl": "https://madie.cms.gov/Coverage/f5d7e064-98bf-4862-a96f-795767d12c0d",
    "resource": {
      "resourceType": "Coverage",
      "id": "f5d7e064-98bf-4862-a96f-795767d12c0d",
      "meta": {
        "profile": [ "http://hl7.org/fhir/us/qicore/StructureDefinition/qicore-coverage" ]
      },
      "status": "active",
      "subscriberId": "123456789",
      "beneficiary": {
        "reference": "Patient/ff6f7416-7e1d-4712-b4f5-aab79b2a7c01"
      },
      "relationship": {
        "coding": [ {
          "system": "http://terminology.hl7.org/CodeSystem/subscriber-relationship",
          "code": "self",
          "display": "Self",
          "userSelected": true
        } ]
      },
      "payor": [ {
        "reference": "Organization/f4008e10-436f-457c-98ca-5b8c33e80844"
      } ]
    },
    "request": {
      "method": "PUT",
      "url": "Coverage/f5d7e064-98bf-4862-a96f-795767d12c0d"
    }
  }, {
    "fullUrl": "https://madie.cms.gov/Organization/f4008e10-436f-457c-98ca-5b8c33e80844",
    "resource": {
      "resourceType": "Organization",
      "id": "f4008e10-436f-457c-98ca-5b8c33e80844",
      "meta": {
        "profile": [ "http://hl7.org/fhir/us/qicore/StructureDefinition/qicore-organization" ]
      },
      "identifier": [ {
        "use": "temp",
        "system": "urn:oid:2.16.840.1.113883.4.4",
        "value": "21-3259825"
      } ],
      "active": true,
      "type": [ {
        "coding": [ {
          "system": "http://terminology.hl7.org/CodeSystem/organization-type",
          "code": "pay",
          "display": "Payer"
        } ]
      } ],
      "name": "Blue Cross Blue Shield of Texas",
      "telecom": [ {
        "system": "phone",
        "value": "(+1) 972-766-6900"
      } ],
      "address": [ {
        "use": "billing",
        "type": "postal",
        "line": [ "P.O. Box 660044" ],
        "city": "Dallas",
        "state": "TX",
        "postalCode": "75266-0044",
        "country": "USA"
      } ]
    },
    "request": {
      "method": "PUT",
      "url": "Organization/f4008e10-436f-457c-98ca-5b8c33e80844"
    }
  }, {
    "fullUrl": "https://madie.cms.gov/Practitioner/ced1231a-956b-41c4-be13-869a6728f45c",
    "resource": {
      "resourceType": "Practitioner",
      "id": "ced1231a-956b-41c4-be13-869a6728f45c",
      "meta": {
        "profile": [ "http://hl7.org/fhir/us/qicore/StructureDefinition/qicore-practitioner" ]
      },
      "identifier": [ {
        "system": "http://hl7.org/fhir/sid/us-npi",
        "value": "1234567893"
      } ],
      "name": [ {
        "family": "Evil",
        "prefix": [ "Dr" ]
      } ]
    },
    "request": {
      "method": "PUT",
      "url": "Practitioner/ced1231a-956b-41c4-be13-869a6728f45c"
    }
  }, {
    "fullUrl": "https://madie.cms.gov/MeasureReport/8294d162-8abb-48cc-a604-1a72a49c79cf",
    "resource": {
      "resourceType": "MeasureReport",
      "id": "8294d162-8abb-48cc-a604-1a72a49c79cf",
      "meta": {
        "profile": [ "http://hl7.org/fhir/us/cqfmeasures/StructureDefinition/test-case-cqfm" ]
      },
      "contained": [ {
        "resourceType": "Parameters",
        "id": "1dbb69b0-cbee-483a-b709-ac3d48ef071e-parameters",
        "parameter": [ {
          "name": "subject",
          "valueString": "ff6f7416-7e1d-4712-b4f5-aab79b2a7c01"
        } ]
      } ],
      "extension": [ {
        "url": "http://hl7.org/fhir/StructureDefinition/cqf-inputParameters",
        "valueReference": {
          "reference": "#1dbb69b0-cbee-483a-b709-ac3d48ef071e-parameters"
        }
      }, {
        "url": "http://hl7.org/fhir/us/cqfmeasures/StructureDefinition/cqfm-testCaseDescription",
        "valueMarkdown": "17yo with previous positive adolescent depression screening and medication active"
      } ],
      "modifierExtension": [ {
        "url": "http://hl7.org/fhir/us/cqfmeasures/StructureDefinition/cqfm-isTestCase",
        "valueBoolean": true
      } ],
      "status": "complete",
      "type": "individual",
      "measure": "https://madie.cms.gov/Measure/CMS2FHIRPCSDepressionScreenAndFollowUp",
      "period": {
        "start": "2026-01-01",
        "end": "2026-12-31"
      },
      "group": [ {
        "id": "Group_1",
        "population": [ {
          "id": "InitialPopulation_1",
          "code": {
            "coding": [ {
              "system": "http://terminology.hl7.org/CodeSystem/measure-population",
              "code": "initial-population",
              "display": "Initial Population"
            } ]
          },
          "count": 1
        }, {
          "id": "Denominator_1",
          "code": {
            "coding": [ {
              "system": "http://terminology.hl7.org/CodeSystem/measure-population",
              "code": "denominator",
              "display": "Denominator"
            } ]
          },
          "count": 1
        }, {
          "id": "DenominatorExclusion_1",
          "code": {
            "coding": [ {
              "system": "http://terminology.hl7.org/CodeSystem/measure-population",
              "code": "denominator-exclusion",
              "display": "Denominator Exclusion"
            } ]
          },
          "count": 0
        }, {
          "id": "Numerator_1",
          "code": {
            "coding": [ {
              "system": "http://terminology.hl7.org/CodeSystem/measure-population",
              "code": "numerator",
              "display": "Numerator"
            } ]
          },
          "count": 1
        }, {
          "id": "DenominatorException_1",
          "code": {
            "coding": [ {
              "system": "http://terminology.hl7.org/CodeSystem/measure-population",
              "code": "denominator-exception",
              "display": "Denominator Exception"
            } ]
          },
          "count": 0
        } ],
        "measureScore": {
          "value": 1.0
        }
      } ],
      "evaluatedResource": [ {
        "reference": "Patient/ff6f7416-7e1d-4712-b4f5-aab79b2a7c01"
      }, {
        "reference": "Encounter/9c5be682-cd37-4095-ac1a-b50eea14a4bf"
      }, {
        "reference": "Observation/169c24b7-a6cd-4174-a4b2-3dda0d19fcbd"
      }, {
        "reference": "MedicationRequest/12385d7b-909c-48ee-a5c8-4dccb0d2c5e1"
      }, {
        "reference": "Coverage/f5d7e064-98bf-4862-a96f-795767d12c0d"
      }, {
        "reference": "Organization/f4008e10-436f-457c-98ca-5b8c33e80844"
      }, {
        "reference": "Practitioner/ced1231a-956b-41c4-be13-869a6728f45c"
      } ]
    },
    "request": {
      "method": "PUT",
      "url": "MeasureReport/8294d162-8abb-48cc-a604-1a72a49c79cf"
    }
  } ]
}