{
    "entry": [
        {
            "request": {
                "method": "PUT",
                "url": "Patient/ff6f7416-7e1d-4712-b4f5-aab79b2a7c01"
            },
            "resource": {
                "identifier": [{
                    "system": "https://bonnie-fhir.healthit.gov/",
                    "type": {"coding": [{
                        "system": "http://terminology.hl7.org/CodeSystem/v2-0203",
                        "code": "MR"
                    }]},
                    "value": "62b1e0113968556e5150cf36"
                }],
                "extension": [
                    {
                        "extension": [
                            {
                                "valueCoding": {
                                    "system": "urn:oid:2.16.840.1.113883.6.238",
                                    "code": "1002-5",
                                    "userSelected": true,
                                    "display": "American Indian or Alaska Native"
                                },
                                "url": "ombCategory"
                            },
                            {
                                "valueString": "American Indian or Alaska Native",
                                "url": "text"
                            }
                        ],
                        "url": "http://hl7.org/fhir/us/core/StructureDefinition/us-core-race"
                    },
                    {
                        "extension": [
                            {
                                "valueCoding": {
                                    "system": "urn:oid:2.16.840.1.113883.6.238",
                                    "code": "2135-2",
                                    "userSelected": true,
                                    "display": "Hispanic or Latino"
                                },
                                "url": "ombCategory"
                            },
                            {
                                "valueString": "Hispanic or Latino",
                                "url": "text"
                            }
                        ],
                        "url": "http://hl7.org/fhir/us/core/StructureDefinition/us-core-ethnicity"
                    }
                ],
                "gender": "male",
                "meta": {"profile": ["http://hl7.org/fhir/us/qicore/StructureDefinition/qicore-patient"]},
                "name": [{
                    "given": ["17yoPositiveAdolescentDepressionScreeningandMedsActive"],
                    "family": "NUMERPass"
                }],
                "id": "ff6f7416-7e1d-4712-b4f5-aab79b2a7c01",
                "birthDate": "2009-01-01",
                "resourceType": "Patient"
            },
            "fullUrl": "https://madie.cms.gov/Patient/ff6f7416-7e1d-4712-b4f5-aab79b2a7c01"
        },
        {
            "request": {
                "method": "PUT",
                "url": "Encounter/e53a04ab-aeb1-408a-bcfc-dccd29ec1ddf"
            },
            "resource": {
                "period": {
                    "start": "2026-06-21T08:00:00.000+00:00",
                    "end": "2026-06-21T08:15:00.000+00:00"
                },
                "meta": {"profile": ["http://hl7.org/fhir/us/qicore/StructureDefinition/qicore-encounter"]},
                "subject": {"reference": "Patient/ff6f7416-7e1d-4712-b4f5-aab79b2a7c01"},
                "id": "e53a04ab-aeb1-408a-bcfc-dccd29ec1ddf",
                "type": [{"coding": [{
                    "system": "http://snomed.info/sct",
                    "code": "10197000",
                    "userSelected": true,
                    "display": "Psychiatric interview and evaluation (procedure)",
                    "version": "2021-09"
                }]}],
                "class": {
                    "system": "http://terminology.hl7.org/CodeSystem/v3-ActCode",
                    "code": "AMB",
                    "display": "ambulatory"
                },
                "resourceType": "Encounter",
                "status": "finished"
            },
            "fullUrl": "https://madie.cms.gov/Encounter/e53a04ab-aeb1-408a-bcfc-dccd29ec1ddf"
        },
        {
            "request": {
                "method": "PUT",
                "url": "Observation/595475bb-df7c-4d0d-a91a-b5017e9545f3"
            },
            "resource": {
                "valueCodeableConcept": {"coding": [{
                    "system": "http://snomed.info/sct",
                    "code": "428181000124104",
                    "userSelected": true,
                    "display": "Depression screening positive (finding)"
                }]},
                "code": {"coding": [{
                    "system": "http://loinc.org",
                    "code": "73831-0",
                    "userSelected": true,
                    "display": "Adolescent depression screening assessment"
                }]},
                "effectiveDateTime": "2026-06-15T08:00:00.000+00:00",
                "meta": {"profile": ["http://hl7.org/fhir/us/qicore/StructureDefinition/qicore-observation-screening-assessment"]},
                "subject": {"reference": "Patient/ff6f7416-7e1d-4712-b4f5-aab79b2a7c01"},
                "id": "595475bb-df7c-4d0d-a91a-b5017e9545f3",
                "category": [{"coding": [{
                    "system": "http://terminology.hl7.org/CodeSystem/observation-category",
                    "code": "procedure",
                    "display": "Procedure"
                }]}],
                "resourceType": "Observation",
                "status": "final"
            },
            "fullUrl": "https://madie.cms.gov/Observation/595475bb-df7c-4d0d-a91a-b5017e9545f3"
        },
        {
            "request": {
                "method": "PUT",
                "url": "MedicationRequest/077424de-35a9-449f-99f3-5f50c95d6cfb"
            },
            "resource": {
                "requester": {"reference": "Practitioner/Practitioner-123456"},
                "authoredOn": "2026-06-21T08:00:00.000+00:00",
                "dispenseRequest": {"expectedSupplyDuration": {
                    "system": "http://unitsofmeasure.org",
                    "code": "days",
                    "value": 30
                }},
                "meta": {"profile": ["http://hl7.org/fhir/us/qicore/StructureDefinition/qicore-medicationrequest"]},
                "subject": {"reference": "Patient/ff6f7416-7e1d-4712-b4f5-aab79b2a7c01"},
                "id": "077424de-35a9-449f-99f3-5f50c95d6cfb",
                "doNotPerform": false,
                "medicationCodeableConcept": {"coding": [{
                    "system": "http://www.nlm.nih.gov/research/umls/rxnorm",
                    "code": "1190110",
                    "userSelected": true,
                    "display": "fluoxetine 60 MG Oral Tablet"
                }]},
                "intent": "order",
                "resourceType": "MedicationRequest",
                "status": "active"
            },
            "fullUrl": "https://madie.cms.gov/MedicationRequest/077424de-35a9-449f-99f3-5f50c95d6cfb"
        },
        {
            "request": {
                "method": "PUT",
                "url": "Coverage/a7e48bf5-b3d2-4163-9035-62626ea4527c"
            },
            "resource": {
                "payor": [{"reference": "Organization/7bd160b6-c87d-4f2e-b9dc-915a69d72ff5"}],
                "beneficiary": {"reference": "Patient/ff6f7416-7e1d-4712-b4f5-aab79b2a7c01"},
                "meta": {"profile": ["http://hl7.org/fhir/us/qicore/StructureDefinition/qicore-coverage"]},
                "id": "a7e48bf5-b3d2-4163-9035-62626ea4527c",
                "resourceType": "Coverage",
                "status": "active"
            },
            "fullUrl": "https://madie.cms.gov/Coverage/a7e48bf5-b3d2-4163-9035-62626ea4527c"
        },
        {
            "request": {
                "method": "PUT",
                "url": "Organization/7bd160b6-c87d-4f2e-b9dc-915a69d72ff5"
            },
            "resource": {
                "identifier": [{
                    "system": "urn:oid:2.16.840.1.113883.4.4",
                    "use": "temp",
                    "value": "21-3259825"
                }],
                "address": [{
                    "country": "USA",
                    "city": "Dallas",
                    "use": "billing",
                    "line": ["P.O. Box 660044"],
                    "postalCode": "75266-0044",
                    "state": "TX",
                    "type": "postal"
                }],
                "meta": {"profile": ["http://hl7.org/fhir/us/qicore/StructureDefinition/qicore-organization"]},
                "name": "Blue Cross Blue Shield of Texas",
                "active": true,
                "telecom": [{
                    "system": "phone",
                    "value": "(+1) 972-766-6900"
                }],
                "id": "7bd160b6-c87d-4f2e-b9dc-915a69d72ff5",
                "type": [{"coding": [{
                    "system": "http://terminology.hl7.org/CodeSystem/organization-type",
                    "code": "pay",
                    "display": "Payer"
                }]}],
                "resourceType": "Organization"
            },
            "fullUrl": "https://madie.cms.gov/Organization/7bd160b6-c87d-4f2e-b9dc-915a69d72ff5"
        },
        {
            "request": {
                "method": "PUT",
                "url": "Practitioner/6a99e23e-4ce2-4467-b23d-4106d80d1dba"
            },
            "resource": {
                "identifier": [{
                    "system": "http://hl7.org/fhir/sid/us-npi",
                    "value": "123456"
                }],
                "meta": {"profile": ["http://hl7.org/fhir/us/qicore/StructureDefinition/qicore-practitioner"]},
                "name": [{
                    "prefix": ["Dr"],
                    "family": "Evil"
                }],
                "id": "6a99e23e-4ce2-4467-b23d-4106d80d1dba",
                "resourceType": "Practitioner"
            },
            "fullUrl": "https://madie.cms.gov/Practitioner/6a99e23e-4ce2-4467-b23d-4106d80d1dba"
        },
        {
            "request": {
                "method": "PUT",
                "url": "MeasureReport/f4d77591-7525-4eee-a6a2-5e1a0bc0bab9"
            },
            "resource": {
                "contained": [{
                    "parameter": [{
                        "valueString": "ff6f7416-7e1d-4712-b4f5-aab79b2a7c01",
                        "name": "subject"
                    }],
                    "id": "ad023fb4-2e9a-4820-9231-0aaca2c8f506-parameters",
                    "resourceType": "Parameters"
                }],
                "extension": [
                    {
                        "valueReference": {"reference": "#ad023fb4-2e9a-4820-9231-0aaca2c8f506-parameters"},
                        "url": "http://hl7.org/fhir/StructureDefinition/cqf-inputParameters"
                    },
                    {
                        "valueMarkdown": "17yo with previous positive adolescent depression screening and medication active",
                        "url": "http://hl7.org/fhir/us/cqfmeasures/StructureDefinition/cqfm-testCaseDescription"
                    }
                ],
                "period": {
                    "start": "2026-01-01",
                    "end": "2026-12-31"
                },
                "measure": "https://madie.cms.gov/Measure/CMS2FHIRPCSDepressionScreenAndFollowUp",
                "meta": {"profile": ["http://hl7.org/fhir/us/cqfmeasures/StructureDefinition/test-case-cqfm"]},
                "modifierExtension": [{
                    "valueBoolean": true,
                    "url": "http://hl7.org/fhir/us/cqfmeasures/StructureDefinition/cqfm-isTestCase"
                }],
                "id": "f4d77591-7525-4eee-a6a2-5e1a0bc0bab9",
                "evaluatedResource": [
                    {"reference": "Patient/ff6f7416-7e1d-4712-b4f5-aab79b2a7c01"},
                    {"reference": "Encounter/e53a04ab-aeb1-408a-bcfc-dccd29ec1ddf"},
                    {"reference": "Observation/595475bb-df7c-4d0d-a91a-b5017e9545f3"},
                    {"reference": "MedicationRequest/077424de-35a9-449f-99f3-5f50c95d6cfb"},
                    {"reference": "Coverage/a7e48bf5-b3d2-4163-9035-62626ea4527c"},
                    {"reference": "Organization/7bd160b6-c87d-4f2e-b9dc-915a69d72ff5"},
                    {"reference": "Practitioner/6a99e23e-4ce2-4467-b23d-4106d80d1dba"}
                ],
                "type": "individual",
                "resourceType": "MeasureReport",
                "status": "complete",
                "group": [{
                    "id": "Group_1",
                    "measureScore": {"value": 1},
                    "population": [
                        {
                            "code": {"coding": [{
                                "system": "http://terminology.hl7.org/CodeSystem/measure-population",
                                "code": "initial-population",
                                "display": "Initial Population"
                            }]},
                            "count": 1,
                            "id": "InitialPopulation_1"
                        },
                        {
                            "code": {"coding": [{
                                "system": "http://terminology.hl7.org/CodeSystem/measure-population",
                                "code": "denominator",
                                "display": "Denominator"
                            }]},
                            "count": 1,
                            "id": "Denominator_1"
                        },
                        {
                            "code": {"coding": [{
                                "system": "http://terminology.hl7.org/CodeSystem/measure-population",
                                "code": "denominator-exclusion",
                                "display": "Denominator Exclusion"
                            }]},
                            "count": 0,
                            "id": "DenominatorExclusion_1"
                        },
                        {
                            "code": {"coding": [{
                                "system": "http://terminology.hl7.org/CodeSystem/measure-population",
                                "code": "numerator",
                                "display": "Numerator"
                            }]},
                            "count": 1,
                            "id": "Numerator_1"
                        },
                        {
                            "code": {"coding": [{
                                "system": "http://terminology.hl7.org/CodeSystem/measure-population",
                                "code": "denominator-exception",
                                "display": "Denominator Exception"
                            }]},
                            "count": 0,
                            "id": "DenominatorException_1"
                        }
                    ]
                }]
            },
            "fullUrl": "https://madie.cms.gov/MeasureReport/f4d77591-7525-4eee-a6a2-5e1a0bc0bab9"
        }
    ],
    "id": "62b1e0113968556e5150cf36",
    "type": "transaction",
    "resourceType": "Bundle"
}