{
  "resourceType": "Bundle",
  "id": "612e6b3102c62a011f2ecd58",
  "type": "transaction",
  "entry": [ {
    "fullUrl": "https://madie.cms.gov/Patient/848277a1-a657-4474-a474-733a962f44a5",
    "resource": {
      "resourceType": "Patient",
      "id": "848277a1-a657-4474-a474-733a962f44a5",
      "meta": {
        "profile": [ "http://hl7.org/fhir/us/qicore/StructureDefinition/qicore-patient" ]
      },
      "text": {
        "status": "generated",
        "div": "<div xmlns=\"http://www.w3.org/1999/xhtml\"><div class=\"hapiHeaderText\">EncDxAfib_MA_OralXa_MedAdmRvltDT <b>NUMERPASS </b></div><table class=\"hapiPropertyTable\"><tbody><tr><td>Identifier</td><td>dc257e8594370e421c6581222a79e666</td></tr><tr><td>Date of birth</td><td><span>02 January 1974</span></td></tr></tbody></table></div>"
      },
      "extension": [ {
        "url": "http://hl7.org/fhir/us/core/StructureDefinition/us-core-race",
        "extension": [ {
          "url": "ombCategory",
          "valueCoding": {
            "system": "urn:oid:2.16.840.1.113883.6.238",
            "code": "1002-5",
            "display": "American Indian or Alaska Native",
            "userSelected": true
          }
        }, {
          "url": "text",
          "valueString": "American Indian or Alaska Native"
        } ]
      }, {
        "url": "http://hl7.org/fhir/us/core/StructureDefinition/us-core-ethnicity",
        "extension": [ {
          "url": "ombCategory",
          "valueCoding": {
            "system": "urn:oid:2.16.840.1.113883.6.238",
            "code": "2135-2",
            "display": "Hispanic or Latino",
            "userSelected": true
          }
        }, {
          "url": "text",
          "valueString": "Hispanic or Latino"
        } ]
      } ],
      "identifier": [ {
        "type": {
          "coding": [ {
            "system": "http://terminology.hl7.org/CodeSystem/v2-0203",
            "code": "MR"
          } ]
        },
        "system": "https://bonnie-fhir.healthit.gov/",
        "value": "612e6b3102c62a011f2ecd58"
      } ],
      "active": true,
      "name": [ {
        "use": "usual",
        "family": "NUMERPass",
        "given": [ "EncDxAfibMAOralXaMedAdmRvltDT" ]
      } ],
      "gender": "male",
      "birthDate": "1975-01-02"
    },
    "request": {
      "method": "PUT",
      "url": "Patient/848277a1-a657-4474-a474-733a962f44a5"
    }
  }, {
    "fullUrl": "https://madie.cms.gov/Encounter/1bedb55c-e3b7-4f7e-80f6-27c2d18d9d37",
    "resource": {
      "resourceType": "Encounter",
      "id": "1bedb55c-e3b7-4f7e-80f6-27c2d18d9d37",
      "meta": {
        "profile": [ "http://hl7.org/fhir/us/qicore/StructureDefinition/qicore-encounter" ]
      },
      "status": "finished",
      "class": {
        "system": "http://terminology.hl7.org/CodeSystem/v3-ActCode",
        "code": "IMP",
        "display": "inpatient encounter"
      },
      "type": [ {
        "coding": [ {
          "system": "http://snomed.info/sct",
          "code": "8715000"
        } ]
      } ],
      "subject": {
        "reference": "Patient/848277a1-a657-4474-a474-733a962f44a5"
      },
      "period": {
        "start": "2026-11-01T08:00:00.000+00:00",
        "end": "2026-11-26T08:15:00.000+00:00"
      },
      "length": {
        "value": 25,
        "unit": "days"
      },
      "reasonReference": [ {
        "reference": "Condition/b39b0210-b98e-474b-825d-c8c51cd818ee"
      } ]
    },
    "request": {
      "method": "PUT",
      "url": "Encounter/1bedb55c-e3b7-4f7e-80f6-27c2d18d9d37"
    }
  }, {
    "fullUrl": "https://madie.cms.gov/Coverage/8e7d49f7-4d22-47ab-85a8-026c726dad87",
    "resource": {
      "resourceType": "Coverage",
      "id": "8e7d49f7-4d22-47ab-85a8-026c726dad87",
      "status": "active",
      "beneficiary": {
        "reference": "Patient/848277a1-a657-4474-a474-733a962f44a5"
      },
      "period": {
        "start": "1975-01-02T08:00:00.000+00:00"
      },
      "payor": [ {
        "reference": "Organization/82d6c357-0688-45dd-bc23-3ca738b5dab3"
      } ]
    },
    "request": {
      "method": "PUT",
      "url": "Coverage/8e7d49f7-4d22-47ab-85a8-026c726dad87"
    }
  }, {
    "fullUrl": "https://madie.cms.gov/MedicationAdministration/50066432-3587-48f9-ac08-c430ebefc9bc",
    "resource": {
      "resourceType": "MedicationAdministration",
      "id": "50066432-3587-48f9-ac08-c430ebefc9bc",
      "meta": {
        "profile": [ "http://hl7.org/fhir/us/qicore/StructureDefinition/qicore-medicationadministration" ]
      },
      "status": "completed",
      "medicationCodeableConcept": {
        "coding": [ {
          "system": "http://www.nlm.nih.gov/research/umls/rxnorm",
          "code": "1599555"
        } ]
      },
      "subject": {
        "reference": "Patient/848277a1-a657-4474-a474-733a962f44a5"
      },
      "effectivePeriod": {
        "start": "2026-11-01T08:00:00.000+00:00",
        "end": "2026-11-01T08:15:00.000+00:00"
      }
    },
    "request": {
      "method": "PUT",
      "url": "MedicationAdministration/50066432-3587-48f9-ac08-c430ebefc9bc"
    }
  }, {
    "fullUrl": "https://madie.cms.gov/Condition/b39b0210-b98e-474b-825d-c8c51cd818ee",
    "resource": {
      "resourceType": "Condition",
      "id": "b39b0210-b98e-474b-825d-c8c51cd818ee",
      "meta": {
        "profile": [ "http://hl7.org/fhir/us/qicore/StructureDefinition/qicore-condition-encounter-diagnosis" ]
      },
      "category": [ {
        "coding": [ {
          "system": "http://terminology.hl7.org/CodeSystem/condition-category",
          "code": "encounter-diagnosis",
          "display": "Encounter Diagnosis"
        } ]
      } ],
      "code": {
        "coding": [ {
          "system": "http://snomed.info/sct",
          "code": "120041000119109",
          "display": "Atrial fibrillation with rapid ventricular response (disorder)",
          "userSelected": true
        } ]
      },
      "subject": {
        "reference": "Patient/848277a1-a657-4474-a474-733a962f44a5"
      }
    },
    "request": {
      "method": "PUT",
      "url": "Condition/b39b0210-b98e-474b-825d-c8c51cd818ee"
    }
  }, {
    "fullUrl": "https://madie.cms.gov/Organization/82d6c357-0688-45dd-bc23-3ca738b5dab3",
    "resource": {
      "resourceType": "Organization",
      "id": "82d6c357-0688-45dd-bc23-3ca738b5dab3",
      "meta": {
        "profile": [ "http://hl7.org/fhir/us/qicore/StructureDefinition/qicore-organization" ]
      },
      "identifier": [ {
        "use": "temp",
        "system": "urn:oid:2.16.840.1.113883.4.4",
        "value": "21-3259825"
      } ],
      "active": true,
      "type": [ {
        "coding": [ {
          "system": "http://terminology.hl7.org/CodeSystem/organization-type",
          "code": "pay",
          "display": "Payer"
        } ]
      } ],
      "name": "Blue Cross Blue Shield of Texas",
      "telecom": [ {
        "system": "phone",
        "value": "(+1) 972-766-6900"
      } ],
      "address": [ {
        "use": "billing",
        "type": "postal",
        "line": [ "P.O. Box 660044" ],
        "city": "Dallas",
        "state": "TX",
        "postalCode": "75266-0044",
        "country": "USA"
      } ]
    },
    "request": {
      "method": "PUT",
      "url": "Organization/82d6c357-0688-45dd-bc23-3ca738b5dab3"
    }
  }, {
    "fullUrl": "https://madie.cms.gov/Practitioner/705fe8ad-47d5-4713-abc9-d2b5b0943620",
    "resource": {
      "resourceType": "Practitioner",
      "id": "705fe8ad-47d5-4713-abc9-d2b5b0943620",
      "identifier": [ {
        "system": "http://hl7.org/fhir/sid/us-npi",
        "value": "123456"
      } ],
      "name": [ {
        "family": "Evil",
        "prefix": [ "Dr" ]
      } ]
    },
    "request": {
      "method": "PUT",
      "url": "Practitioner/705fe8ad-47d5-4713-abc9-d2b5b0943620"
    }
  }, {
    "fullUrl": "https://madie.cms.gov/MeasureReport/8fc13f8d-bacf-41c3-8080-343ded75bcb8",
    "resource": {
      "resourceType": "MeasureReport",
      "id": "8fc13f8d-bacf-41c3-8080-343ded75bcb8",
      "meta": {
        "profile": [ "http://hl7.org/fhir/us/cqfmeasures/StructureDefinition/test-case-cqfm" ]
      },
      "contained": [ {
        "resourceType": "Parameters",
        "id": "d16f8581-20fb-4636-8f46-5d9c409e4bf8-parameters",
        "parameter": [ {
          "name": "subject",
          "valueString": "848277a1-a657-4474-a474-733a962f44a5"
        } ]
      } ],
      "extension": [ {
        "url": "http://hl7.org/fhir/StructureDefinition/cqf-inputParameters",
        "valueReference": {
          "reference": "#d16f8581-20fb-4636-8f46-5d9c409e4bf8-parameters"
        }
      }, {
        "url": "http://hl7.org/fhir/us/cqfmeasures/StructureDefinition/cqfm-testCaseDescription",
        "valueMarkdown": "patient receives oral factor Xa as relevant datetime <= 1 day after start of IP encounter and has afib diagnosis as attribute of encounter\n"
      } ],
      "modifierExtension": [ {
        "url": "http://hl7.org/fhir/us/cqfmeasures/StructureDefinition/cqfm-isTestCase",
        "valueBoolean": true
      } ],
      "status": "complete",
      "type": "individual",
      "measure": "https://madie.cms.gov/Measure/CMS108FHIRVTEProphylaxis",
      "period": {
        "start": "2026-01-01",
        "end": "2026-12-31"
      },
      "group": [ {
        "id": "Group_1",
        "population": [ {
          "id": "InitialPopulation_1",
          "code": {
            "coding": [ {
              "system": "http://terminology.hl7.org/CodeSystem/measure-population",
              "code": "initial-population",
              "display": "Initial Population"
            } ]
          },
          "count": 1
        }, {
          "id": "Denominator_1",
          "code": {
            "coding": [ {
              "system": "http://terminology.hl7.org/CodeSystem/measure-population",
              "code": "denominator",
              "display": "Denominator"
            } ]
          },
          "count": 1
        }, {
          "id": "DenominatorExclusion_1",
          "code": {
            "coding": [ {
              "system": "http://terminology.hl7.org/CodeSystem/measure-population",
              "code": "denominator-exclusion",
              "display": "Denominator Exclusion"
            } ]
          },
          "count": 0
        }, {
          "id": "Numerator_1",
          "code": {
            "coding": [ {
              "system": "http://terminology.hl7.org/CodeSystem/measure-population",
              "code": "numerator",
              "display": "Numerator"
            } ]
          },
          "count": 1
        } ],
        "measureScore": {
          "value": 0.0
        }
      } ],
      "evaluatedResource": [ {
        "reference": "Patient/848277a1-a657-4474-a474-733a962f44a5"
      }, {
        "reference": "Encounter/1bedb55c-e3b7-4f7e-80f6-27c2d18d9d37"
      }, {
        "reference": "Coverage/8e7d49f7-4d22-47ab-85a8-026c726dad87"
      }, {
        "reference": "MedicationAdministration/50066432-3587-48f9-ac08-c430ebefc9bc"
      }, {
        "reference": "Condition/b39b0210-b98e-474b-825d-c8c51cd818ee"
      }, {
        "reference": "Organization/82d6c357-0688-45dd-bc23-3ca738b5dab3"
      }, {
        "reference": "Practitioner/705fe8ad-47d5-4713-abc9-d2b5b0943620"
      } ]
    },
    "request": {
      "method": "PUT",
      "url": "MeasureReport/8fc13f8d-bacf-41c3-8080-343ded75bcb8"
    }
  } ]
}