{
  "resourceType": "Bundle",
  "id": "633b3f9e0968f80122503cd5",
  "type": "transaction",
  "entry": [ {
    "fullUrl": "https://madie.cms.gov/Patient/251abdd8-fbd3-47ab-a7f8-35180c67491d",
    "resource": {
      "resourceType": "Patient",
      "id": "251abdd8-fbd3-47ab-a7f8-35180c67491d",
      "meta": {
        "profile": [ "http://hl7.org/fhir/us/qicore/StructureDefinition/qicore-patient" ]
      },
      "text": {
        "status": "generated",
        "div": "<div xmlns=\"http://www.w3.org/1999/xhtml\"><div class=\"hapiHeaderText\">EDDRelvTm1MinAftDelRsltDtTm<b>DENOMFAIL</b></div><table class=\"hapiPropertyTable\"><tbody><tr><td>Date of birth</td><td><span>01 February 2004</span></td></tr></tbody></table></div>"
      },
      "extension": [ {
        "url": "http://hl7.org/fhir/us/core/StructureDefinition/us-core-race",
        "extension": [ {
          "url": "ombCategory",
          "valueCoding": {
            "system": "urn:oid:2.16.840.1.113883.6.238",
            "code": "1002-5",
            "display": "American Indian or Alaska Native",
            "userSelected": true
          }
        }, {
          "url": "text",
          "valueString": "American Indian or Alaska Native"
        } ]
      }, {
        "url": "http://hl7.org/fhir/us/core/StructureDefinition/us-core-ethnicity",
        "extension": [ {
          "url": "ombCategory",
          "valueCoding": {
            "system": "urn:oid:2.16.840.1.113883.6.238",
            "code": "2135-2",
            "display": "Hispanic or Latino",
            "userSelected": true
          }
        }, {
          "url": "text",
          "valueString": "Hispanic or Latino"
        } ]
      } ],
      "identifier": [ {
        "type": {
          "coding": [ {
            "system": "http://terminology.hl7.org/CodeSystem/v2-0203",
            "code": "MR"
          } ]
        },
        "system": "https://bonnie-fhir.healthit.gov/",
        "value": "633b3f9e0968f80122503cd5"
      } ],
      "active": true,
      "name": [ {
        "use": "usual",
        "family": "DENOMFail",
        "given": [ "EDDRelvTm1MinAftDelRsltDtTm" ]
      } ],
      "gender": "female",
      "birthDate": "2005-02-01"
    },
    "request": {
      "method": "PUT",
      "url": "Patient/251abdd8-fbd3-47ab-a7f8-35180c67491d"
    }
  }, {
    "fullUrl": "https://madie.cms.gov/Observation/2423c76e-1f0d-4bae-b8ce-1d9a146bf021",
    "resource": {
      "resourceType": "Observation",
      "id": "2423c76e-1f0d-4bae-b8ce-1d9a146bf021",
      "meta": {
        "profile": [ "http://hl7.org/fhir/us/qicore/StructureDefinition/qicore-simple-observation" ]
      },
      "status": "final",
      "category": [ {
        "coding": [ {
          "system": "http://terminology.hl7.org/CodeSystem/observation-category",
          "code": "exam",
          "display": "exam",
          "userSelected": true
        } ]
      } ],
      "code": {
        "coding": [ {
          "system": "http://loinc.org",
          "code": "93857-1"
        } ]
      },
      "subject": {
        "reference": "Patient/251abdd8-fbd3-47ab-a7f8-35180c67491d"
      },
      "effectiveDateTime": "2026-02-01T08:00:00Z",
      "performer": [ {
        "reference": "Organization/example1",
        "display": "Hendricks Country Hospital"
      } ],
      "valueDateTime": "2026-02-01T08:00:00.000+00:00"
    },
    "request": {
      "method": "PUT",
      "url": "Observation/2423c76e-1f0d-4bae-b8ce-1d9a146bf021"
    }
  }, {
    "fullUrl": "https://madie.cms.gov/Observation/a65c00f4-3df8-4149-a2f3-416076ed9a87",
    "resource": {
      "resourceType": "Observation",
      "id": "a65c00f4-3df8-4149-a2f3-416076ed9a87",
      "meta": {
        "profile": [ "http://hl7.org/fhir/us/qicore/StructureDefinition/qicore-simple-observation" ]
      },
      "status": "final",
      "category": [ {
        "coding": [ {
          "system": "http://terminology.hl7.org/CodeSystem/observation-category",
          "code": "exam",
          "display": "exam",
          "userSelected": true
        } ]
      } ],
      "code": {
        "coding": [ {
          "system": "http://loinc.org",
          "code": "11778-8"
        } ]
      },
      "subject": {
        "reference": "Patient/251abdd8-fbd3-47ab-a7f8-35180c67491d"
      },
      "effectiveDateTime": "2026-02-01T08:01:00Z",
      "performer": [ {
        "reference": "Organization/example1",
        "display": "Hendricks Country Hospital"
      } ],
      "valueDateTime": "2026-02-01T08:00:00.000+00:00"
    },
    "request": {
      "method": "PUT",
      "url": "Observation/a65c00f4-3df8-4149-a2f3-416076ed9a87"
    }
  }, {
    "fullUrl": "https://madie.cms.gov/Encounter/3336e2a7-6a98-4a5d-b1f7-94b8197f0df2",
    "resource": {
      "resourceType": "Encounter",
      "id": "3336e2a7-6a98-4a5d-b1f7-94b8197f0df2",
      "meta": {
        "profile": [ "http://hl7.org/fhir/us/qicore/StructureDefinition/qicore-encounter" ]
      },
      "status": "finished",
      "class": {
        "system": "http://terminology.hl7.org/CodeSystem/v3-ActCode",
        "code": "IMP",
        "display": "inpatient encounter"
      },
      "type": [ {
        "coding": [ {
          "system": "http://snomed.info/sct",
          "code": "183452005"
        } ]
      } ],
      "subject": {
        "reference": "Patient/251abdd8-fbd3-47ab-a7f8-35180c67491d"
      },
      "period": {
        "start": "2026-02-01T08:00:00Z",
        "end": "2026-02-05T08:15:00.000+00:00"
      },
      "reasonCode": [ {
        "coding": [ {
          "system": "http://snomed.info/sct",
          "code": "169826009",
          "display": "Single live birth from singleton pregnancy (finding)"
        } ]
      } ]
    },
    "request": {
      "method": "PUT",
      "url": "Encounter/3336e2a7-6a98-4a5d-b1f7-94b8197f0df2"
    }
  }, {
    "fullUrl": "https://madie.cms.gov/Coverage/45853b6d-e4e8-4c8e-94a6-7de26d2b94f3",
    "resource": {
      "resourceType": "Coverage",
      "id": "45853b6d-e4e8-4c8e-94a6-7de26d2b94f3",
      "status": "active",
      "subscriberId": "523435",
      "beneficiary": {
        "reference": "Patient/251abdd8-fbd3-47ab-a7f8-35180c67491d"
      },
      "relationship": {
        "coding": [ {
          "system": "http://terminology.hl7.org/CodeSystem/subscriber-relationship",
          "code": "self"
        } ]
      },
      "period": {
        "start": "2005-02-01T08:00:00Z"
      },
      "payor": [ {
        "reference": "Organization/aa2db5fb-7223-4ff3-971f-a26094f9159e"
      } ]
    },
    "request": {
      "method": "PUT",
      "url": "Coverage/45853b6d-e4e8-4c8e-94a6-7de26d2b94f3"
    }
  }, {
    "fullUrl": "https://madie.cms.gov/Procedure/bd0e2c04-9b00-43eb-8677-d6ec96966dd0",
    "resource": {
      "resourceType": "Procedure",
      "id": "bd0e2c04-9b00-43eb-8677-d6ec96966dd0",
      "meta": {
        "profile": [ "http://hl7.org/fhir/us/qicore/StructureDefinition/qicore-procedure" ]
      },
      "extension": [ {
        "url": "http://hl7.org/fhir/us/qicore/StructureDefinition/qicore-recorded",
        "valueDateTime": "2014-04-05T13:35:00Z"
      } ],
      "status": "completed",
      "code": {
        "coding": [ {
          "system": "http://snomed.info/sct",
          "code": "10745001"
        } ]
      },
      "subject": {
        "reference": "Patient/251abdd8-fbd3-47ab-a7f8-35180c67491d"
      },
      "performedPeriod": {
        "start": "2026-02-01T08:00:00Z",
        "end": "2026-02-05T08:15:00.000+00:00"
      }
    },
    "request": {
      "method": "PUT",
      "url": "Procedure/bd0e2c04-9b00-43eb-8677-d6ec96966dd0"
    }
  }, {
    "fullUrl": "https://madie.cms.gov/Organization/aa2db5fb-7223-4ff3-971f-a26094f9159e",
    "resource": {
      "resourceType": "Organization",
      "id": "aa2db5fb-7223-4ff3-971f-a26094f9159e",
      "meta": {
        "profile": [ "http://hl7.org/fhir/us/qicore/StructureDefinition/qicore-organization" ]
      },
      "identifier": [ {
        "use": "temp",
        "system": "urn:oid:2.16.840.1.113883.4.4",
        "value": "21-3259825"
      } ],
      "active": true,
      "type": [ {
        "coding": [ {
          "system": "http://terminology.hl7.org/CodeSystem/organization-type",
          "code": "pay",
          "display": "Payer"
        } ]
      } ],
      "name": "Blue Cross Blue Shield of Texas",
      "telecom": [ {
        "system": "phone",
        "value": "(+1) 972-766-6900"
      } ],
      "address": [ {
        "use": "billing",
        "type": "postal",
        "line": [ "P.O. Box 660044" ],
        "city": "Dallas",
        "state": "TX",
        "postalCode": "75266-0044",
        "country": "USA"
      } ]
    },
    "request": {
      "method": "PUT",
      "url": "Organization/aa2db5fb-7223-4ff3-971f-a26094f9159e"
    }
  }, {
    "fullUrl": "https://madie.cms.gov/Practitioner/2cfe577b-fc5d-46d0-bf47-a3e349b448cb",
    "resource": {
      "resourceType": "Practitioner",
      "id": "2cfe577b-fc5d-46d0-bf47-a3e349b448cb",
      "meta": {
        "profile": [ "http://hl7.org/fhir/us/qicore/StructureDefinition/qicore-practitioner" ]
      },
      "identifier": [ {
        "system": "http://hl7.org/fhir/sid/us-npi",
        "value": "1234567890"
      } ],
      "name": [ {
        "family": "Evil",
        "prefix": [ "Dr" ]
      } ]
    },
    "request": {
      "method": "PUT",
      "url": "Practitioner/2cfe577b-fc5d-46d0-bf47-a3e349b448cb"
    }
  }, {
    "fullUrl": "https://madie.cms.gov/MeasureReport/363471e7-7aaf-4157-b83c-cbbfa37a692f",
    "resource": {
      "resourceType": "MeasureReport",
      "id": "363471e7-7aaf-4157-b83c-cbbfa37a692f",
      "meta": {
        "profile": [ "http://hl7.org/fhir/us/cqfmeasures/StructureDefinition/test-case-cqfm" ]
      },
      "contained": [ {
        "resourceType": "Parameters",
        "id": "e522882f-778a-4fb5-be4a-599fe4d6026e-parameters",
        "parameter": [ {
          "name": "subject",
          "valueString": "251abdd8-fbd3-47ab-a7f8-35180c67491d"
        } ]
      } ],
      "extension": [ {
        "url": "http://hl7.org/fhir/StructureDefinition/cqf-inputParameters",
        "valueReference": {
          "reference": "#e522882f-778a-4fb5-be4a-599fe4d6026e-parameters"
        }
      }, {
        "url": "http://hl7.org/fhir/us/cqfmeasures/StructureDefinition/cqfm-testCaseDescription",
        "valueMarkdown": "Estimated Delivery Date, Relevant time, 1 min after Delivery Result Date/Time\n"
      } ],
      "modifierExtension": [ {
        "url": "http://hl7.org/fhir/us/cqfmeasures/StructureDefinition/cqfm-isTestCase",
        "valueBoolean": true
      } ],
      "status": "complete",
      "type": "individual",
      "measure": "https://madie.cms.gov/Measure/CMS1028FHIRPCSevereOBComps",
      "period": {
        "start": "2026-01-01",
        "end": "2026-12-31"
      },
      "group": [ {
        "id": "Group_1",
        "population": [ {
          "id": "InitialPopulation_1",
          "code": {
            "coding": [ {
              "system": "http://terminology.hl7.org/CodeSystem/measure-population",
              "code": "initial-population",
              "display": "Initial Population"
            } ]
          },
          "count": 1
        }, {
          "id": "Denominator_1",
          "code": {
            "coding": [ {
              "system": "http://terminology.hl7.org/CodeSystem/measure-population",
              "code": "denominator",
              "display": "Denominator"
            } ]
          },
          "count": 0
        }, {
          "id": "Numerator_1",
          "code": {
            "coding": [ {
              "system": "http://terminology.hl7.org/CodeSystem/measure-population",
              "code": "numerator",
              "display": "Numerator"
            } ]
          },
          "count": 0
        }, {
          "id": "NumeratorExclusion_1",
          "code": {
            "coding": [ {
              "system": "http://terminology.hl7.org/CodeSystem/measure-population",
              "code": "numerator-exclusion",
              "display": "Numerator Exclusion"
            } ]
          },
          "count": 0
        } ],
        "measureScore": {
          "value": 0.0
        }
      }, {
        "id": "Group_2",
        "population": [ {
          "id": "InitialPopulation_2",
          "code": {
            "coding": [ {
              "system": "http://terminology.hl7.org/CodeSystem/measure-population",
              "code": "initial-population",
              "display": "Initial Population"
            } ]
          },
          "count": 1
        }, {
          "id": "Denominator_2",
          "code": {
            "coding": [ {
              "system": "http://terminology.hl7.org/CodeSystem/measure-population",
              "code": "denominator",
              "display": "Denominator"
            } ]
          },
          "count": 0
        }, {
          "id": "Numerator_2",
          "code": {
            "coding": [ {
              "system": "http://terminology.hl7.org/CodeSystem/measure-population",
              "code": "numerator",
              "display": "Numerator"
            } ]
          },
          "count": 0
        }, {
          "id": "NumeratorExclusion_2",
          "code": {
            "coding": [ {
              "system": "http://terminology.hl7.org/CodeSystem/measure-population",
              "code": "numerator-exclusion",
              "display": "Numerator Exclusion"
            } ]
          },
          "count": 0
        } ],
        "measureScore": {
          "value": 0.0
        }
      } ],
      "evaluatedResource": [ {
        "reference": "Patient/251abdd8-fbd3-47ab-a7f8-35180c67491d"
      }, {
        "reference": "Observation/2423c76e-1f0d-4bae-b8ce-1d9a146bf021"
      }, {
        "reference": "Observation/a65c00f4-3df8-4149-a2f3-416076ed9a87"
      }, {
        "reference": "Encounter/3336e2a7-6a98-4a5d-b1f7-94b8197f0df2"
      }, {
        "reference": "Coverage/45853b6d-e4e8-4c8e-94a6-7de26d2b94f3"
      }, {
        "reference": "Procedure/bd0e2c04-9b00-43eb-8677-d6ec96966dd0"
      }, {
        "reference": "Organization/aa2db5fb-7223-4ff3-971f-a26094f9159e"
      }, {
        "reference": "Practitioner/2cfe577b-fc5d-46d0-bf47-a3e349b448cb"
      } ]
    },
    "request": {
      "method": "PUT",
      "url": "MeasureReport/363471e7-7aaf-4157-b83c-cbbfa37a692f"
    }
  } ]
}