{
  "resourceType": "Bundle",
  "id": "60f82c3098086b570510e2e2",
  "type": "transaction",
  "entry": [ {
    "fullUrl": "https://madie.cms.gov/Patient/89884742-86cd-4b6f-bed3-00f1929e06b2",
    "resource": {
      "resourceType": "Patient",
      "id": "89884742-86cd-4b6f-bed3-00f1929e06b2",
      "meta": {
        "profile": [ "http://hl7.org/fhir/us/qicore/StructureDefinition/qicore-patient" ]
      },
      "text": {
        "status": "generated",
        "div": "<div xmlns=\"http://www.w3.org/1999/xhtml\"><div class=\"hapiHeaderText\">CMP_DayOf_RelvDat_OnIPEnd_EDEndLT1hrB4Obs_ObsEndLT1hrB4IP <b>DENEXPASS </b></div><table class=\"hapiPropertyTable\"><tbody><tr><td>Date of birth</td><td><span>01 January 1980</span></td></tr></tbody></table></div>"
      },
      "extension": [ {
        "url": "http://hl7.org/fhir/us/core/StructureDefinition/us-core-race",
        "extension": [ {
          "url": "ombCategory",
          "valueCoding": {
            "system": "urn:oid:2.16.840.1.113883.6.238",
            "code": "1002-5",
            "display": "American Indian or Alaska Native",
            "userSelected": true
          }
        }, {
          "url": "text",
          "valueString": "American Indian or Alaska Native"
        } ]
      }, {
        "url": "http://hl7.org/fhir/us/core/StructureDefinition/us-core-ethnicity",
        "extension": [ {
          "url": "ombCategory",
          "valueCoding": {
            "system": "urn:oid:2.16.840.1.113883.6.238",
            "code": "2186-5",
            "display": "Not Hispanic or Latino",
            "userSelected": true
          }
        }, {
          "url": "text",
          "valueString": "Not Hispanic or Latino"
        } ]
      } ],
      "identifier": [ {
        "type": {
          "coding": [ {
            "system": "http://terminology.hl7.org/CodeSystem/v2-0203",
            "code": "MR"
          } ]
        },
        "system": "https://bonnie-fhir.healthit.gov/",
        "value": "60f82c3098086b570510e2e2"
      } ],
      "active": true,
      "name": [ {
        "use": "usual",
        "family": "DENEXPass",
        "given": [ "CMP_DayOf_RelvDat_OnIPEnd_EDEndLT1hrB4Obs_ObsEndLT1hrB4IP" ]
      } ],
      "gender": "female",
      "birthDate": "1981-01-01"
    },
    "request": {
      "method": "PUT",
      "url": "Patient/89884742-86cd-4b6f-bed3-00f1929e06b2"
    }
  }, {
    "fullUrl": "https://madie.cms.gov/Encounter/ed57be78-e52b-416d-abcb-4009637bdd9c",
    "resource": {
      "resourceType": "Encounter",
      "id": "ed57be78-e52b-416d-abcb-4009637bdd9c",
      "meta": {
        "profile": [ "http://hl7.org/fhir/us/qicore/StructureDefinition/qicore-encounter" ]
      },
      "status": "finished",
      "class": {
        "system": "http://terminology.hl7.org/CodeSystem/v3-ActCode",
        "code": "EMER",
        "display": "emergency"
      },
      "type": [ {
        "coding": [ {
          "system": "http://snomed.info/sct",
          "code": "4525004"
        } ]
      } ],
      "subject": {
        "reference": "Patient/89884742-86cd-4b6f-bed3-00f1929e06b2"
      },
      "period": {
        "start": "2026-11-18T07:00:00Z",
        "end": "2026-11-18T08:01:00.000+00:00"
      },
      "diagnosis": [ {
        "condition": {
          "reference": "Condition/d7d59b3f-48b4-4b61-b768-4f7f86cee018"
        },
        "use": {
          "coding": [ {
            "system": "http://snomed.info/sct",
            "code": "111297002",
            "display": "Nonparalytic stroke (disorder)"
          } ]
        },
        "rank": 1
      } ]
    },
    "request": {
      "method": "PUT",
      "url": "Encounter/ed57be78-e52b-416d-abcb-4009637bdd9c"
    }
  }, {
    "fullUrl": "https://madie.cms.gov/Encounter/df5d5410-1e08-4145-9b5c-ca053b1465a8",
    "resource": {
      "resourceType": "Encounter",
      "id": "df5d5410-1e08-4145-9b5c-ca053b1465a8",
      "meta": {
        "profile": [ "http://hl7.org/fhir/us/qicore/StructureDefinition/qicore-encounter" ]
      },
      "status": "finished",
      "class": {
        "system": "http://terminology.hl7.org/CodeSystem/v3-ActCode",
        "code": "OBSENC",
        "display": "observation encounter"
      },
      "type": [ {
        "coding": [ {
          "system": "http://snomed.info/sct",
          "code": "448951000124107"
        } ]
      } ],
      "subject": {
        "reference": "Patient/89884742-86cd-4b6f-bed3-00f1929e06b2"
      },
      "period": {
        "start": "2026-11-18T09:00:00Z",
        "end": "2026-11-18T10:01:00.000+00:00"
      }
    },
    "request": {
      "method": "PUT",
      "url": "Encounter/df5d5410-1e08-4145-9b5c-ca053b1465a8"
    }
  }, {
    "fullUrl": "https://madie.cms.gov/Encounter/b3f27f7b-0826-4644-a50e-c3c996310594",
    "resource": {
      "resourceType": "Encounter",
      "id": "b3f27f7b-0826-4644-a50e-c3c996310594",
      "meta": {
        "profile": [ "http://hl7.org/fhir/us/qicore/StructureDefinition/qicore-encounter" ]
      },
      "status": "finished",
      "class": {
        "system": "http://terminology.hl7.org/CodeSystem/v3-ActCode",
        "code": "IMP",
        "display": "inpatient encounter"
      },
      "type": [ {
        "coding": [ {
          "system": "http://snomed.info/sct",
          "code": "183452005"
        } ]
      } ],
      "subject": {
        "reference": "Patient/89884742-86cd-4b6f-bed3-00f1929e06b2"
      },
      "period": {
        "start": "2026-11-18T11:00:00Z",
        "end": "2026-11-18T20:15:00.000+00:00"
      },
      "reasonReference": [ {
        "reference": "Condition/d7d59b3f-48b4-4b61-b768-4f7f86cee018"
      } ]
    },
    "request": {
      "method": "PUT",
      "url": "Encounter/b3f27f7b-0826-4644-a50e-c3c996310594"
    }
  }, {
    "fullUrl": "https://madie.cms.gov/Procedure/9a90b605-a85f-448a-b1ee-37b67a576dc7",
    "resource": {
      "resourceType": "Procedure",
      "id": "9a90b605-a85f-448a-b1ee-37b67a576dc7",
      "meta": {
        "profile": [ "http://hl7.org/fhir/us/qicore/StructureDefinition/qicore-procedure" ]
      },
      "extension": [ {
        "url": "http://hl7.org/fhir/us/qicore/StructureDefinition/qicore-recorded",
        "valueDateTime": "2026-11-18T08:15:00Z"
      } ],
      "status": "completed",
      "code": {
        "coding": [ {
          "system": "http://snomed.info/sct",
          "code": "133918004"
        } ]
      },
      "subject": {
        "reference": "Patient/89884742-86cd-4b6f-bed3-00f1929e06b2"
      },
      "performedDateTime": "2026-11-18T08:15:00Z"
    },
    "request": {
      "method": "PUT",
      "url": "Procedure/9a90b605-a85f-448a-b1ee-37b67a576dc7"
    }
  }, {
    "fullUrl": "https://madie.cms.gov/Condition/d7d59b3f-48b4-4b61-b768-4f7f86cee018",
    "resource": {
      "resourceType": "Condition",
      "id": "d7d59b3f-48b4-4b61-b768-4f7f86cee018",
      "meta": {
        "profile": [ "http://hl7.org/fhir/us/qicore/StructureDefinition/qicore-condition-encounter-diagnosis" ]
      },
      "clinicalStatus": {
        "coding": [ {
          "system": "http://terminology.hl7.org/CodeSystem/condition-clinical",
          "code": "active"
        } ]
      },
      "verificationStatus": {
        "coding": [ {
          "system": "http://terminology.hl7.org/CodeSystem/condition-ver-status",
          "code": "confirmed"
        } ]
      },
      "category": [ {
        "coding": [ {
          "system": "http://terminology.hl7.org/CodeSystem/condition-category",
          "code": "encounter-diagnosis",
          "display": "Encounter Diagnosis"
        } ]
      } ],
      "code": {
        "coding": [ {
          "system": "http://snomed.info/sct",
          "version": "2020-09",
          "code": "111297002",
          "display": "Nonparalytic stroke (disorder)",
          "userSelected": true
        } ]
      },
      "subject": {
        "reference": "Patient/89884742-86cd-4b6f-bed3-00f1929e06b2"
      },
      "encounter": {
        "reference": "Encounter/b3f27f7b-0826-4644-a50e-c3c996310594"
      },
      "recordedDate": "2026-08-13T08:00:00Z"
    },
    "request": {
      "method": "PUT",
      "url": "Condition/d7d59b3f-48b4-4b61-b768-4f7f86cee018"
    }
  }, {
    "fullUrl": "https://madie.cms.gov/claim/5ca62962b8484628b8de1ec5",
    "resource": {
      "resourceType": "Claim",
      "id": "5ca62962b8484628b8de1ec5",
      "meta": {
        "profile": [ "http://hl7.org/fhir/us/qicore/StructureDefinition/qicore-claim" ]
      },
      "status": "active",
      "type": {
        "coding": [ {
          "system": "http://terminology.hl7.org/CodeSystem/claim-type",
          "code": "institutional"
        } ]
      },
      "use": "claim",
      "patient": {
        "reference": "Patient/89884742-86cd-4b6f-bed3-00f1929e06b2"
      },
      "created": "2026-12-01",
      "provider": {
        "reference": "Practitioner/practitioner-123456"
      },
      "priority": {
        "coding": [ {
          "system": "http://terminology.hl7.org/CodeSystem/processpriority",
          "code": "normal"
        } ]
      },
      "diagnosis": [ {
        "sequence": 1,
        "diagnosisCodeableConcept": {
          "coding": [ {
            "system": "http://hl7.org/fhir/sid/icd-10-cm",
            "code": "I63.00"
          } ]
        },
        "type": [ {
          "coding": [ {
            "system": "http://terminology.hl7.org/CodeSystem/ex-diagnosistype",
            "code": "principal"
          } ]
        } ]
      } ],
      "insurance": [ {
        "sequence": 1,
        "focal": true,
        "coverage": {
          "reference": "Coverage/5fa041661c76ba66d9959367"
        }
      } ],
      "item": [ {
        "sequence": 1,
        "diagnosisSequence": [ 1 ],
        "productOrService": {
          "coding": [ {
            "system": "http://terminology.hl7.org/CodeSystem/ex-USCLS",
            "code": "99555"
          } ]
        },
        "encounter": [ {
          "reference": "Encounter/b3f27f7b-0826-4644-a50e-c3c996310594"
        } ]
      } ]
    },
    "request": {
      "method": "PUT",
      "url": "Claim/5ca62962b8484628b8de1ec5"
    }
  }, {
    "fullUrl": "https://madie.cms.gov/Coverage/ed484e81-aba9-4125-879c-bf0afeb3ea4b",
    "resource": {
      "resourceType": "Coverage",
      "id": "ed484e81-aba9-4125-879c-bf0afeb3ea4b",
      "meta": {
        "profile": [ "http://hl7.org/fhir/us/qicore/StructureDefinition/qicore-coverage" ]
      },
      "status": "active",
      "beneficiary": {
        "reference": "Patient/89884742-86cd-4b6f-bed3-00f1929e06b2"
      },
      "payor": [ {
        "reference": "Organization/7cd47b0b-1868-4635-b2a4-e376585f8fb8"
      } ]
    },
    "request": {
      "method": "PUT",
      "url": "Coverage/ed484e81-aba9-4125-879c-bf0afeb3ea4b"
    }
  }, {
    "fullUrl": "https://madie.cms.gov/Organization/7cd47b0b-1868-4635-b2a4-e376585f8fb8",
    "resource": {
      "resourceType": "Organization",
      "id": "7cd47b0b-1868-4635-b2a4-e376585f8fb8",
      "meta": {
        "profile": [ "http://hl7.org/fhir/us/qicore/StructureDefinition/qicore-organization" ]
      },
      "identifier": [ {
        "use": "temp",
        "system": "urn:oid:2.16.840.1.113883.4.4",
        "value": "21-3259825"
      } ],
      "active": true,
      "type": [ {
        "coding": [ {
          "system": "http://terminology.hl7.org/CodeSystem/organization-type",
          "code": "pay",
          "display": "Payer"
        } ]
      } ],
      "name": "Blue Cross Blue Shield of Texas",
      "telecom": [ {
        "system": "phone",
        "value": "(+1) 972-766-6900"
      } ],
      "address": [ {
        "use": "billing",
        "type": "postal",
        "line": [ "P.O. Box 660044" ],
        "city": "Dallas",
        "state": "TX",
        "postalCode": "75266-0044",
        "country": "USA"
      } ]
    },
    "request": {
      "method": "PUT",
      "url": "Organization/7cd47b0b-1868-4635-b2a4-e376585f8fb8"
    }
  }, {
    "fullUrl": "https://madie.cms.gov/MeasureReport/e5abae80-3d23-46f4-beca-46dadcbffcdc",
    "resource": {
      "resourceType": "MeasureReport",
      "id": "e5abae80-3d23-46f4-beca-46dadcbffcdc",
      "meta": {
        "profile": [ "http://hl7.org/fhir/us/cqfmeasures/StructureDefinition/test-case-cqfm" ]
      },
      "contained": [ {
        "resourceType": "Parameters",
        "id": "8c9a751e-5f1c-4452-a6d2-d514e18bb9d5-parameters",
        "parameter": [ {
          "name": "subject",
          "valueString": "89884742-86cd-4b6f-bed3-00f1929e06b2"
        } ]
      } ],
      "extension": [ {
        "url": "http://hl7.org/fhir/StructureDefinition/cqf-inputParameters",
        "valueReference": {
          "reference": "#8c9a751e-5f1c-4452-a6d2-d514e18bb9d5-parameters"
        }
      }, {
        "url": "http://hl7.org/fhir/us/cqfmeasures/StructureDefinition/cqfm-testCaseDescription",
        "valueMarkdown": "Patient receives comfort measures performed on the day of hospital arrival, on IP end. ED ends less than 1 hour before Obs Start, Obs ends less than 1 hour before IP start.\n"
      } ],
      "modifierExtension": [ {
        "url": "http://hl7.org/fhir/us/cqfmeasures/StructureDefinition/cqfm-isTestCase",
        "valueBoolean": true
      } ],
      "status": "complete",
      "type": "individual",
      "measure": "https://madie.cms.gov/Measure/CMS72FHIRSTKAntithromboticDay2",
      "period": {
        "start": "2026-01-01",
        "end": "2026-12-31"
      },
      "group": [ {
        "id": "Group_1",
        "population": [ {
          "id": "InitialPopulation_1",
          "code": {
            "coding": [ {
              "system": "http://terminology.hl7.org/CodeSystem/measure-population",
              "code": "initial-population",
              "display": "Initial Population"
            } ]
          },
          "count": 1
        }, {
          "id": "Denominator_1",
          "code": {
            "coding": [ {
              "system": "http://terminology.hl7.org/CodeSystem/measure-population",
              "code": "denominator",
              "display": "Denominator"
            } ]
          },
          "count": 1
        }, {
          "id": "DenominatorExclusion_1",
          "code": {
            "coding": [ {
              "system": "http://terminology.hl7.org/CodeSystem/measure-population",
              "code": "denominator-exclusion",
              "display": "Denominator Exclusion"
            } ]
          },
          "count": 1
        }, {
          "id": "Numerator_1",
          "code": {
            "coding": [ {
              "system": "http://terminology.hl7.org/CodeSystem/measure-population",
              "code": "numerator",
              "display": "Numerator"
            } ]
          },
          "count": 0
        }, {
          "id": "DenominatorException_1",
          "code": {
            "coding": [ {
              "system": "http://terminology.hl7.org/CodeSystem/measure-population",
              "code": "denominator-exception",
              "display": "Denominator Exception"
            } ]
          },
          "count": 0
        } ],
        "measureScore": {
          "value": 0.0
        }
      } ],
      "evaluatedResource": [ {
        "reference": "Patient/89884742-86cd-4b6f-bed3-00f1929e06b2"
      }, {
        "reference": "Encounter/ed57be78-e52b-416d-abcb-4009637bdd9c"
      }, {
        "reference": "Encounter/df5d5410-1e08-4145-9b5c-ca053b1465a8"
      }, {
        "reference": "Encounter/b3f27f7b-0826-4644-a50e-c3c996310594"
      }, {
        "reference": "Procedure/9a90b605-a85f-448a-b1ee-37b67a576dc7"
      }, {
        "reference": "Condition/d7d59b3f-48b4-4b61-b768-4f7f86cee018"
      }, {
        "reference": "Claim/5ca62962b8484628b8de1ec5"
      }, {
        "reference": "Coverage/ed484e81-aba9-4125-879c-bf0afeb3ea4b"
      }, {
        "reference": "Organization/7cd47b0b-1868-4635-b2a4-e376585f8fb8"
      } ]
    },
    "request": {
      "method": "PUT",
      "url": "MeasureReport/e5abae80-3d23-46f4-beca-46dadcbffcdc"
    }
  } ]
}