{
  "resourceType": "Bundle",
  "id": "62fbe4dbbf5132f90ee35d37",
  "type": "transaction",
  "entry": [ {
    "fullUrl": "https://madie.cms.gov/Patient/d4d064be-d55a-47b5-9bfd-993afebd95a5",
    "resource": {
      "resourceType": "Patient",
      "id": "d4d064be-d55a-47b5-9bfd-993afebd95a5",
      "meta": {
        "profile": [ "http://hl7.org/fhir/us/qicore/StructureDefinition/qicore-patient" ]
      },
      "extension": [ {
        "url": "http://hl7.org/fhir/us/core/StructureDefinition/us-core-race",
        "extension": [ {
          "url": "ombCategory",
          "valueCoding": {
            "system": "urn:oid:2.16.840.1.113883.6.238",
            "code": "2054-5",
            "display": "Black or African American",
            "userSelected": true
          }
        }, {
          "url": "text",
          "valueString": "Black or African American"
        } ]
      }, {
        "url": "http://hl7.org/fhir/us/core/StructureDefinition/us-core-ethnicity",
        "extension": [ {
          "url": "ombCategory",
          "valueCoding": {
            "system": "urn:oid:2.16.840.1.113883.6.238",
            "code": "2186-5",
            "display": "Not Hispanic or Latino",
            "userSelected": true
          }
        }, {
          "url": "text",
          "valueString": "Not Hispanic or Latino"
        } ]
      } ],
      "identifier": [ {
        "type": {
          "coding": [ {
            "system": "http://terminology.hl7.org/CodeSystem/v2-0203",
            "code": "MR"
          } ]
        },
        "system": "https://bonnie-fhir.healthit.gov/",
        "value": "62fbe4dbbf5132f90ee35d37"
      } ],
      "name": [ {
        "family": "DENEXFail",
        "given": [ "DischargeToHospiceFacilityAfterMP" ]
      } ],
      "gender": "male",
      "birthDate": "1946-10-15"
    },
    "request": {
      "method": "PUT",
      "url": "Patient/d4d064be-d55a-47b5-9bfd-993afebd95a5"
    }
  }, {
    "fullUrl": "https://madie.cms.gov/Encounter/a8881d0a-8eb7-4b36-bad5-eafd59a4ccd7",
    "resource": {
      "resourceType": "Encounter",
      "id": "a8881d0a-8eb7-4b36-bad5-eafd59a4ccd7",
      "meta": {
        "profile": [ "http://hl7.org/fhir/us/qicore/StructureDefinition/qicore-encounter" ]
      },
      "status": "finished",
      "class": {
        "system": "http://terminology.hl7.org/CodeSystem/v3-ActCode",
        "code": "AMB",
        "display": "ambulatory"
      },
      "type": [ {
        "coding": [ {
          "system": "http://snomed.info/sct",
          "version": "2022-03",
          "code": "10197000",
          "display": "Psychiatric interview and evaluation (procedure)",
          "userSelected": true
        } ]
      } ],
      "subject": {
        "reference": "Patient/d4d064be-d55a-47b5-9bfd-993afebd95a5"
      },
      "period": {
        "start": "2026-01-01T00:00:00.000+00:00",
        "end": "2026-01-01T00:30:00.000+00:00"
      }
    },
    "request": {
      "method": "PUT",
      "url": "Encounter/a8881d0a-8eb7-4b36-bad5-eafd59a4ccd7"
    }
  }, {
    "fullUrl": "https://madie.cms.gov/Observation/fa2f83ef-303a-4c4b-8661-164ea7f37ca6",
    "resource": {
      "resourceType": "Observation",
      "id": "fa2f83ef-303a-4c4b-8661-164ea7f37ca6",
      "meta": {
        "profile": [ "http://hl7.org/fhir/us/core/StructureDefinition/us-core-bmi" ]
      },
      "status": "final",
      "category": [ {
        "coding": [ {
          "system": "http://terminology.hl7.org/CodeSystem/observation-category",
          "code": "vital-signs",
          "display": "Vital Signs"
        } ]
      } ],
      "code": {
        "coding": [ {
          "system": "http://loinc.org",
          "code": "39156-5",
          "display": "Body mass index (BMI) [Ratio]",
          "userSelected": true
        } ]
      },
      "subject": {
        "reference": "Patient/d4d064be-d55a-47b5-9bfd-993afebd95a5"
      },
      "effectiveDateTime": "2026-01-01T00:30:00.000+00:00",
      "valueQuantity": {
        "value": 25,
        "unit": "kg/m2",
        "system": "http://unitsofmeasure.org",
        "code": "kg/m2"
      }
    },
    "request": {
      "method": "PUT",
      "url": "Observation/fa2f83ef-303a-4c4b-8661-164ea7f37ca6"
    }
  }, {
    "fullUrl": "https://madie.cms.gov/Procedure/0dd50417-87b4-48ba-9568-09e325a364d1",
    "resource": {
      "resourceType": "Procedure",
      "id": "0dd50417-87b4-48ba-9568-09e325a364d1",
      "meta": {
        "profile": [ "http://hl7.org/fhir/us/qicore/StructureDefinition/qicore-procedure" ]
      },
      "extension": [ {
        "url": "http://hl7.org/fhir/us/qicore/StructureDefinition/qicore-recorded",
        "valueDateTime": "2026-01-01T00:30:00.000+00:00"
      } ],
      "status": "completed",
      "code": {
        "coding": [ {
          "system": "http://snomed.info/sct",
          "version": "2022-03",
          "code": "182922004",
          "display": "Dietary regime (regime/therapy)",
          "userSelected": true
        } ]
      },
      "subject": {
        "reference": "Patient/d4d064be-d55a-47b5-9bfd-993afebd95a5"
      },
      "performedDateTime": "2026-01-01T00:30:00.000+00:00",
      "reasonCode": [ {
        "coding": [ {
          "system": "http://hl7.org/fhir/sid/icd-10-cm",
          "code": "E66.01",
          "display": "Morbid (severe) obesity due to excess calories",
          "userSelected": true
        } ]
      } ]
    },
    "request": {
      "method": "PUT",
      "url": "Procedure/0dd50417-87b4-48ba-9568-09e325a364d1"
    }
  }, {
    "fullUrl": "https://madie.cms.gov/Encounter/e3d321c2-6f7c-4474-93de-bb6c1b220e8d",
    "resource": {
      "resourceType": "Encounter",
      "id": "e3d321c2-6f7c-4474-93de-bb6c1b220e8d",
      "meta": {
        "profile": [ "http://hl7.org/fhir/us/qicore/StructureDefinition/qicore-encounter" ]
      },
      "status": "finished",
      "class": {
        "system": "http://terminology.hl7.org/CodeSystem/v3-ActCode",
        "code": "AMB",
        "display": "ambulatory"
      },
      "type": [ {
        "coding": [ {
          "system": "http://snomed.info/sct",
          "version": "2022-03",
          "code": "183452005",
          "display": "Emergency hospital admission (procedure)",
          "userSelected": true
        } ]
      } ],
      "subject": {
        "reference": "Patient/d4d064be-d55a-47b5-9bfd-993afebd95a5"
      },
      "period": {
        "start": "2026-12-31T08:00:00.000+00:00",
        "end": "2027-01-01T08:15:00.000+00:00"
      },
      "hospitalization": {
        "dischargeDisposition": {
          "coding": [ {
            "system": "http://snomed.info/sct",
            "code": "428361000124107",
            "display": "Discharge to home for hospice care (procedure)",
            "userSelected": true
          } ]
        }
      }
    },
    "request": {
      "method": "PUT",
      "url": "Encounter/e3d321c2-6f7c-4474-93de-bb6c1b220e8d"
    }
  }, {
    "fullUrl": "https://madie.cms.gov/Coverage/d355090a-41ca-4632-87a1-ea0b4cd6fdc4",
    "resource": {
      "resourceType": "Coverage",
      "id": "d355090a-41ca-4632-87a1-ea0b4cd6fdc4",
      "meta": {
        "profile": [ "http://hl7.org/fhir/us/qicore/StructureDefinition/qicore-coverage" ]
      },
      "status": "active",
      "beneficiary": {
        "reference": "Patient/d4d064be-d55a-47b5-9bfd-993afebd95a5"
      },
      "payor": [ {
        "reference": "Organization/ad2402cf-9688-4cae-9900-b72cd4570599"
      } ]
    },
    "request": {
      "method": "PUT",
      "url": "Coverage/d355090a-41ca-4632-87a1-ea0b4cd6fdc4"
    }
  }, {
    "fullUrl": "https://madie.cms.gov/Organization/ad2402cf-9688-4cae-9900-b72cd4570599",
    "resource": {
      "resourceType": "Organization",
      "id": "ad2402cf-9688-4cae-9900-b72cd4570599",
      "meta": {
        "profile": [ "http://hl7.org/fhir/us/qicore/StructureDefinition/qicore-organization" ]
      },
      "identifier": [ {
        "use": "temp",
        "system": "urn:oid:2.16.840.1.113883.4.4",
        "value": "21-3259825"
      } ],
      "active": true,
      "type": [ {
        "coding": [ {
          "system": "http://terminology.hl7.org/CodeSystem/organization-type",
          "code": "pay",
          "display": "Payer"
        } ]
      } ],
      "name": "Blue Cross Blue Shield of Texas",
      "telecom": [ {
        "system": "phone",
        "value": "(+1) 972-766-6900"
      } ],
      "address": [ {
        "use": "billing",
        "type": "postal",
        "line": [ "P.O. Box 660044" ],
        "city": "Dallas",
        "state": "TX",
        "postalCode": "75266-0044",
        "country": "USA"
      } ]
    },
    "request": {
      "method": "PUT",
      "url": "Organization/ad2402cf-9688-4cae-9900-b72cd4570599"
    }
  }, {
    "fullUrl": "https://madie.cms.gov/MeasureReport/9f404ea1-95f4-493f-8e1d-df795306efe5",
    "resource": {
      "resourceType": "MeasureReport",
      "id": "9f404ea1-95f4-493f-8e1d-df795306efe5",
      "meta": {
        "profile": [ "http://hl7.org/fhir/us/cqfmeasures/StructureDefinition/test-case-cqfm" ]
      },
      "contained": [ {
        "resourceType": "Parameters",
        "id": "f3b55172-7570-4f95-9318-88a532331413-parameters",
        "parameter": [ {
          "name": "subject",
          "valueString": "d4d064be-d55a-47b5-9bfd-993afebd95a5"
        } ]
      } ],
      "extension": [ {
        "url": "http://hl7.org/fhir/StructureDefinition/cqf-inputParameters",
        "valueReference": {
          "reference": "#f3b55172-7570-4f95-9318-88a532331413-parameters"
        }
      }, {
        "url": "http://hl7.org/fhir/us/cqfmeasures/StructureDefinition/cqfm-testCaseDescription",
        "valueMarkdown": "Adult, had amb enc first day of MP, has BMI high at 25 kg/m2, was discharge to hospice after MP, fails denex"
      } ],
      "modifierExtension": [ {
        "url": "http://hl7.org/fhir/us/cqfmeasures/StructureDefinition/cqfm-isTestCase",
        "valueBoolean": true
      } ],
      "status": "complete",
      "type": "individual",
      "measure": "https://madie.cms.gov/Measure/CMS69FHIRPCSBMIScreenAndFollowUp",
      "period": {
        "start": "2026-01-01",
        "end": "2026-12-31"
      },
      "group": [ {
        "id": "Group_1",
        "population": [ {
          "id": "InitialPopulation_1",
          "code": {
            "coding": [ {
              "system": "http://terminology.hl7.org/CodeSystem/measure-population",
              "code": "initial-population",
              "display": "Initial Population"
            } ]
          },
          "count": 1
        }, {
          "id": "Denominator_1",
          "code": {
            "coding": [ {
              "system": "http://terminology.hl7.org/CodeSystem/measure-population",
              "code": "denominator",
              "display": "Denominator"
            } ]
          },
          "count": 1
        }, {
          "id": "DenominatorExclusion_1",
          "code": {
            "coding": [ {
              "system": "http://terminology.hl7.org/CodeSystem/measure-population",
              "code": "denominator-exclusion",
              "display": "Denominator Exclusion"
            } ]
          },
          "count": 0
        }, {
          "id": "Numerator_1",
          "code": {
            "coding": [ {
              "system": "http://terminology.hl7.org/CodeSystem/measure-population",
              "code": "numerator",
              "display": "Numerator"
            } ]
          },
          "count": 1
        }, {
          "id": "DenominatorException_1",
          "code": {
            "coding": [ {
              "system": "http://terminology.hl7.org/CodeSystem/measure-population",
              "code": "denominator-exception",
              "display": "Denominator Exception"
            } ]
          },
          "count": 0
        } ],
        "measureScore": {
          "value": 1.0
        }
      } ],
      "evaluatedResource": [ {
        "reference": "Patient/d4d064be-d55a-47b5-9bfd-993afebd95a5"
      }, {
        "reference": "Encounter/a8881d0a-8eb7-4b36-bad5-eafd59a4ccd7"
      }, {
        "reference": "Observation/fa2f83ef-303a-4c4b-8661-164ea7f37ca6"
      }, {
        "reference": "Procedure/0dd50417-87b4-48ba-9568-09e325a364d1"
      }, {
        "reference": "Encounter/e3d321c2-6f7c-4474-93de-bb6c1b220e8d"
      }, {
        "reference": "Coverage/d355090a-41ca-4632-87a1-ea0b4cd6fdc4"
      }, {
        "reference": "Organization/ad2402cf-9688-4cae-9900-b72cd4570599"
      } ]
    },
    "request": {
      "method": "PUT",
      "url": "MeasureReport/9f404ea1-95f4-493f-8e1d-df795306efe5"
    }
  } ]
}