{
  "resourceType": "Bundle",
  "id": "63598dd9c35f1c19df09adbd",
  "type": "transaction",
  "entry": [ {
    "fullUrl": "https://madie.cms.gov/Patient/973b0d7a-ac92-4882-9b38-0bfca797269f",
    "resource": {
      "resourceType": "Patient",
      "id": "973b0d7a-ac92-4882-9b38-0bfca797269f",
      "meta": {
        "profile": [ "http://hl7.org/fhir/us/qicore/StructureDefinition/qicore-patient" ]
      },
      "text": {
        "status": "generated",
        "div": "<div xmlns=\"http://www.w3.org/1999/xhtml\"><div class=\"hapiHeaderText\">RISKHRRelDtTimeEQDelStartless1Min <b>RISKPass </b></div><table class=\"hapiPropertyTable\"><tbody><tr><td>Date of birth</td><td><span>01 February 2004</span></td></tr></tbody></table></div>"
      },
      "extension": [ {
        "url": "http://hl7.org/fhir/us/core/StructureDefinition/us-core-race",
        "extension": [ {
          "url": "ombCategory",
          "valueCoding": {
            "system": "urn:oid:2.16.840.1.113883.6.238",
            "code": "1002-5",
            "display": "American Indian or Alaska Native",
            "userSelected": true
          }
        }, {
          "url": "text",
          "valueString": "American Indian or Alaska Native"
        } ]
      }, {
        "url": "http://hl7.org/fhir/us/core/StructureDefinition/us-core-ethnicity",
        "extension": [ {
          "url": "ombCategory",
          "valueCoding": {
            "system": "urn:oid:2.16.840.1.113883.6.238",
            "code": "2135-2",
            "display": "Hispanic or Latino",
            "userSelected": true
          }
        }, {
          "url": "text",
          "valueString": "Hispanic or Latino"
        } ]
      } ],
      "identifier": [ {
        "type": {
          "coding": [ {
            "system": "http://terminology.hl7.org/CodeSystem/v2-0203",
            "code": "MR"
          } ]
        },
        "system": "https://bonnie-fhir.healthit.gov/",
        "value": "63598dd9c35f1c19df09adbd"
      } ],
      "active": true,
      "name": [ {
        "use": "usual",
        "family": "RiskPass",
        "given": [ "RISKHRRelDtTimeEQDelStartless1Min" ]
      } ],
      "gender": "female",
      "birthDate": "2005-02-01"
    },
    "request": {
      "method": "PUT",
      "url": "Patient/973b0d7a-ac92-4882-9b38-0bfca797269f"
    }
  }, {
    "fullUrl": "https://madie.cms.gov/Observation/ebc58f88-eef3-4482-aa69-a554c8fa23c2",
    "resource": {
      "resourceType": "Observation",
      "id": "ebc58f88-eef3-4482-aa69-a554c8fa23c2",
      "meta": {
        "profile": [ "http://hl7.org/fhir/us/qicore/StructureDefinition/qicore-simple-observation" ]
      },
      "status": "final",
      "category": [ {
        "coding": [ {
          "system": "http://terminology.hl7.org/CodeSystem/observation-category",
          "code": "exam",
          "display": "exam",
          "userSelected": true
        } ]
      } ],
      "code": {
        "coding": [ {
          "system": "http://loinc.org",
          "code": "93857-1"
        } ]
      },
      "subject": {
        "reference": "Patient/973b0d7a-ac92-4882-9b38-0bfca797269f"
      },
      "effectiveDateTime": "2026-02-01T08:00:00Z",
      "valueDateTime": "2026-02-01T08:00:00Z"
    },
    "request": {
      "method": "PUT",
      "url": "Observation/ebc58f88-eef3-4482-aa69-a554c8fa23c2"
    }
  }, {
    "fullUrl": "https://madie.cms.gov/Observation/929e9539-ae5b-4c8a-8b31-5b84dd5b3d19",
    "resource": {
      "resourceType": "Observation",
      "id": "929e9539-ae5b-4c8a-8b31-5b84dd5b3d19",
      "meta": {
        "profile": [ "http://hl7.org/fhir/us/qicore/StructureDefinition/qicore-simple-observation" ]
      },
      "status": "final",
      "category": [ {
        "coding": [ {
          "system": "http://terminology.hl7.org/CodeSystem/observation-category",
          "code": "exam",
          "display": "exam",
          "userSelected": true
        } ]
      } ],
      "code": {
        "coding": [ {
          "system": "http://loinc.org",
          "code": "11884-4"
        } ]
      },
      "subject": {
        "reference": "Patient/973b0d7a-ac92-4882-9b38-0bfca797269f"
      },
      "effectiveDateTime": "2026-02-01T08:00:00Z",
      "valueQuantity": {
        "value": 21,
        "system": "http://unitsofmeasure.org",
        "code": "wk"
      }
    },
    "request": {
      "method": "PUT",
      "url": "Observation/929e9539-ae5b-4c8a-8b31-5b84dd5b3d19"
    }
  }, {
    "fullUrl": "https://madie.cms.gov/Encounter/ca3e69c0-4b17-435c-bfd3-224caa4025a3",
    "resource": {
      "resourceType": "Encounter",
      "id": "ca3e69c0-4b17-435c-bfd3-224caa4025a3",
      "meta": {
        "profile": [ "http://hl7.org/fhir/us/qicore/StructureDefinition/qicore-encounter" ]
      },
      "status": "finished",
      "class": {
        "system": "http://terminology.hl7.org/CodeSystem/v3-ActCode",
        "code": "IMP",
        "display": "inpatient encounter"
      },
      "type": [ {
        "coding": [ {
          "system": "http://snomed.info/sct",
          "code": "183452005"
        } ]
      } ],
      "subject": {
        "reference": "Patient/973b0d7a-ac92-4882-9b38-0bfca797269f"
      },
      "period": {
        "start": "2026-02-01T08:00:00Z",
        "end": "2026-02-05T08:15:00Z"
      }
    },
    "request": {
      "method": "PUT",
      "url": "Encounter/ca3e69c0-4b17-435c-bfd3-224caa4025a3"
    }
  }, {
    "fullUrl": "https://madie.cms.gov/Encounter/a33aa065-e8e9-44a1-a83e-1095729fbc0e",
    "resource": {
      "resourceType": "Encounter",
      "id": "a33aa065-e8e9-44a1-a83e-1095729fbc0e",
      "meta": {
        "profile": [ "http://hl7.org/fhir/us/qicore/StructureDefinition/qicore-encounter" ]
      },
      "status": "finished",
      "class": {
        "system": "http://terminology.hl7.org/CodeSystem/v3-ActCode",
        "code": "EMER",
        "display": "emergency"
      },
      "type": [ {
        "coding": [ {
          "system": "http://snomed.info/sct",
          "code": "4525004"
        } ]
      } ],
      "subject": {
        "reference": "Patient/973b0d7a-ac92-4882-9b38-0bfca797269f"
      },
      "period": {
        "start": "2026-02-01T07:00:00Z",
        "end": "2026-02-01T07:59:00Z"
      }
    },
    "request": {
      "method": "PUT",
      "url": "Encounter/a33aa065-e8e9-44a1-a83e-1095729fbc0e"
    }
  }, {
    "fullUrl": "https://madie.cms.gov/Procedure/c0c4c84b-e5f9-4b56-90bc-5a18935939bc",
    "resource": {
      "resourceType": "Procedure",
      "id": "c0c4c84b-e5f9-4b56-90bc-5a18935939bc",
      "meta": {
        "profile": [ "http://hl7.org/fhir/us/qicore/StructureDefinition/qicore-procedure" ]
      },
      "extension": [ {
        "url": "http://hl7.org/fhir/us/qicore/StructureDefinition/qicore-recorded",
        "valueDateTime": "2026-02-04T13:35:00Z"
      } ],
      "status": "completed",
      "code": {
        "coding": [ {
          "system": "http://snomed.info/sct",
          "code": "10745001"
        } ]
      },
      "subject": {
        "reference": "Patient/973b0d7a-ac92-4882-9b38-0bfca797269f"
      },
      "performedPeriod": {
        "start": "2026-02-01T08:00:00Z",
        "end": "2026-02-05T08:15:00Z"
      }
    },
    "request": {
      "method": "PUT",
      "url": "Procedure/c0c4c84b-e5f9-4b56-90bc-5a18935939bc"
    }
  }, {
    "fullUrl": "https://madie.cms.gov/Observation/87a09a57-c3bf-40c7-9b48-eadfcafdaa74",
    "resource": {
      "resourceType": "Observation",
      "id": "87a09a57-c3bf-40c7-9b48-eadfcafdaa74",
      "meta": {
        "profile": [ " http://hl7.org/fhir/us/core/StructureDefinition/us-core-heart-rate" ]
      },
      "status": "final",
      "category": [ {
        "coding": [ {
          "system": "http://terminology.hl7.org/CodeSystem/observation-category",
          "code": "vital-signs",
          "display": "vital-signs",
          "userSelected": true
        } ]
      } ],
      "code": {
        "coding": [ {
          "system": "http://loinc.org",
          "version": "2.73",
          "code": "8867-4",
          "display": "Heart Rate"
        } ]
      },
      "subject": {
        "reference": "Patient/973b0d7a-ac92-4882-9b38-0bfca797269f"
      },
      "effectiveDateTime": "2026-02-01T07:00:00Z",
      "valueQuantity": {
        "value": 85,
        "unit": "/min",
        "system": "http://unitsofmeasure.org",
        "code": "/min"
      }
    },
    "request": {
      "method": "PUT",
      "url": "Observation/87a09a57-c3bf-40c7-9b48-eadfcafdaa74"
    }
  }, {
    "fullUrl": "https://madie.cms.gov/Observation/ebc58f88-eef3-4482-aa69-a554c8fa23c2a",
    "resource": {
      "resourceType": "Observation",
      "id": "ebc58f88-eef3-4482-aa69-a554c8fa23c2a",
      "meta": {
        "profile": [ "http://hl7.org/fhir/us/qicore/StructureDefinition/qicore-simple-observation" ]
      },
      "status": "final",
      "category": [ {
        "coding": [ {
          "system": "http://terminology.hl7.org/CodeSystem/observation-category",
          "code": "exam",
          "display": "exam",
          "userSelected": true
        } ]
      } ],
      "code": {
        "coding": [ {
          "system": "http://loinc.org",
          "code": "93857-1"
        } ]
      },
      "subject": {
        "reference": "Patient/973b0d7a-ac92-4882-9b38-0bfca797269f"
      },
      "effectiveDateTime": "2026-12-01T08:00:00Z",
      "valueDateTime": "2026-12-01T08:00:00Z"
    },
    "request": {
      "method": "PUT",
      "url": "Observation/ebc58f88-eef3-4482-aa69-a554c8fa23c2a"
    }
  }, {
    "fullUrl": "https://madie.cms.gov/Observation/929e9539-ae5b-4c8a-8b31-5b84dd5b3d19a",
    "resource": {
      "resourceType": "Observation",
      "id": "929e9539-ae5b-4c8a-8b31-5b84dd5b3d19a",
      "meta": {
        "profile": [ "http://hl7.org/fhir/us/qicore/StructureDefinition/qicore-simple-observation" ]
      },
      "status": "final",
      "category": [ {
        "coding": [ {
          "system": "http://terminology.hl7.org/CodeSystem/observation-category",
          "code": "exam",
          "display": "exam",
          "userSelected": true
        } ]
      } ],
      "code": {
        "coding": [ {
          "system": "http://loinc.org",
          "code": "11884-4"
        } ]
      },
      "subject": {
        "reference": "Patient/973b0d7a-ac92-4882-9b38-0bfca797269f"
      },
      "effectiveDateTime": "2026-12-01T08:00:00Z",
      "valueQuantity": {
        "value": 21,
        "system": "http://unitsofmeasure.org",
        "code": "wk"
      }
    },
    "request": {
      "method": "PUT",
      "url": "Observation/929e9539-ae5b-4c8a-8b31-5b84dd5b3d19a"
    }
  }, {
    "fullUrl": "https://madie.cms.gov/Encounter/ca3e69c0-4b17-435c-bfd3-224caa4025a3a",
    "resource": {
      "resourceType": "Encounter",
      "id": "ca3e69c0-4b17-435c-bfd3-224caa4025a3a",
      "meta": {
        "profile": [ "http://hl7.org/fhir/us/qicore/StructureDefinition/qicore-encounter" ]
      },
      "status": "finished",
      "class": {
        "system": "http://terminology.hl7.org/CodeSystem/v3-ActCode",
        "code": "IMP",
        "display": "inpatient encounter"
      },
      "type": [ {
        "coding": [ {
          "system": "http://snomed.info/sct",
          "code": "183452005"
        } ]
      } ],
      "subject": {
        "reference": "Patient/973b0d7a-ac92-4882-9b38-0bfca797269f"
      },
      "period": {
        "start": "2026-12-01T08:00:00Z",
        "end": "2026-12-05T08:15:00Z"
      }
    },
    "request": {
      "method": "PUT",
      "url": "Encounter/ca3e69c0-4b17-435c-bfd3-224caa4025a3a"
    }
  }, {
    "fullUrl": "https://madie.cms.gov/Encounter/a33aa065-e8e9-44a1-a83e-1095729fbc0ea",
    "resource": {
      "resourceType": "Encounter",
      "id": "a33aa065-e8e9-44a1-a83e-1095729fbc0ea",
      "meta": {
        "profile": [ "http://hl7.org/fhir/us/qicore/StructureDefinition/qicore-encounter" ]
      },
      "status": "finished",
      "class": {
        "system": "http://terminology.hl7.org/CodeSystem/v3-ActCode",
        "code": "EMER",
        "display": "emergency"
      },
      "type": [ {
        "coding": [ {
          "system": "http://snomed.info/sct",
          "code": "4525004"
        } ]
      } ],
      "subject": {
        "reference": "Patient/973b0d7a-ac92-4882-9b38-0bfca797269f"
      },
      "period": {
        "start": "2026-12-01T07:00:00Z",
        "end": "2026-12-01T07:59:00Z"
      }
    },
    "request": {
      "method": "PUT",
      "url": "Encounter/a33aa065-e8e9-44a1-a83e-1095729fbc0ea"
    }
  }, {
    "fullUrl": "https://madie.cms.gov/Procedure/c0c4c84b-e5f9-4b56-90bc-5a18935939bca",
    "resource": {
      "resourceType": "Procedure",
      "id": "c0c4c84b-e5f9-4b56-90bc-5a18935939bca",
      "meta": {
        "profile": [ "http://hl7.org/fhir/us/qicore/StructureDefinition/qicore-procedure" ]
      },
      "extension": [ {
        "url": "http://hl7.org/fhir/us/qicore/StructureDefinition/qicore-recorded",
        "valueDateTime": "2026-12-04T13:35:00Z"
      } ],
      "status": "completed",
      "code": {
        "coding": [ {
          "system": "http://snomed.info/sct",
          "code": "10745001"
        } ]
      },
      "subject": {
        "reference": "Patient/973b0d7a-ac92-4882-9b38-0bfca797269f"
      },
      "performedPeriod": {
        "start": "2026-12-01T08:00:00Z",
        "end": "2026-12-05T08:15:00Z"
      }
    },
    "request": {
      "method": "PUT",
      "url": "Procedure/c0c4c84b-e5f9-4b56-90bc-5a18935939bca"
    }
  }, {
    "fullUrl": "https://madie.cms.gov/Observation/87a09a57-c3bf-40c7-9b48-eadfcafdaa74a",
    "resource": {
      "resourceType": "Observation",
      "id": "87a09a57-c3bf-40c7-9b48-eadfcafdaa74a",
      "meta": {
        "profile": [ "http://hl7.org/fhir/StructureDefinition/heartrate" ]
      },
      "status": "final",
      "category": [ {
        "coding": [ {
          "system": "http://hl7.org/fhir/us/core/StructureDefinition/us-core-heart-rate",
          "code": "vital-signs",
          "display": "vital-signs",
          "userSelected": true
        } ]
      } ],
      "code": {
        "coding": [ {
          "system": "http://loinc.org",
          "version": "2.73",
          "code": "8867-4",
          "display": "Heart Rate"
        } ]
      },
      "subject": {
        "reference": "Patient/973b0d7a-ac92-4882-9b38-0bfca797269f"
      },
      "effectiveDateTime": "2026-12-01T07:00:00Z",
      "valueQuantity": {
        "value": 90,
        "unit": "/min",
        "system": "http://unitsofmeasure.org",
        "code": "/min"
      }
    },
    "request": {
      "method": "PUT",
      "url": "Observation/87a09a57-c3bf-40c7-9b48-eadfcafdaa74a"
    }
  }, {
    "fullUrl": "https://madie.cms.gov/MeasureReport/cb348028-493d-499d-9f9e-6f864216c0df",
    "resource": {
      "resourceType": "MeasureReport",
      "id": "cb348028-493d-499d-9f9e-6f864216c0df",
      "meta": {
        "profile": [ "http://hl7.org/fhir/us/cqfmeasures/StructureDefinition/test-case-cqfm" ]
      },
      "contained": [ {
        "resourceType": "Parameters",
        "id": "779601fb-c084-4927-832c-77bebe99d41e-parameters",
        "parameter": [ {
          "name": "subject",
          "valueString": "973b0d7a-ac92-4882-9b38-0bfca797269f"
        } ]
      } ],
      "extension": [ {
        "url": "http://hl7.org/fhir/StructureDefinition/cqf-inputParameters",
        "valueReference": {
          "reference": "#779601fb-c084-4927-832c-77bebe99d41e-parameters"
        }
      }, {
        "url": "http://hl7.org/fhir/us/cqfmeasures/StructureDefinition/cqfm-testCaseDescription",
        "valueMarkdown": "Risk variable Placental Accreta Spectrum, \"placenta accreta, unspecified trimester\" in Placenta Accreta value set."
      } ],
      "modifierExtension": [ {
        "url": "http://hl7.org/fhir/us/cqfmeasures/StructureDefinition/cqfm-isTestCase",
        "valueBoolean": true
      } ],
      "status": "complete",
      "type": "individual",
      "measure": "https://madie.cms.gov/Measure/CMS1028FHIRPCSevereOBComps",
      "period": {
        "start": "2026-01-01",
        "end": "2026-12-31"
      },
      "group": [ {
        "id": "Group_1",
        "population": [ {
          "id": "InitialPopulation_1",
          "code": {
            "coding": [ {
              "system": "http://terminology.hl7.org/CodeSystem/measure-population",
              "code": "initial-population",
              "display": "Initial Population"
            } ]
          },
          "count": 1
        }, {
          "id": "Denominator_1",
          "code": {
            "coding": [ {
              "system": "http://terminology.hl7.org/CodeSystem/measure-population",
              "code": "denominator",
              "display": "Denominator"
            } ]
          },
          "count": 1
        }, {
          "id": "Numerator_1",
          "code": {
            "coding": [ {
              "system": "http://terminology.hl7.org/CodeSystem/measure-population",
              "code": "numerator",
              "display": "Numerator"
            } ]
          },
          "count": 1
        }, {
          "id": "NumeratorExclusion_1",
          "code": {
            "coding": [ {
              "system": "http://terminology.hl7.org/CodeSystem/measure-population",
              "code": "numerator-exclusion",
              "display": "Numerator Exclusion"
            } ]
          },
          "count": 0
        } ],
        "measureScore": {
          "value": 0.0
        }
      }, {
        "id": "Group_2",
        "population": [ {
          "id": "InitialPopulation_2",
          "code": {
            "coding": [ {
              "system": "http://terminology.hl7.org/CodeSystem/measure-population",
              "code": "initial-population",
              "display": "Initial Population"
            } ]
          },
          "count": 1
        }, {
          "id": "Denominator_2",
          "code": {
            "coding": [ {
              "system": "http://terminology.hl7.org/CodeSystem/measure-population",
              "code": "denominator",
              "display": "Denominator"
            } ]
          },
          "count": 1
        }, {
          "id": "Numerator_2",
          "code": {
            "coding": [ {
              "system": "http://terminology.hl7.org/CodeSystem/measure-population",
              "code": "numerator",
              "display": "Numerator"
            } ]
          },
          "count": 1
        }, {
          "id": "NumeratorExclusion_2",
          "code": {
            "coding": [ {
              "system": "http://terminology.hl7.org/CodeSystem/measure-population",
              "code": "numerator-exclusion",
              "display": "Numerator Exclusion"
            } ]
          },
          "count": 0
        } ],
        "measureScore": {
          "value": 0.0
        }
      } ],
      "evaluatedResource": [ {
        "reference": "Patient/973b0d7a-ac92-4882-9b38-0bfca797269f"
      }, {
        "reference": "Observation/ebc58f88-eef3-4482-aa69-a554c8fa23c2"
      }, {
        "reference": "Observation/929e9539-ae5b-4c8a-8b31-5b84dd5b3d19"
      }, {
        "reference": "Encounter/ca3e69c0-4b17-435c-bfd3-224caa4025a3"
      }, {
        "reference": "Encounter/a33aa065-e8e9-44a1-a83e-1095729fbc0e"
      }, {
        "reference": "Procedure/c0c4c84b-e5f9-4b56-90bc-5a18935939bc"
      }, {
        "reference": "Observation/87a09a57-c3bf-40c7-9b48-eadfcafdaa74"
      }, {
        "reference": "Observation/ebc58f88-eef3-4482-aa69-a554c8fa23c2a"
      }, {
        "reference": "Observation/929e9539-ae5b-4c8a-8b31-5b84dd5b3d19a"
      }, {
        "reference": "Encounter/ca3e69c0-4b17-435c-bfd3-224caa4025a3a"
      }, {
        "reference": "Encounter/a33aa065-e8e9-44a1-a83e-1095729fbc0ea"
      }, {
        "reference": "Procedure/c0c4c84b-e5f9-4b56-90bc-5a18935939bca"
      }, {
        "reference": "Observation/87a09a57-c3bf-40c7-9b48-eadfcafdaa74a"
      } ]
    },
    "request": {
      "method": "PUT",
      "url": "MeasureReport/cb348028-493d-499d-9f9e-6f864216c0df"
    }
  } ]
}