{
  "resourceType": "Bundle",
  "id": "612e6b1a02c62a011f2ec76c",
  "type": "transaction",
  "entry": [ {
    "fullUrl": "https://madie.cms.gov/Patient/c2dfc5ca-96db-4ae2-bbe1-7bfed219cb72",
    "resource": {
      "resourceType": "Patient",
      "id": "c2dfc5ca-96db-4ae2-bbe1-7bfed219cb72",
      "meta": {
        "profile": [ "http://hl7.org/fhir/us/qicore/StructureDefinition/qicore-patient" ]
      },
      "text": {
        "status": "generated",
        "div": "<div xmlns=\"http://www.w3.org/1999/xhtml\"><div class=\"hapiHeaderText\">ProphylaxisDuringFirstED1DayBFAdm <b>NUMERFAIL </b></div><table class=\"hapiPropertyTable\"><tbody><tr><td>Identifier</td><td>4a3cf6afd879a8f9468f9b4b43b7b032</td></tr><tr><td>Date of birth</td><td><span>02 September 2003</span></td></tr></tbody></table></div>"
      },
      "extension": [ {
        "url": "http://hl7.org/fhir/us/core/StructureDefinition/us-core-race",
        "extension": [ {
          "url": "ombCategory",
          "valueCoding": {
            "system": "urn:oid:2.16.840.1.113883.6.238",
            "code": "1002-5",
            "display": "American Indian or Alaska Native",
            "userSelected": true
          }
        }, {
          "url": "text",
          "valueString": "American Indian or Alaska Native"
        } ]
      }, {
        "url": "http://hl7.org/fhir/us/core/StructureDefinition/us-core-ethnicity",
        "extension": [ {
          "url": "ombCategory",
          "valueCoding": {
            "system": "urn:oid:2.16.840.1.113883.6.238",
            "code": "2135-2",
            "display": "Hispanic or Latino",
            "userSelected": true
          }
        }, {
          "url": "text",
          "valueString": "Hispanic or Latino"
        } ]
      } ],
      "identifier": [ {
        "type": {
          "coding": [ {
            "system": "http://terminology.hl7.org/CodeSystem/v2-0203",
            "code": "MR"
          } ]
        },
        "system": "https://bonnie-fhir.healthit.gov/",
        "value": "612e6b1a02c62a011f2ec76c"
      } ],
      "active": true,
      "name": [ {
        "use": "usual",
        "family": "NUMERFail",
        "given": [ "ProphylaxisDuringFirstED1DayBFAdm" ]
      } ],
      "gender": "male",
      "birthDate": "2004-09-02"
    },
    "request": {
      "method": "PUT",
      "url": "Patient/c2dfc5ca-96db-4ae2-bbe1-7bfed219cb72"
    }
  }, {
    "fullUrl": "https://madie.cms.gov/Encounter/90cf852f-39d2-4b67-b5ef-1e833a722883",
    "resource": {
      "resourceType": "Encounter",
      "id": "90cf852f-39d2-4b67-b5ef-1e833a722883",
      "meta": {
        "profile": [ "http://hl7.org/fhir/us/qicore/StructureDefinition/qicore-encounter" ]
      },
      "status": "finished",
      "class": {
        "system": "http://terminology.hl7.org/CodeSystem/v3-ActCode",
        "code": "IMP",
        "display": "inpatient encounter"
      },
      "type": [ {
        "coding": [ {
          "system": "http://snomed.info/sct",
          "code": "183452005"
        } ]
      } ],
      "subject": {
        "reference": "Patient/c2dfc5ca-96db-4ae2-bbe1-7bfed219cb72"
      },
      "period": {
        "start": "2026-09-03T09:40:00.000+00:00",
        "end": "2026-10-01T12:59:00.000+00:00"
      }
    },
    "request": {
      "method": "PUT",
      "url": "Encounter/90cf852f-39d2-4b67-b5ef-1e833a722883"
    }
  }, {
    "fullUrl": "https://madie.cms.gov/Encounter/75b3926a-d5d2-4b4c-a120-2ac126532c50",
    "resource": {
      "resourceType": "Encounter",
      "id": "75b3926a-d5d2-4b4c-a120-2ac126532c50",
      "meta": {
        "profile": [ "http://hl7.org/fhir/us/qicore/StructureDefinition/qicore-encounter" ]
      },
      "status": "finished",
      "class": {
        "system": "http://terminology.hl7.org/CodeSystem/v3-ActCode",
        "code": "EMER",
        "display": "emergency"
      },
      "type": [ {
        "coding": [ {
          "system": "http://snomed.info/sct",
          "code": "4525004"
        } ]
      } ],
      "subject": {
        "reference": "Patient/c2dfc5ca-96db-4ae2-bbe1-7bfed219cb72"
      },
      "period": {
        "start": "2026-09-01T08:00:00.000+00:00",
        "end": "2026-09-01T09:00:00.000+00:00"
      }
    },
    "request": {
      "method": "PUT",
      "url": "Encounter/75b3926a-d5d2-4b4c-a120-2ac126532c50"
    }
  }, {
    "fullUrl": "https://madie.cms.gov/Encounter/fece88c6-695c-4a58-89e8-9fc7bce2c869",
    "resource": {
      "resourceType": "Encounter",
      "id": "fece88c6-695c-4a58-89e8-9fc7bce2c869",
      "meta": {
        "profile": [ "http://hl7.org/fhir/us/qicore/StructureDefinition/qicore-encounter" ]
      },
      "status": "finished",
      "class": {
        "system": "http://terminology.hl7.org/CodeSystem/v3-ActCode",
        "code": "OBSENC",
        "display": "observation encounter"
      },
      "type": [ {
        "coding": [ {
          "system": "http://snomed.info/sct",
          "code": "448851000124103"
        } ]
      } ],
      "subject": {
        "reference": "Patient/c2dfc5ca-96db-4ae2-bbe1-7bfed219cb72"
      },
      "period": {
        "start": "2026-09-01T09:45:00.000+00:00",
        "end": "2026-09-02T09:00:00.000+00:00"
      }
    },
    "request": {
      "method": "PUT",
      "url": "Encounter/fece88c6-695c-4a58-89e8-9fc7bce2c869"
    }
  }, {
    "fullUrl": "https://madie.cms.gov/Encounter/20284cad-eb33-4a06-a629-0e2c9b736d3e",
    "resource": {
      "resourceType": "Encounter",
      "id": "20284cad-eb33-4a06-a629-0e2c9b736d3e",
      "meta": {
        "profile": [ "http://hl7.org/fhir/us/qicore/StructureDefinition/qicore-encounter" ]
      },
      "status": "finished",
      "class": {
        "system": "http://terminology.hl7.org/CodeSystem/v3-ActCode",
        "code": "EMER",
        "display": "emergency"
      },
      "type": [ {
        "coding": [ {
          "system": "http://snomed.info/sct",
          "code": "4525004"
        } ]
      } ],
      "subject": {
        "reference": "Patient/c2dfc5ca-96db-4ae2-bbe1-7bfed219cb72"
      },
      "period": {
        "start": "2026-09-02T09:15:00.000+00:00",
        "end": "2026-09-02T09:45:00.000+00:00"
      }
    },
    "request": {
      "method": "PUT",
      "url": "Encounter/20284cad-eb33-4a06-a629-0e2c9b736d3e"
    }
  }, {
    "fullUrl": "https://madie.cms.gov/Coverage/21bf5e3c-b1eb-4c08-b970-18f616583fd7",
    "resource": {
      "resourceType": "Coverage",
      "id": "21bf5e3c-b1eb-4c08-b970-18f616583fd7",
      "status": "active",
      "beneficiary": {
        "reference": "Patient/c2dfc5ca-96db-4ae2-bbe1-7bfed219cb72"
      },
      "period": {
        "start": "2004-09-02T09:00:00.000+00:00"
      },
      "payor": [ {
        "reference": "Organization/277b9374-d2c0-4077-8481-10ad8cf1482e"
      } ]
    },
    "request": {
      "method": "PUT",
      "url": "Coverage/21bf5e3c-b1eb-4c08-b970-18f616583fd7"
    }
  }, {
    "fullUrl": "https://madie.cms.gov/MedicationAdministration/12e8c2a6-8286-4729-a37a-ddc9e002407e",
    "resource": {
      "resourceType": "MedicationAdministration",
      "id": "12e8c2a6-8286-4729-a37a-ddc9e002407e",
      "meta": {
        "profile": [ "http://hl7.org/fhir/us/qicore/StructureDefinition/qicore-medicationadministration" ]
      },
      "status": "completed",
      "medicationCodeableConcept": {
        "coding": [ {
          "system": "http://www.nlm.nih.gov/research/umls/rxnorm",
          "code": "861356"
        } ]
      },
      "subject": {
        "reference": "Patient/c2dfc5ca-96db-4ae2-bbe1-7bfed219cb72"
      },
      "effectivePeriod": {
        "start": "2026-09-02T08:15:00.000+00:00",
        "end": "2026-09-02T08:30:00.000+00:00"
      }
    },
    "request": {
      "method": "PUT",
      "url": "MedicationAdministration/12e8c2a6-8286-4729-a37a-ddc9e002407e"
    }
  }, {
    "fullUrl": "https://madie.cms.gov/Organization/277b9374-d2c0-4077-8481-10ad8cf1482e",
    "resource": {
      "resourceType": "Organization",
      "id": "277b9374-d2c0-4077-8481-10ad8cf1482e",
      "meta": {
        "profile": [ "http://hl7.org/fhir/us/qicore/StructureDefinition/qicore-organization" ]
      },
      "identifier": [ {
        "use": "temp",
        "system": "urn:oid:2.16.840.1.113883.4.4",
        "value": "21-3259825"
      } ],
      "active": true,
      "type": [ {
        "coding": [ {
          "system": "http://terminology.hl7.org/CodeSystem/organization-type",
          "code": "pay",
          "display": "Payer"
        } ]
      } ],
      "name": "Blue Cross Blue Shield of Texas",
      "telecom": [ {
        "system": "phone",
        "value": "(+1) 972-766-6900"
      } ],
      "address": [ {
        "use": "billing",
        "type": "postal",
        "line": [ "P.O. Box 660044" ],
        "city": "Dallas",
        "state": "TX",
        "postalCode": "75266-0044",
        "country": "USA"
      } ]
    },
    "request": {
      "method": "PUT",
      "url": "Organization/277b9374-d2c0-4077-8481-10ad8cf1482e"
    }
  }, {
    "fullUrl": "https://madie.cms.gov/Practitioner/73eaa1e1-3451-407c-baed-1201eeb1cada",
    "resource": {
      "resourceType": "Practitioner",
      "id": "73eaa1e1-3451-407c-baed-1201eeb1cada",
      "identifier": [ {
        "system": "http://hl7.org/fhir/sid/us-npi",
        "value": "123456"
      } ],
      "name": [ {
        "family": "Evil",
        "prefix": [ "Dr" ]
      } ]
    },
    "request": {
      "method": "PUT",
      "url": "Practitioner/73eaa1e1-3451-407c-baed-1201eeb1cada"
    }
  }, {
    "fullUrl": "https://madie.cms.gov/MeasureReport/abb69d68-f9fa-478c-a787-a8e3c1e8d076",
    "resource": {
      "resourceType": "MeasureReport",
      "id": "abb69d68-f9fa-478c-a787-a8e3c1e8d076",
      "meta": {
        "profile": [ "http://hl7.org/fhir/us/cqfmeasures/StructureDefinition/test-case-cqfm" ]
      },
      "contained": [ {
        "resourceType": "Parameters",
        "id": "f9205134-778d-4833-9ac4-a3912abf5e08-parameters",
        "parameter": [ {
          "name": "subject",
          "valueString": "c2dfc5ca-96db-4ae2-bbe1-7bfed219cb72"
        } ]
      } ],
      "extension": [ {
        "url": "http://hl7.org/fhir/StructureDefinition/cqf-inputParameters",
        "valueReference": {
          "reference": "#f9205134-778d-4833-9ac4-a3912abf5e08-parameters"
        }
      }, {
        "url": "http://hl7.org/fhir/us/cqfmeasures/StructureDefinition/cqfm-testCaseDescription",
        "valueMarkdown": "ED/outpatient @ 9/1 @8:00 - 9:00 am; feeling sick returned to ED @ 9:15 -9:45 am; admit for observ 9/3  @9:45 -  9/3 @ 9:00 am; then admitted to inpatient on 9/3 @ 9:40. prophylaxis given during the FIRST ED on 1 day bF  2nd ED. SO Fail\n"
      } ],
      "modifierExtension": [ {
        "url": "http://hl7.org/fhir/us/cqfmeasures/StructureDefinition/cqfm-isTestCase",
        "valueBoolean": true
      } ],
      "status": "complete",
      "type": "individual",
      "measure": "https://madie.cms.gov/Measure/CMS108FHIRVTEProphylaxis",
      "period": {
        "start": "2026-01-01",
        "end": "2026-12-31"
      },
      "group": [ {
        "id": "Group_1",
        "population": [ {
          "id": "InitialPopulation_1",
          "code": {
            "coding": [ {
              "system": "http://terminology.hl7.org/CodeSystem/measure-population",
              "code": "initial-population",
              "display": "Initial Population"
            } ]
          },
          "count": 1
        }, {
          "id": "Denominator_1",
          "code": {
            "coding": [ {
              "system": "http://terminology.hl7.org/CodeSystem/measure-population",
              "code": "denominator",
              "display": "Denominator"
            } ]
          },
          "count": 1
        }, {
          "id": "DenominatorExclusion_1",
          "code": {
            "coding": [ {
              "system": "http://terminology.hl7.org/CodeSystem/measure-population",
              "code": "denominator-exclusion",
              "display": "Denominator Exclusion"
            } ]
          },
          "count": 0
        }, {
          "id": "Numerator_1",
          "code": {
            "coding": [ {
              "system": "http://terminology.hl7.org/CodeSystem/measure-population",
              "code": "numerator",
              "display": "Numerator"
            } ]
          },
          "count": 0
        } ],
        "measureScore": {
          "value": 0.0
        }
      } ],
      "evaluatedResource": [ {
        "reference": "Patient/c2dfc5ca-96db-4ae2-bbe1-7bfed219cb72"
      }, {
        "reference": "Encounter/90cf852f-39d2-4b67-b5ef-1e833a722883"
      }, {
        "reference": "Encounter/75b3926a-d5d2-4b4c-a120-2ac126532c50"
      }, {
        "reference": "Encounter/fece88c6-695c-4a58-89e8-9fc7bce2c869"
      }, {
        "reference": "Encounter/20284cad-eb33-4a06-a629-0e2c9b736d3e"
      }, {
        "reference": "Coverage/21bf5e3c-b1eb-4c08-b970-18f616583fd7"
      }, {
        "reference": "MedicationAdministration/12e8c2a6-8286-4729-a37a-ddc9e002407e"
      }, {
        "reference": "Organization/277b9374-d2c0-4077-8481-10ad8cf1482e"
      }, {
        "reference": "Practitioner/73eaa1e1-3451-407c-baed-1201eeb1cada"
      } ]
    },
    "request": {
      "method": "PUT",
      "url": "MeasureReport/abb69d68-f9fa-478c-a787-a8e3c1e8d076"
    }
  } ]
}