{
  "resourceType": "Bundle",
  "id": "c5b2c76c-cc6a-11ed-894b-325096b39f47",
  "type": "transaction",
  "entry": [ {
    "fullUrl": "https://madie.cms.gov/Patient/71846c52-343b-4e31-95e1-b1f44cca0128",
    "resource": {
      "resourceType": "Patient",
      "id": "71846c52-343b-4e31-95e1-b1f44cca0128",
      "meta": {
        "profile": [ "http://hl7.org/fhir/us/qicore/StructureDefinition/qicore-patient" ]
      },
      "extension": [ {
        "url": "http://hl7.org/fhir/us/core/StructureDefinition/us-core-race",
        "extension": [ {
          "url": "ombCategory",
          "valueCoding": {
            "system": "urn:oid:2.16.840.1.113883.6.238",
            "code": "2106-3",
            "display": "White"
          }
        }, {
          "url": "text",
          "valueString": "White"
        } ]
      }, {
        "url": "http://hl7.org/fhir/us/core/StructureDefinition/us-core-ethnicity",
        "extension": [ {
          "url": "ombCategory",
          "valueCoding": {
            "system": "urn:oid:2.16.840.1.113883.6.238",
            "code": "2135-2",
            "display": "Hispanic or Latino",
            "userSelected": true
          }
        }, {
          "url": "text",
          "valueString": "Hispanic or Latino"
        } ]
      } ],
      "identifier": [ {
        "type": {
          "coding": [ {
            "system": "http://terminology.hl7.org/CodeSystem/v2-0203",
            "code": "MR"
          } ]
        },
        "system": "https://smarthealth.com",
        "value": "960082319426"
      } ],
      "name": [ {
        "family": "DENEXPass",
        "given": [ "UrinaryRetentionDXWithin1YrBPHDx" ]
      } ],
      "gender": "male",
      "birthDate": "1979-01-10"
    },
    "request": {
      "method": "PUT",
      "url": "Patient/71846c52-343b-4e31-95e1-b1f44cca0128"
    }
  }, {
    "fullUrl": "https://madie.cms.gov/Encounter/af56b3fa-6528-4186-8d86-13eac4d43812",
    "resource": {
      "resourceType": "Encounter",
      "id": "af56b3fa-6528-4186-8d86-13eac4d43812",
      "meta": {
        "profile": [ "http://hl7.org/fhir/us/qicore/StructureDefinition/qicore-encounter" ]
      },
      "status": "finished",
      "class": {
        "system": "http://terminology.hl7.org/CodeSystem/v3-ActCode",
        "code": "AMB",
        "display": "ambulatory"
      },
      "type": [ {
        "coding": [ {
          "system": "http://snomed.info/sct",
          "version": "http://snomed.info/sct/731000124108/version/20240301",
          "code": "185464004",
          "display": "Out of hours visit - not night visit (procedure)",
          "userSelected": false
        } ]
      } ],
      "subject": {
        "reference": "Patient/71846c52-343b-4e31-95e1-b1f44cca0128"
      },
      "period": {
        "start": "2026-05-01T08:00:00.000+00:00",
        "end": "2026-05-01T08:30:00.000+00:00"
      }
    },
    "request": {
      "method": "PUT",
      "url": "Encounter/af56b3fa-6528-4186-8d86-13eac4d43812"
    }
  }, {
    "fullUrl": "https://madie.cms.gov/Condition/4a559649-fe4e-43ed-bc5d-4049fce6b43b",
    "resource": {
      "resourceType": "Condition",
      "id": "4a559649-fe4e-43ed-bc5d-4049fce6b43b",
      "meta": {
        "profile": [ "http://hl7.org/fhir/us/qicore/StructureDefinition/qicore-condition-encounter-diagnosis" ]
      },
      "clinicalStatus": {
        "coding": [ {
          "system": "http://terminology.hl7.org/CodeSystem/condition-clinical",
          "code": "active",
          "display": "active",
          "userSelected": true
        } ]
      },
      "verificationStatus": {
        "coding": [ {
          "system": "http://terminology.hl7.org/CodeSystem/condition-ver-status",
          "code": "confirmed",
          "display": "Confirmed",
          "userSelected": true
        } ]
      },
      "category": [ {
        "coding": [ {
          "system": "http://terminology.hl7.org/CodeSystem/condition-category",
          "code": "encounter-diagnosis",
          "display": "Encounter Diagnosis"
        } ]
      } ],
      "code": {
        "coding": [ {
          "system": "http://hl7.org/fhir/sid/icd-10-cm",
          "version": "2024",
          "code": "N40.1",
          "display": "Benign prostatic hyperplasia with lower urinary tract symptoms",
          "userSelected": true
        } ]
      },
      "subject": {
        "reference": "Patient/71846c52-343b-4e31-95e1-b1f44cca0128"
      },
      "onsetPeriod": {
        "start": "2025-12-14T15:00:00.000+00:00"
      }
    },
    "request": {
      "method": "PUT",
      "url": "Condition/4a559649-fe4e-43ed-bc5d-4049fce6b43b"
    }
  }, {
    "fullUrl": "https://madie.cms.gov/Condition/182e5c34-3dc5-4c59-ae60-b7e05d2e21a1",
    "resource": {
      "resourceType": "Condition",
      "id": "182e5c34-3dc5-4c59-ae60-b7e05d2e21a1",
      "meta": {
        "profile": [ "http://hl7.org/fhir/us/qicore/StructureDefinition/qicore-condition-encounter-diagnosis" ]
      },
      "clinicalStatus": {
        "coding": [ {
          "system": "http://terminology.hl7.org/CodeSystem/condition-clinical",
          "code": "active",
          "display": "active",
          "userSelected": true
        } ]
      },
      "verificationStatus": {
        "coding": [ {
          "system": "http://terminology.hl7.org/CodeSystem/condition-ver-status",
          "code": "confirmed",
          "display": "Confirmed",
          "userSelected": true
        } ]
      },
      "category": [ {
        "coding": [ {
          "system": "http://terminology.hl7.org/CodeSystem/condition-category",
          "code": "encounter-diagnosis",
          "display": "Encounter Diagnosis"
        } ]
      } ],
      "code": {
        "coding": [ {
          "system": "http://snomed.info/sct",
          "version": "http://snomed.info/sct/731000124108/version/20240301",
          "code": "267064002",
          "display": "Retention of urine (disorder)",
          "userSelected": false
        } ]
      },
      "subject": {
        "reference": "Patient/71846c52-343b-4e31-95e1-b1f44cca0128"
      },
      "onsetPeriod": {
        "start": "2025-12-31T00:00:00.000+00:00"
      }
    },
    "request": {
      "method": "PUT",
      "url": "Condition/182e5c34-3dc5-4c59-ae60-b7e05d2e21a1"
    }
  }, {
    "fullUrl": "https://madie.cms.gov/Condition/182e5c34-3dc5-4c59-ae60-b7e05d2e21a1",
    "resource": {
      "resourceType": "Condition",
      "id": "182e5c34-3dc5-4c59-ae60-b7e05d2e21a1",
      "meta": {
        "profile": [ "http://hl7.org/fhir/us/qicore/StructureDefinition/qicore-condition-problem-health-concerns" ]
      },
      "clinicalStatus": {
        "coding": [ {
          "system": "http://terminology.hl7.org/CodeSystem/condition-clinical",
          "code": "active",
          "display": "active",
          "userSelected": true
        } ]
      },
      "verificationStatus": {
        "coding": [ {
          "system": "http://terminology.hl7.org/CodeSystem/condition-ver-status",
          "code": "confirmed",
          "display": "Confirmed",
          "userSelected": true
        } ]
      },
      "category": [ {
        "coding": [ {
          "system": "http://terminology.hl7.org/CodeSystem/condition-category",
          "code": "problem-list-item",
          "display": "Problem List Item"
        } ]
      } ],
      "code": {
        "coding": [ {
          "system": "http://snomed.info/sct",
          "version": "http://snomed.info/sct/731000124108/version/20240301",
          "code": "267064002",
          "display": "Retention of urine (disorder)",
          "userSelected": false
        } ]
      },
      "subject": {
        "reference": "Patient/71846c52-343b-4e31-95e1-b1f44cca0128"
      },
      "onsetPeriod": {
        "start": "2025-12-31T00:00:00.000+00:00"
      }
    },
    "request": {
      "method": "PUT",
      "url": "Condition/182e5c34-3dc5-4c59-ae60-b7e05d2e21a1"
    }
  }, {
    "fullUrl": "https://madie.cms.gov/Observation/83616b9c-1564-4a0d-b0f9-dda3008d78c7",
    "resource": {
      "resourceType": "Observation",
      "id": "83616b9c-1564-4a0d-b0f9-dda3008d78c7",
      "meta": {
        "profile": [ "http://hl7.org/fhir/us/qicore/StructureDefinition/qicore-observation-screening-assessment" ]
      },
      "status": "final",
      "category": [ {
        "coding": [ {
          "system": "http://terminology.hl7.org/CodeSystem/observation-category",
          "code": "survey",
          "display": "Survey"
        } ]
      } ],
      "code": {
        "coding": [ {
          "system": "http://loinc.org",
          "version": "2.76",
          "code": "80976-4",
          "display": "International Prostate Symptom Score [IPSS]",
          "userSelected": true
        } ]
      },
      "subject": {
        "reference": "Patient/71846c52-343b-4e31-95e1-b1f44cca0128"
      },
      "effectiveDateTime": "2026-01-02T08:15:00.000+00:00",
      "valueInteger": 5
    },
    "request": {
      "method": "PUT",
      "url": "Observation/83616b9c-1564-4a0d-b0f9-dda3008d78c7"
    }
  }, {
    "fullUrl": "https://madie.cms.gov/Observation/260731fb-3e3c-40e1-828d-56fac56b94f0",
    "resource": {
      "resourceType": "Observation",
      "id": "260731fb-3e3c-40e1-828d-56fac56b94f0",
      "meta": {
        "profile": [ "http://hl7.org/fhir/us/qicore/StructureDefinition/qicore-observation-screening-assessment" ]
      },
      "status": "final",
      "category": [ {
        "coding": [ {
          "system": "http://terminology.hl7.org/CodeSystem/observation-category",
          "code": "survey",
          "display": "Survey"
        } ]
      } ],
      "code": {
        "coding": [ {
          "system": "http://loinc.org",
          "version": "2.76",
          "code": "80976-4",
          "display": "International Prostate Symptom Score [IPSS]",
          "userSelected": true
        } ]
      },
      "subject": {
        "reference": "Patient/71846c52-343b-4e31-95e1-b1f44cca0128"
      },
      "effectiveDateTime": "2026-12-01T08:15:00.000+00:00",
      "valueInteger": 2
    },
    "request": {
      "method": "PUT",
      "url": "Observation/260731fb-3e3c-40e1-828d-56fac56b94f0"
    }
  }, {
    "fullUrl": "https://madie.cms.gov/MeasureReport/757a7534-1529-41b3-94b1-24fc05c89994",
    "resource": {
      "resourceType": "MeasureReport",
      "id": "757a7534-1529-41b3-94b1-24fc05c89994",
      "meta": {
        "profile": [ "http://hl7.org/fhir/us/cqfmeasures/StructureDefinition/test-case-cqfm" ]
      },
      "contained": [ {
        "resourceType": "Parameters",
        "id": "67e24797-0521-4080-b326-53aac53d2259-parameters",
        "parameter": [ {
          "name": "subject",
          "valueString": "71846c52-343b-4e31-95e1-b1f44cca0128"
        } ]
      } ],
      "extension": [ {
        "url": "http://hl7.org/fhir/StructureDefinition/cqf-inputParameters",
        "valueReference": {
          "reference": "#67e24797-0521-4080-b326-53aac53d2259-parameters"
        }
      }, {
        "url": "http://hl7.org/fhir/us/cqfmeasures/StructureDefinition/cqfm-testCaseDescription",
        "valueMarkdown": "1stUSS1moAfterBPHle Patient with BPH Dx and also a Urniary Retention Diagnosis occuring within 1 year of BPH Diagnosis."
      } ],
      "modifierExtension": [ {
        "url": "http://hl7.org/fhir/us/cqfmeasures/StructureDefinition/cqfm-isTestCase",
        "valueBoolean": true
      } ],
      "status": "complete",
      "type": "individual",
      "measure": "https://madie.cms.gov/Measure/CMS771FHIRUrinarySymptomScoreChangeBenignProstaticHyperplasia",
      "period": {
        "start": "2026-01-01",
        "end": "2026-12-31"
      },
      "group": [ {
        "id": "Group_1",
        "population": [ {
          "id": "InitialPopulation_1",
          "code": {
            "coding": [ {
              "system": "http://terminology.hl7.org/CodeSystem/measure-population",
              "code": "initial-population",
              "display": "Initial Population"
            } ]
          },
          "count": 1
        }, {
          "id": "Denominator_1",
          "code": {
            "coding": [ {
              "system": "http://terminology.hl7.org/CodeSystem/measure-population",
              "code": "denominator",
              "display": "Denominator"
            } ]
          },
          "count": 1
        }, {
          "id": "DenominatorExclusion_1",
          "code": {
            "coding": [ {
              "system": "http://terminology.hl7.org/CodeSystem/measure-population",
              "code": "denominator-exclusion",
              "display": "Denominator Exclusion"
            } ]
          },
          "count": 1
        }, {
          "id": "Numerator_1",
          "code": {
            "coding": [ {
              "system": "http://terminology.hl7.org/CodeSystem/measure-population",
              "code": "numerator",
              "display": "Numerator"
            } ]
          },
          "count": 0
        } ],
        "measureScore": {
          "value": 1.0
        }
      } ],
      "evaluatedResource": [ {
        "reference": "Patient/71846c52-343b-4e31-95e1-b1f44cca0128"
      }, {
        "reference": "Encounter/af56b3fa-6528-4186-8d86-13eac4d43812"
      }, {
        "reference": "Condition/4a559649-fe4e-43ed-bc5d-4049fce6b43b"
      }, {
        "reference": "Condition/182e5c34-3dc5-4c59-ae60-b7e05d2e21a1"
      }, {
        "reference": "Condition/182e5c34-3dc5-4c59-ae60-b7e05d2e21a1"
      }, {
        "reference": "Observation/83616b9c-1564-4a0d-b0f9-dda3008d78c7"
      }, {
        "reference": "Observation/260731fb-3e3c-40e1-828d-56fac56b94f0"
      } ]
    },
    "request": {
      "method": "PUT",
      "url": "MeasureReport/757a7534-1529-41b3-94b1-24fc05c89994"
    }
  } ]
}