{
  "resourceType": "Bundle",
  "id": "661476b015ed5841a5547ebf",
  "type": "transaction",
  "entry": [ {
    "fullUrl": "https://madie.cms.gov/Patient/50270eff-f1ed-4cb3-b22b-467d89937c3a",
    "resource": {
      "resourceType": "Patient",
      "id": "50270eff-f1ed-4cb3-b22b-467d89937c3a",
      "meta": {
        "profile": [ "http://hl7.org/fhir/us/qicore/StructureDefinition/qicore-patient" ]
      },
      "extension": [ {
        "url": "http://hl7.org/fhir/us/core/StructureDefinition/us-core-race",
        "extension": [ {
          "url": "ombCategory",
          "valueCoding": {
            "system": "urn:oid:2.16.840.1.113883.6.238",
            "code": "1002-5",
            "display": "American Indian or Alaska Native",
            "userSelected": true
          }
        }, {
          "url": "text",
          "valueString": "American Indian or Alaska Native"
        } ]
      }, {
        "url": "http://hl7.org/fhir/us/core/StructureDefinition/us-core-ethnicity",
        "extension": [ {
          "url": "ombCategory",
          "valueCoding": {
            "system": "urn:oid:2.16.840.1.113883.6.238",
            "code": "2135-2",
            "display": "Hispanic or Latino",
            "userSelected": true
          }
        }, {
          "url": "text",
          "valueString": "Hispanic or Latino"
        } ]
      }, {
        "url": "http://hl7.org/fhir/us/core/StructureDefinition/us-core-sex",
        "valueCode": "248153007"
      } ],
      "identifier": [ {
        "type": {
          "coding": [ {
            "system": "http://terminology.hl7.org/CodeSystem/v2-0203",
            "code": "MR"
          } ]
        },
        "system": "https://bonnie-fhir.healthit.gov/",
        "value": "661476b015ed5841a5547ebf"
      } ],
      "name": [ {
        "family": "NUMERStrat1Fail",
        "given": [ "PatientBedAssignment240Minutes" ]
      } ],
      "gender": "male",
      "birthDate": "2010-01-01"
    },
    "request": {
      "method": "PUT",
      "url": "Patient/50270eff-f1ed-4cb3-b22b-467d89937c3a"
    }
  }, {
    "fullUrl": "https://madie.cms.gov/Encounter/c77b2a82-9a9e-40df-b3f4-5f8e367ff6aa",
    "resource": {
      "resourceType": "Encounter",
      "id": "c77b2a82-9a9e-40df-b3f4-5f8e367ff6aa",
      "meta": {
        "profile": [ "http://hl7.org/fhir/us/qicore/StructureDefinition/qicore-encounter" ]
      },
      "status": "finished",
      "class": {
        "system": "http://terminology.hl7.org/CodeSystem/v3-ActCode",
        "code": "EMER",
        "display": "emergency department"
      },
      "type": [ {
        "coding": [ {
          "system": "http://snomed.info/sct",
          "version": "2023-09",
          "code": "4525004",
          "display": "Emergency department patient visit (procedure)",
          "userSelected": true
        } ]
      } ],
      "subject": {
        "reference": "Patient/50270eff-f1ed-4cb3-b22b-467d89937c3a"
      },
      "period": {
        "start": "2027-05-01T00:00:00.000+00:00",
        "end": "2027-05-01T04:00:00.000+00:00"
      },
      "diagnosis": [ {
        "condition": {
          "reference": "Condition/non-behavioral-health-diagnosis-without-substance-use-disorders-8a64"
        },
        "use": {
          "coding": [ {
            "system": "http://terminology.hl7.org/CodeSystem/diagnosis-role",
            "code": "billing"
          } ]
        },
        "rank": 1
      } ],
      "location": [ {
        "location": {
          "reference": "Location/08b3f90f-402c-47a4-9bd0-0069785ecec3"
        },
        "period": {
          "start": "2027-05-01T00:00:00.000+00:00",
          "end": "2027-05-01T04:00:00.000+00:00"
        }
      } ]
    },
    "request": {
      "method": "PUT",
      "url": "Encounter/c77b2a82-9a9e-40df-b3f4-5f8e367ff6aa"
    }
  }, {
    "fullUrl": "https://madie.cms.gov/Encounter/c612e790-0e3b-480b-aa18-6065c847d6c1",
    "resource": {
      "resourceType": "Encounter",
      "id": "c612e790-0e3b-480b-aa18-6065c847d6c1",
      "meta": {
        "profile": [ "http://hl7.org/fhir/us/qicore/StructureDefinition/qicore-encounter" ]
      },
      "status": "finished",
      "class": {
        "system": "http://terminology.hl7.org/CodeSystem/v3-ActCode",
        "code": "IMP",
        "display": "inpatient encounter"
      },
      "type": [ {
        "coding": [ {
          "system": "http://snomed.info/sct",
          "version": "2023-09",
          "code": "183452005",
          "display": "Emergency hospital admission (procedure)",
          "userSelected": true
        } ]
      } ],
      "subject": {
        "reference": "Patient/50270eff-f1ed-4cb3-b22b-467d89937c3a"
      },
      "period": {
        "start": "2027-05-01T05:00:00.000+00:00",
        "end": "2027-05-03T06:15:00.000+00:00"
      }
    },
    "request": {
      "method": "PUT",
      "url": "Encounter/c612e790-0e3b-480b-aa18-6065c847d6c1"
    }
  }, {
    "fullUrl": "https://madie.cms.gov/ServiceRequest/06de8b7b-7b70-4f27-9e1a-ca5d88f91e08",
    "resource": {
      "resourceType": "ServiceRequest",
      "id": "06de8b7b-7b70-4f27-9e1a-ca5d88f91e08",
      "meta": {
        "profile": [ "http://hl7.org/fhir/us/qicore/StructureDefinition/qicore-servicerequest" ]
      },
      "status": "active",
      "intent": "order",
      "code": {
        "coding": [ {
          "system": "http://snomed.info/sct",
          "code": "5751000175101",
          "display": "Patient bed assigned (finding)",
          "userSelected": true
        } ]
      },
      "subject": {
        "reference": "Patient/50270eff-f1ed-4cb3-b22b-467d89937c3a"
      },
      "authoredOn": "2027-05-01T01:59:00.000+00:00"
    },
    "request": {
      "method": "PUT",
      "url": "ServiceRequest/06de8b7b-7b70-4f27-9e1a-ca5d88f91e08"
    }
  }, {
    "fullUrl": "https://madie.cms.gov/Location/08b3f90f-402c-47a4-9bd0-0069785ecec3",
    "resource": {
      "resourceType": "Location",
      "id": "08b3f90f-402c-47a4-9bd0-0069785ecec3",
      "meta": {
        "profile": [ "http://hl7.org/fhir/us/qicore/StructureDefinition/qicore-location" ]
      },
      "identifier": [ {
        "use": "usual",
        "system": "http://exampleoflocation.com",
        "value": "B1-S.F2"
      } ],
      "name": "Medical Surgical East, first floor",
      "type": [ {
        "coding": [ {
          "system": "https://www.cdc.gov/nhsn/cdaportal/terminology/codesystem/hsloc.html",
          "version": "2022",
          "code": "1108-0",
          "display": "Emergency Department",
          "userSelected": true
        } ]
      } ]
    },
    "request": {
      "method": "PUT",
      "url": "Location/08b3f90f-402c-47a4-9bd0-0069785ecec3"
    }
  }, {
    "fullUrl": "https://madie.cms.gov/claim/ClaimBehavior-NotSubsAbuse",
    "resource": {
      "resourceType": "Claim",
      "id": "ClaimBehavior-NotSubsAbuse",
      "meta": {
        "profile": [ "http://hl7.org/fhir/us/qicore/StructureDefinition/qicore-claim" ]
      },
      "status": "active",
      "type": {
        "coding": [ {
          "system": "http://terminology.hl7.org/CodeSystem/claim-type",
          "code": "institutional"
        } ]
      },
      "use": "claim",
      "patient": {
        "reference": "Patient/50270eff-f1ed-4cb3-b22b-467d89937c3a"
      },
      "created": "2027-05-01",
      "provider": {
        "reference": "Practitioner/985e8ec2-6e9f-4371-a75c-ec3a2d0ae315"
      },
      "priority": {
        "coding": [ {
          "system": "http://terminology.hl7.org/CodeSystem/processpriority",
          "code": "normal"
        } ]
      },
      "diagnosis": [ {
        "sequence": 1,
        "diagnosisReference": {
          "reference": "Condition/e7d84119-a948-4bd7-ba3c-d47f2c53820c"
        },
        "type": [ {
          "coding": [ {
            "system": "http://terminology.hl7.org/CodeSystem/ex-diagnosistype",
            "code": "principal"
          } ]
        } ]
      } ],
      "insurance": [ {
        "sequence": 1,
        "focal": true,
        "coverage": {
          "reference": "Coverage/550387b8-568b-41b9-bad3-8daa878df06e"
        }
      } ],
      "item": [ {
        "sequence": 1,
        "diagnosisSequence": [ 1 ],
        "productOrService": {
          "coding": [ {
            "system": "http://terminology.hl7.org/CodeSystem/ex-USCLS",
            "code": "99555"
          } ]
        },
        "encounter": [ {
          "reference": "Encounter/c77b2a82-9a9e-40df-b3f4-5f8e367ff6aa"
        } ]
      } ]
    },
    "request": {
      "method": "PUT",
      "url": "Claim/ClaimBehavior-NotSubsAbuse"
    }
  }, {
    "fullUrl": "https://madie.cms.gov/Coverage/550387b8-568b-41b9-bad3-8daa878df06e",
    "resource": {
      "resourceType": "Coverage",
      "id": "550387b8-568b-41b9-bad3-8daa878df06e",
      "meta": {
        "profile": [ "http://hl7.org/fhir/us/qicore/StructureDefinition/qicore-coverage" ]
      },
      "identifier": [ {
        "type": {
          "coding": [ {
            "system": "http://terminology.hl7.org/CodeSystem/v2-0203",
            "code": "MB"
          } ]
        }
      } ],
      "status": "active",
      "beneficiary": {
        "reference": "Patient/50270eff-f1ed-4cb3-b22b-467d89937c3a"
      },
      "relationship": {
        "coding": [ {
          "system": "http://terminology.hl7.org/CodeSystem/subscriber-relationship",
          "code": "self"
        } ]
      },
      "payor": [ {
        "reference": "Organization/e5a24bfe-e4e0-461b-aae1-e7f202dfb3bb"
      } ]
    },
    "request": {
      "method": "PUT",
      "url": "Coverage/550387b8-568b-41b9-bad3-8daa878df06e"
    }
  }, {
    "fullUrl": "https://madie.cms.gov/Condition/e7d84119-a948-4bd7-ba3c-d47f2c53820c",
    "resource": {
      "resourceType": "Condition",
      "id": "e7d84119-a948-4bd7-ba3c-d47f2c53820c",
      "meta": {
        "profile": [ "http://hl7.org/fhir/us/qicore/StructureDefinition/qicore-condition-encounter-diagnosis" ]
      },
      "category": [ {
        "coding": [ {
          "system": "http://terminology.hl7.org/CodeSystem/condition-category",
          "code": "encounter-diagnosis",
          "display": "Encounter Diagnosis"
        } ]
      } ],
      "code": {
        "coding": [ {
          "system": "http://snomed.info/sct",
          "version": "2023-09",
          "code": "10674711000119105",
          "display": "Acute severe exacerbation of asthma co-occurrent with allergic rhinitis (disorder)",
          "userSelected": true
        } ]
      },
      "subject": {
        "reference": "Patient/50270eff-f1ed-4cb3-b22b-467d89937c3a"
      },
      "recordedDate": "2027-05-01T08:00:00.000+00:00"
    },
    "request": {
      "method": "PUT",
      "url": "Condition/e7d84119-a948-4bd7-ba3c-d47f2c53820c"
    }
  }, {
    "fullUrl": "https://madie.cms.gov/Organization/e5a24bfe-e4e0-461b-aae1-e7f202dfb3bb",
    "resource": {
      "resourceType": "Organization",
      "id": "e5a24bfe-e4e0-461b-aae1-e7f202dfb3bb",
      "meta": {
        "profile": [ "http://hl7.org/fhir/us/qicore/StructureDefinition/qicore-organization" ]
      },
      "identifier": [ {
        "use": "temp",
        "system": "urn:oid:2.16.840.1.113883.4.4",
        "value": "21-3259825"
      } ],
      "active": true,
      "type": [ {
        "coding": [ {
          "system": "http://terminology.hl7.org/CodeSystem/organization-type",
          "code": "pay",
          "display": "Payer"
        } ]
      } ],
      "name": "Blue Cross Blue Shield of Texas",
      "telecom": [ {
        "system": "phone",
        "value": "(+1) 972-766-6900"
      } ],
      "address": [ {
        "use": "billing",
        "type": "postal",
        "line": [ "P.O. Box 660044" ],
        "city": "Dallas",
        "state": "TX",
        "postalCode": "75266-0044",
        "country": "USA"
      } ]
    },
    "request": {
      "method": "PUT",
      "url": "Organization/e5a24bfe-e4e0-461b-aae1-e7f202dfb3bb"
    }
  }, {
    "fullUrl": "https://madie.cms.gov/Practitioner/985e8ec2-6e9f-4371-a75c-ec3a2d0ae315",
    "resource": {
      "resourceType": "Practitioner",
      "id": "985e8ec2-6e9f-4371-a75c-ec3a2d0ae315",
      "meta": {
        "profile": [ "http://hl7.org/fhir/us/qicore/StructureDefinition/qicore-practitioner" ]
      },
      "identifier": [ {
        "system": "http://hl7.org/fhir/sid/us-npi",
        "value": "9999999896"
      } ],
      "name": [ {
        "family": "Evil",
        "prefix": [ "Dr" ]
      } ]
    },
    "request": {
      "method": "PUT",
      "url": "Practitioner/985e8ec2-6e9f-4371-a75c-ec3a2d0ae315"
    }
  }, {
    "fullUrl": "https://madie.cms.gov/MeasureReport/eb20a91d-52cf-4e26-89bb-59e4cba3623f",
    "resource": {
      "resourceType": "MeasureReport",
      "id": "eb20a91d-52cf-4e26-89bb-59e4cba3623f",
      "meta": {
        "profile": [ "http://hl7.org/fhir/us/cqfmeasures/StructureDefinition/test-case-cqfm" ]
      },
      "contained": [ {
        "resourceType": "Parameters",
        "id": "a53319ce-b7ac-4e30-a2a8-06a6eeba9ff9-parameters",
        "parameter": [ {
          "name": "subject",
          "valueString": "50270eff-f1ed-4cb3-b22b-467d89937c3a"
        } ]
      } ],
      "extension": [ {
        "url": "http://hl7.org/fhir/StructureDefinition/cqf-inputParameters",
        "valueReference": {
          "reference": "#a53319ce-b7ac-4e30-a2a8-06a6eeba9ff9-parameters"
        }
      }, {
        "url": "http://hl7.org/fhir/us/cqfmeasures/StructureDefinition/cqfm-testCaseDescription",
        "valueMarkdown": "Enc first day of MP, has allergic rhinitis, pt bed assigned at 240 minutes"
      } ],
      "modifierExtension": [ {
        "url": "http://hl7.org/fhir/us/cqfmeasures/StructureDefinition/cqfm-isTestCase",
        "valueBoolean": true
      } ],
      "status": "complete",
      "type": "individual",
      "measure": "https://madie.cms.gov/Measure/CMS1244FHIRECATHOQR",
      "period": {
        "start": "2027-01-01",
        "end": "2027-12-31"
      },
      "group": [ {
        "id": "Group_1",
        "population": [ {
          "id": "InitialPopulation_1",
          "code": {
            "coding": [ {
              "system": "http://terminology.hl7.org/CodeSystem/measure-population",
              "code": "initial-population",
              "display": "Initial Population"
            } ]
          },
          "count": 1
        }, {
          "id": "Denominator_1",
          "code": {
            "coding": [ {
              "system": "http://terminology.hl7.org/CodeSystem/measure-population",
              "code": "denominator",
              "display": "Denominator"
            } ]
          },
          "count": 1
        }, {
          "id": "Numerator_1",
          "code": {
            "coding": [ {
              "system": "http://terminology.hl7.org/CodeSystem/measure-population",
              "code": "numerator",
              "display": "Numerator"
            } ]
          },
          "count": 0
        } ],
        "measureScore": {
          "value": 0.0
        },
        "stratifier": [ {
          "id": "Stratification_1_1",
          "code": [ {
            "text": "Strata-1"
          } ],
          "stratum": [ {
            "value": {
              "text": "Strata-1"
            },
            "population": [ {
              "id": "InitialPopulation_1",
              "code": {
                "coding": [ {
                  "system": "http://terminology.hl7.org/CodeSystem/measure-population",
                  "code": "initial-population",
                  "display": "Initial Population"
                } ]
              },
              "count": 1
            }, {
              "id": "Denominator_1",
              "code": {
                "coding": [ {
                  "system": "http://terminology.hl7.org/CodeSystem/measure-population",
                  "code": "denominator",
                  "display": "Denominator"
                } ]
              },
              "count": 1
            }, {
              "id": "Numerator_1",
              "code": {
                "coding": [ {
                  "system": "http://terminology.hl7.org/CodeSystem/measure-population",
                  "code": "numerator",
                  "display": "Numerator"
                } ]
              },
              "count": 0
            } ]
          } ]
        }, {
          "id": "Stratification_1_2",
          "code": [ {
            "text": "Strata-2"
          } ],
          "stratum": [ {
            "value": {
              "text": "Strata-2"
            },
            "population": [ {
              "id": "InitialPopulation_1",
              "code": {
                "coding": [ {
                  "system": "http://terminology.hl7.org/CodeSystem/measure-population",
                  "code": "initial-population",
                  "display": "Initial Population"
                } ]
              },
              "count": 0
            }, {
              "id": "Denominator_1",
              "code": {
                "coding": [ {
                  "system": "http://terminology.hl7.org/CodeSystem/measure-population",
                  "code": "denominator",
                  "display": "Denominator"
                } ]
              },
              "count": 0
            }, {
              "id": "Numerator_1",
              "code": {
                "coding": [ {
                  "system": "http://terminology.hl7.org/CodeSystem/measure-population",
                  "code": "numerator",
                  "display": "Numerator"
                } ]
              },
              "count": 0
            } ]
          } ]
        }, {
          "id": "Stratification_1_3",
          "code": [ {
            "text": "Strata-3"
          } ],
          "stratum": [ {
            "value": {
              "text": "Strata-3"
            },
            "population": [ {
              "id": "InitialPopulation_1",
              "code": {
                "coding": [ {
                  "system": "http://terminology.hl7.org/CodeSystem/measure-population",
                  "code": "initial-population",
                  "display": "Initial Population"
                } ]
              },
              "count": 0
            }, {
              "id": "Denominator_1",
              "code": {
                "coding": [ {
                  "system": "http://terminology.hl7.org/CodeSystem/measure-population",
                  "code": "denominator",
                  "display": "Denominator"
                } ]
              },
              "count": 0
            }, {
              "id": "Numerator_1",
              "code": {
                "coding": [ {
                  "system": "http://terminology.hl7.org/CodeSystem/measure-population",
                  "code": "numerator",
                  "display": "Numerator"
                } ]
              },
              "count": 0
            } ]
          } ]
        }, {
          "id": "Stratification_1_4",
          "code": [ {
            "text": "Strata-4"
          } ],
          "stratum": [ {
            "value": {
              "text": "Strata-4"
            },
            "population": [ {
              "id": "InitialPopulation_1",
              "code": {
                "coding": [ {
                  "system": "http://terminology.hl7.org/CodeSystem/measure-population",
                  "code": "initial-population",
                  "display": "Initial Population"
                } ]
              },
              "count": 0
            }, {
              "id": "Denominator_1",
              "code": {
                "coding": [ {
                  "system": "http://terminology.hl7.org/CodeSystem/measure-population",
                  "code": "denominator",
                  "display": "Denominator"
                } ]
              },
              "count": 0
            }, {
              "id": "Numerator_1",
              "code": {
                "coding": [ {
                  "system": "http://terminology.hl7.org/CodeSystem/measure-population",
                  "code": "numerator",
                  "display": "Numerator"
                } ]
              },
              "count": 0
            } ]
          } ]
        } ]
      } ],
      "evaluatedResource": [ {
        "reference": "Patient/50270eff-f1ed-4cb3-b22b-467d89937c3a"
      }, {
        "reference": "Encounter/c77b2a82-9a9e-40df-b3f4-5f8e367ff6aa"
      }, {
        "reference": "Encounter/c612e790-0e3b-480b-aa18-6065c847d6c1"
      }, {
        "reference": "ServiceRequest/06de8b7b-7b70-4f27-9e1a-ca5d88f91e08"
      }, {
        "reference": "Location/08b3f90f-402c-47a4-9bd0-0069785ecec3"
      }, {
        "reference": "Claim/ClaimBehavior-NotSubsAbuse"
      }, {
        "reference": "Coverage/550387b8-568b-41b9-bad3-8daa878df06e"
      }, {
        "reference": "Condition/e7d84119-a948-4bd7-ba3c-d47f2c53820c"
      }, {
        "reference": "Organization/e5a24bfe-e4e0-461b-aae1-e7f202dfb3bb"
      }, {
        "reference": "Practitioner/985e8ec2-6e9f-4371-a75c-ec3a2d0ae315"
      } ]
    },
    "request": {
      "method": "PUT",
      "url": "MeasureReport/eb20a91d-52cf-4e26-89bb-59e4cba3623f"
    }
  } ]
}