{
  "resourceType": "Bundle",
  "id": "61095b0998086b53805591a5",
  "type": "transaction",
  "entry": [ {
    "fullUrl": "https://madie.cms.gov/Patient/39013200-2f18-4d0e-90d0-93ab94f0cf87",
    "resource": {
      "resourceType": "Patient",
      "id": "39013200-2f18-4d0e-90d0-93ab94f0cf87",
      "meta": {
        "profile": [ "http://hl7.org/fhir/us/qicore/StructureDefinition/qicore-patient" ]
      },
      "text": {
        "status": "generated",
        "div": "<div xmlns=\"http://www.w3.org/1999/xhtml\"><div class=\"hapiHeaderText\">Age@18 <b>DENOMPASS </b></div><table class=\"hapiPropertyTable\"><tbody><tr><td>Identifier</td><td>67f3e33acf17bcb386e754d726ed064ccd48ba21ff0ffb2eb678740a684398be</td></tr><tr><td>Date of birth</td><td><span>01 January 1994</span></td></tr></tbody></table></div>"
      },
      "extension": [ {
        "url": "http://hl7.org/fhir/us/core/StructureDefinition/us-core-race",
        "extension": [ {
          "url": "ombCategory",
          "valueCoding": {
            "system": "urn:oid:2.16.840.1.113883.6.238",
            "code": "1002-5",
            "display": "American Indian or Alaska Native",
            "userSelected": true
          }
        }, {
          "url": "text",
          "valueString": "American Indian or Alaska Native"
        } ]
      }, {
        "url": "http://hl7.org/fhir/us/core/StructureDefinition/us-core-ethnicity",
        "extension": [ {
          "url": "ombCategory",
          "valueCoding": {
            "system": "urn:oid:2.16.840.1.113883.6.238",
            "code": "2135-2",
            "display": "Hispanic or Latino",
            "userSelected": true
          }
        }, {
          "url": "text",
          "valueString": "Hispanic or Latino"
        } ]
      } ],
      "identifier": [ {
        "type": {
          "coding": [ {
            "system": "http://terminology.hl7.org/CodeSystem/v2-0203",
            "code": "MR"
          } ]
        },
        "system": "https://bonnie-fhir.healthit.gov/",
        "value": "61095b0998086b53805591a5"
      } ],
      "active": true,
      "name": [ {
        "use": "usual",
        "family": "DENEXPASS",
        "given": [ "CataractCongenitalWithCatSurg" ]
      } ],
      "gender": "female",
      "birthDate": "1996-01-01"
    },
    "request": {
      "method": "PUT",
      "url": "Patient/39013200-2f18-4d0e-90d0-93ab94f0cf87"
    }
  }, {
    "fullUrl": "https://madie.cms.gov/Observation/ad2feb31-8cef-41d6-8331-7c2778c09a4b",
    "resource": {
      "resourceType": "Observation",
      "id": "ad2feb31-8cef-41d6-8331-7c2778c09a4b",
      "meta": {
        "profile": [ "http://hl7.org/fhir/us/qicore/StructureDefinition/qicore-observation-clinical-result" ]
      },
      "status": "final",
      "category": [ {
        "coding": [ {
          "system": "http://terminology.hl7.org/CodeSystem/observation-category",
          "code": "exam",
          "display": "exam"
        } ]
      } ],
      "code": {
        "coding": [ {
          "system": "http://snomed.info/sct",
          "code": "419775003"
        } ]
      },
      "subject": {
        "reference": "Patient/39013200-2f18-4d0e-90d0-93ab94f0cf87"
      },
      "effectivePeriod": {
        "start": "2026-03-13T09:00:00+00:00",
        "end": "2026-03-13T09:30:00+00:00"
      }
    },
    "request": {
      "method": "PUT",
      "url": "Observation/ad2feb31-8cef-41d6-8331-7c2778c09a4b"
    }
  }, {
    "fullUrl": "https://madie.cms.gov/Procedure/53b01ecf-3131-4f42-adc7-54ea03fe1a4a",
    "resource": {
      "resourceType": "Procedure",
      "id": "53b01ecf-3131-4f42-adc7-54ea03fe1a4a",
      "meta": {
        "profile": [ "http://hl7.org/fhir/us/qicore/StructureDefinition/qicore-procedure" ]
      },
      "extension": [ {
        "url": "http://hl7.org/fhir/us/qicore/StructureDefinition/qicore-recorded",
        "valueDateTime": "2026-03-05T09:35:00-04:00"
      } ],
      "status": "completed",
      "code": {
        "coding": [ {
          "system": "http://snomed.info/sct",
          "code": "84149000"
        } ]
      },
      "subject": {
        "reference": "Patient/39013200-2f18-4d0e-90d0-93ab94f0cf87"
      },
      "performedPeriod": {
        "start": "2026-03-05T09:20:00-04:00",
        "end": "2026-04-05T10:30:00-04:00"
      }
    },
    "request": {
      "method": "PUT",
      "url": "Procedure/53b01ecf-3131-4f42-adc7-54ea03fe1a4a"
    }
  }, {
    "fullUrl": "https://madie.cms.gov/Condition/31d38c75-45ba-4ecc-be3e-41df71673ff0",
    "resource": {
      "resourceType": "Condition",
      "id": "31d38c75-45ba-4ecc-be3e-41df71673ff0",
      "meta": {
        "profile": [ "http://hl7.org/fhir/us/qicore/StructureDefinition/qicore-condition-problems-health-concerns" ]
      },
      "clinicalStatus": {
        "coding": [ {
          "system": "http://terminology.hl7.org/CodeSystem/condition-clinical",
          "code": "active",
          "display": "active",
          "userSelected": true
        } ]
      },
      "category": [ {
        "coding": [ {
          "system": "http://terminology.hl7.org/CodeSystem/condition-clinical",
          "code": "active",
          "display": "active",
          "userSelected": true
        } ]
      } ],
      "code": {
        "coding": [ {
          "system": "http://hl7.org/fhir/sid/icd-10-cm",
          "code": "Q12.0",
          "userSelected": true
        }, {
          "system": "http://snomed.info/sct",
          "code": "79410001",
          "userSelected": true
        } ]
      },
      "subject": {
        "reference": "Patient/39013200-2f18-4d0e-90d0-93ab94f0cf87"
      },
      "onsetDateTime": "2024-11-01T08:00:00.000+00:00"
    },
    "request": {
      "method": "PUT",
      "url": "Condition/31d38c75-45ba-4ecc-be3e-41df71673ff0"
    }
  }, {
    "fullUrl": "https://madie.cms.gov/Coverage/1271f813-b692-4461-a9bd-87d8f8734341",
    "resource": {
      "resourceType": "Coverage",
      "id": "1271f813-b692-4461-a9bd-87d8f8734341",
      "meta": {
        "profile": [ "http://hl7.org/fhir/us/qicore/StructureDefinition/qicore-coverage" ]
      },
      "status": "active",
      "beneficiary": {
        "reference": "Patient/39013200-2f18-4d0e-90d0-93ab94f0cf87"
      },
      "payor": [ {
        "reference": "Organization/e7fa32fc-171d-4f8b-878d-46fa6b47d444"
      } ]
    },
    "request": {
      "method": "PUT",
      "url": "Coverage/1271f813-b692-4461-a9bd-87d8f8734341"
    }
  }, {
    "fullUrl": "https://madie.cms.gov/Organization/e7fa32fc-171d-4f8b-878d-46fa6b47d444",
    "resource": {
      "resourceType": "Organization",
      "id": "e7fa32fc-171d-4f8b-878d-46fa6b47d444",
      "meta": {
        "profile": [ "http://hl7.org/fhir/us/qicore/StructureDefinition/qicore-organization" ]
      },
      "identifier": [ {
        "use": "temp",
        "system": "urn:oid:2.16.840.1.113883.4.4",
        "value": "21-3259825"
      } ],
      "active": true,
      "type": [ {
        "coding": [ {
          "system": "http://terminology.hl7.org/CodeSystem/organization-type",
          "code": "pay",
          "display": "Payer"
        } ]
      } ],
      "name": "Blue Cross Blue Shield of Texas",
      "telecom": [ {
        "system": "phone",
        "value": "(+1) 972-766-6900"
      } ],
      "address": [ {
        "use": "billing",
        "type": "postal",
        "line": [ "P.O. Box 660044" ],
        "city": "Dallas",
        "state": "TX",
        "postalCode": "75266-0044",
        "country": "USA"
      } ]
    },
    "request": {
      "method": "PUT",
      "url": "Organization/e7fa32fc-171d-4f8b-878d-46fa6b47d444"
    }
  }, {
    "fullUrl": "https://madie.cms.gov/Practitioner/0437cca6-d5b2-4268-911f-885db7ae7eff",
    "resource": {
      "resourceType": "Practitioner",
      "id": "0437cca6-d5b2-4268-911f-885db7ae7eff",
      "meta": {
        "profile": [ "http://hl7.org/fhir/us/qicore/StructureDefinition/qicore-practitioner" ]
      },
      "identifier": [ {
        "system": "http://hl7.org/fhir/sid/us-npi",
        "value": "123456"
      } ],
      "name": [ {
        "family": "Evil",
        "prefix": [ "Dr" ]
      } ]
    },
    "request": {
      "method": "PUT",
      "url": "Practitioner/0437cca6-d5b2-4268-911f-885db7ae7eff"
    }
  }, {
    "fullUrl": "https://madie.cms.gov/MeasureReport/679859a8-29ba-4390-9e9d-90bc579c2866",
    "resource": {
      "resourceType": "MeasureReport",
      "id": "679859a8-29ba-4390-9e9d-90bc579c2866",
      "meta": {
        "profile": [ "http://hl7.org/fhir/us/cqfmeasures/StructureDefinition/test-case-cqfm" ]
      },
      "contained": [ {
        "resourceType": "Parameters",
        "id": "eb5c37b5-80bf-4244-87e9-8c77ec9e1c28-parameters",
        "parameter": [ {
          "name": "subject",
          "valueString": "39013200-2f18-4d0e-90d0-93ab94f0cf87"
        } ]
      } ],
      "extension": [ {
        "url": "http://hl7.org/fhir/StructureDefinition/cqf-inputParameters",
        "valueReference": {
          "reference": "#eb5c37b5-80bf-4244-87e9-8c77ec9e1c28-parameters"
        }
      }, {
        "url": "http://hl7.org/fhir/us/cqfmeasures/StructureDefinition/cqfm-testCaseDescription",
        "valueMarkdown": "Patient with congenital cataract with cataract surgery. "
      } ],
      "modifierExtension": [ {
        "url": "http://hl7.org/fhir/us/cqfmeasures/StructureDefinition/cqfm-isTestCase",
        "valueBoolean": true
      } ],
      "status": "complete",
      "type": "individual",
      "measure": "https://madie.cms.gov/Measure/CMS133FHIRCataracts2040BCVAwithin90Days",
      "period": {
        "start": "2026-01-01",
        "end": "2026-12-31"
      },
      "group": [ {
        "id": "Group_1",
        "population": [ {
          "id": "InitialPopulation_1",
          "code": {
            "coding": [ {
              "system": "http://terminology.hl7.org/CodeSystem/measure-population",
              "code": "initial-population",
              "display": "Initial Population"
            } ]
          },
          "count": 1
        }, {
          "id": "Denominator_1",
          "code": {
            "coding": [ {
              "system": "http://terminology.hl7.org/CodeSystem/measure-population",
              "code": "denominator",
              "display": "Denominator"
            } ]
          },
          "count": 1
        }, {
          "id": "DenominatorExclusion_1",
          "code": {
            "coding": [ {
              "system": "http://terminology.hl7.org/CodeSystem/measure-population",
              "code": "denominator-exclusion",
              "display": "Denominator Exclusion"
            } ]
          },
          "count": 1
        }, {
          "id": "Numerator_1",
          "code": {
            "coding": [ {
              "system": "http://terminology.hl7.org/CodeSystem/measure-population",
              "code": "numerator",
              "display": "Numerator"
            } ]
          },
          "count": 0
        } ],
        "measureScore": {
          "value": 0.0
        }
      } ],
      "evaluatedResource": [ {
        "reference": "Patient/39013200-2f18-4d0e-90d0-93ab94f0cf87"
      }, {
        "reference": "Observation/ad2feb31-8cef-41d6-8331-7c2778c09a4b"
      }, {
        "reference": "Procedure/53b01ecf-3131-4f42-adc7-54ea03fe1a4a"
      }, {
        "reference": "Condition/31d38c75-45ba-4ecc-be3e-41df71673ff0"
      }, {
        "reference": "Coverage/1271f813-b692-4461-a9bd-87d8f8734341"
      }, {
        "reference": "Organization/e7fa32fc-171d-4f8b-878d-46fa6b47d444"
      }, {
        "reference": "Practitioner/0437cca6-d5b2-4268-911f-885db7ae7eff"
      } ]
    },
    "request": {
      "method": "PUT",
      "url": "MeasureReport/679859a8-29ba-4390-9e9d-90bc579c2866"
    }
  } ]
}