{
  "resourceType": "Bundle",
  "id": "numerpass-twoscans",
  "type": "transaction",
  "entry": [ {
    "fullUrl": "https://madie.cms.gov/Patient/52944dc7-4bb2-429f-846f-69189c4faad6",
    "resource": {
      "resourceType": "Patient",
      "id": "52944dc7-4bb2-429f-846f-69189c4faad6",
      "meta": {
        "profile": [ "http://hl7.org/fhir/us/core/StructureDefinition/us-core-patient", "http://hl7.org/fhir/us/qicore/StructureDefinition/qicore-patient" ]
      },
      "extension": [ {
        "url": "http://hl7.org/fhir/us/core/StructureDefinition/us-core-race",
        "extension": [ {
          "url": "ombCategory",
          "valueCoding": {
            "system": "urn:oid:2.16.840.1.113883.6.238",
            "code": "2028-9",
            "display": "Asian"
          }
        }, {
          "url": "text",
          "valueString": "Asian"
        } ]
      }, {
        "url": "http://hl7.org/fhir/us/core/StructureDefinition/us-core-ethnicity",
        "extension": [ {
          "url": "ombCategory",
          "valueCoding": {
            "system": "urn:oid:2.16.840.1.113883.6.238",
            "code": "2135-2",
            "display": "Hispanic or Latino"
          }
        }, {
          "url": "text",
          "valueString": "Hispanic or Latino"
        } ]
      } ],
      "identifier": [ {
        "system": "http://hospital.smarthealthit.org",
        "value": "999999995"
      } ],
      "name": [ {
        "family": "TwoScans",
        "given": [ "NUMERPass" ]
      } ],
      "gender": "female",
      "birthDate": "1988-06-12"
    },
    "request": {
      "method": "PUT",
      "url": "Patient/52944dc7-4bb2-429f-846f-69189c4faad6"
    }
  }, {
    "fullUrl": "https://madie.cms.gov/Encounter/6e8101f3-7b77-4b22-a558-e5758ff2d6d9",
    "resource": {
      "resourceType": "Encounter",
      "id": "6e8101f3-7b77-4b22-a558-e5758ff2d6d9",
      "meta": {
        "profile": [ "http://hl7.org/fhir/us/qicore/StructureDefinition/qicore-encounter" ]
      },
      "status": "finished",
      "class": {
        "system": "http://terminology.hl7.org/CodeSystem/v3-ActCode",
        "code": "IMP",
        "display": "inpatient encounter"
      },
      "type": [ {
        "coding": [ {
          "system": "http://snomed.info/sct",
          "code": "183452005",
          "display": "Emergency hospital admission"
        } ]
      } ],
      "subject": {
        "reference": "Patient/52944dc7-4bb2-429f-846f-69189c4faad6"
      },
      "period": {
        "start": "2026-01-01T00:00:00Z",
        "end": "2026-01-03T01:00:00.000+00:00"
      }
    },
    "request": {
      "method": "PUT",
      "url": "Encounter/6e8101f3-7b77-4b22-a558-e5758ff2d6d9"
    }
  }, {
    "fullUrl": "https://madie.cms.gov/Observation/dd126500-b02c-4336-bc6f-9e85979756b6",
    "resource": {
      "resourceType": "Observation",
      "id": "dd126500-b02c-4336-bc6f-9e85979756b6",
      "meta": {
        "profile": [ "http://hl7.org/fhir/us/qicore/StructureDefinition/qicore-observation-clinical-result" ]
      },
      "status": "final",
      "category": [ {
        "coding": [ {
          "system": "http://terminology.hl7.org/CodeSystem/observation-category",
          "code": "imaging",
          "display": "Imaging"
        } ]
      } ],
      "code": {
        "coding": [ {
          "system": "http://loinc.org",
          "code": "96914-7",
          "display": "CT dose and image quality category"
        } ],
        "text": "CT dose and image quality category"
      },
      "subject": {
        "reference": "Patient/52944dc7-4bb2-429f-846f-69189c4faad6"
      },
      "encounter": {
        "reference": "Encounter/6e8101f3-7b77-4b22-a558-e5758ff2d6d9"
      },
      "effectiveDateTime": "2026-01-02T00:00:00Z",
      "valueCodeableConcept": {
        "coding": [ {
          "system": "http://loinc.org",
          "code": "LA31752-1",
          "display": "Abdomen and Pelvis Low Dose"
        } ]
      },
      "component": [ {
        "code": {
          "coding": [ {
            "system": "http://loinc.org",
            "code": "96912-1",
            "display": "Calculated CT global noise"
          } ]
        },
        "valueQuantity": {
          "value": 65,
          "unit": "[hnsf'U]",
          "system": "http://unitsofmeasure.org",
          "code": "[hnsf'U]"
        }
      }, {
        "code": {
          "coding": [ {
            "system": "http://loinc.org",
            "code": "96913-9",
            "display": "Calculated CT size-adjusted dose"
          } ]
        },
        "valueQuantity": {
          "value": 585,
          "unit": "mGy.cm",
          "system": "http://unitsofmeasure.org",
          "code": "mGy.cm"
        }
      } ]
    },
    "request": {
      "method": "PUT",
      "url": "Observation/dd126500-b02c-4336-bc6f-9e85979756b6"
    }
  }, {
    "fullUrl": "https://madie.cms.gov/Observation/49c5e7f7-a35b-4625-ae09-349b639c1ac4",
    "resource": {
      "resourceType": "Observation",
      "id": "49c5e7f7-a35b-4625-ae09-349b639c1ac4",
      "meta": {
        "profile": [ "http://hl7.org/fhir/us/qicore/StructureDefinition/qicore-observation-clinical-result" ]
      },
      "status": "final",
      "category": [ {
        "coding": [ {
          "system": "http://terminology.hl7.org/CodeSystem/observation-category",
          "code": "imaging",
          "display": "Imaging"
        } ]
      } ],
      "code": {
        "coding": [ {
          "system": "http://loinc.org",
          "code": "96914-7",
          "display": "CT dose and image quality category"
        } ],
        "text": "CT dose and image quality category"
      },
      "subject": {
        "reference": "Patient/52944dc7-4bb2-429f-846f-69189c4faad6"
      },
      "encounter": {
        "reference": "Encounter/6e8101f3-7b77-4b22-a558-e5758ff2d6d9"
      },
      "effectiveDateTime": "2026-01-02T00:00:00Z",
      "valueCodeableConcept": {
        "coding": [ {
          "system": "http://loinc.org",
          "code": "LA31752-1",
          "display": "Abdomen and Pelvis Low Dose"
        } ]
      },
      "component": [ {
        "code": {
          "coding": [ {
            "system": "http://loinc.org",
            "code": "96912-1",
            "display": "Calculated CT global noise"
          } ]
        },
        "valueQuantity": {
          "value": 63,
          "unit": "[hnsf'U]",
          "system": "http://unitsofmeasure.org",
          "code": "[hnsf'U]"
        }
      }, {
        "code": {
          "coding": [ {
            "system": "http://loinc.org",
            "code": "96913-9",
            "display": "Calculated CT size-adjusted dose"
          } ]
        },
        "valueQuantity": {
          "value": 585,
          "unit": "mGy.cm",
          "system": "http://unitsofmeasure.org",
          "code": "mGy.cm"
        }
      } ]
    },
    "request": {
      "method": "PUT",
      "url": "Observation/49c5e7f7-a35b-4625-ae09-349b639c1ac4"
    }
  }, {
    "fullUrl": "https://madie.cms.gov/MeasureReport/c1dd4bbc-1228-4e52-9ea7-e38c79b7592b",
    "resource": {
      "resourceType": "MeasureReport",
      "id": "c1dd4bbc-1228-4e52-9ea7-e38c79b7592b",
      "meta": {
        "profile": [ "http://hl7.org/fhir/us/cqfmeasures/StructureDefinition/test-case-cqfm" ]
      },
      "contained": [ {
        "resourceType": "Parameters",
        "id": "e69b24af-0a2f-431e-a1f6-42ab35cff903-parameters",
        "parameter": [ {
          "name": "subject",
          "valueString": "52944dc7-4bb2-429f-846f-69189c4faad6"
        } ]
      } ],
      "extension": [ {
        "url": "http://hl7.org/fhir/StructureDefinition/cqf-inputParameters",
        "valueReference": {
          "reference": "#e69b24af-0a2f-431e-a1f6-42ab35cff903-parameters"
        }
      }, {
        "url": "http://hl7.org/fhir/us/cqfmeasures/StructureDefinition/cqfm-testCaseDescription",
        "valueMarkdown": "Patient has 2 CT Scans during the same encounter and 1 has good dose and good noise and the other has good dose but high noise"
      } ],
      "modifierExtension": [ {
        "url": "http://hl7.org/fhir/us/cqfmeasures/StructureDefinition/cqfm-isTestCase",
        "valueBoolean": true
      } ],
      "status": "complete",
      "type": "individual",
      "measure": "https://madie.cms.gov/Measure/CMS1074FHIRCTIQR",
      "period": {
        "start": "2026-01-01",
        "end": "2026-12-31"
      },
      "group": [ {
        "id": "Group_1",
        "population": [ {
          "id": "InitialPopulation_1",
          "code": {
            "coding": [ {
              "system": "http://terminology.hl7.org/CodeSystem/measure-population",
              "code": "initial-population",
              "display": "Initial Population"
            } ]
          },
          "count": 2
        }, {
          "id": "Denominator_1",
          "code": {
            "coding": [ {
              "system": "http://terminology.hl7.org/CodeSystem/measure-population",
              "code": "denominator",
              "display": "Denominator"
            } ]
          },
          "count": 2
        }, {
          "id": "DenominatorExclusion_1",
          "code": {
            "coding": [ {
              "system": "http://terminology.hl7.org/CodeSystem/measure-population",
              "code": "denominator-exclusion",
              "display": "Denominator Exclusion"
            } ]
          },
          "count": 0
        }, {
          "id": "Numerator_1",
          "code": {
            "coding": [ {
              "system": "http://terminology.hl7.org/CodeSystem/measure-population",
              "code": "numerator",
              "display": "Numerator"
            } ]
          },
          "count": 1
        } ],
        "measureScore": {
          "value": 0.0
        }
      } ],
      "evaluatedResource": [ {
        "reference": "Patient/52944dc7-4bb2-429f-846f-69189c4faad6"
      }, {
        "reference": "Encounter/6e8101f3-7b77-4b22-a558-e5758ff2d6d9"
      }, {
        "reference": "Observation/dd126500-b02c-4336-bc6f-9e85979756b6"
      }, {
        "reference": "Observation/49c5e7f7-a35b-4625-ae09-349b639c1ac4"
      } ]
    },
    "request": {
      "method": "PUT",
      "url": "MeasureReport/c1dd4bbc-1228-4e52-9ea7-e38c79b7592b"
    }
  } ]
}