{
  "resourceType": "Bundle",
  "id": "62fd4b6a0968f8012246b316",
  "type": "transaction",
  "entry": [ {
    "fullUrl": "https://madie.cms.gov/Patient/648157ed-8a6e-43b5-9481-9498848ae5ea",
    "resource": {
      "resourceType": "Patient",
      "id": "648157ed-8a6e-43b5-9481-9498848ae5ea",
      "meta": {
        "profile": [ "http://hl7.org/fhir/us/qicore/StructureDefinition/qicore-patient" ]
      },
      "extension": [ {
        "url": "http://hl7.org/fhir/us/core/StructureDefinition/us-core-race",
        "extension": [ {
          "url": "ombCategory",
          "valueCoding": {
            "system": "urn:oid:2.16.840.1.113883.6.238",
            "code": "1002-5",
            "display": "American Indian or Alaska Native",
            "userSelected": true
          }
        }, {
          "url": "text",
          "valueString": "American Indian or Alaska Native"
        } ]
      }, {
        "url": "http://hl7.org/fhir/us/core/StructureDefinition/us-core-ethnicity",
        "extension": [ {
          "url": "ombCategory",
          "valueCoding": {
            "system": "urn:oid:2.16.840.1.113883.6.238",
            "code": "2135-2",
            "display": "Hispanic or Latino",
            "userSelected": true
          }
        }, {
          "url": "text",
          "valueString": "Hispanic or Latino"
        } ]
      } ],
      "identifier": [ {
        "type": {
          "coding": [ {
            "system": "http://terminology.hl7.org/CodeSystem/v2-0203",
            "code": "MR"
          } ]
        },
        "system": "https://bonnie-fhir.healthit.gov/",
        "value": "62fd4b6a0968f8012246b316"
      } ],
      "name": [ {
        "family": "NUMERPass",
        "given": [ "1stAnd2ndReferralsWithConsultantReports" ]
      } ],
      "gender": "female",
      "birthDate": "1990-12-31"
    },
    "request": {
      "method": "PUT",
      "url": "Patient/648157ed-8a6e-43b5-9481-9498848ae5ea"
    }
  }, {
    "fullUrl": "https://madie.cms.gov/Task/42c9e801-1d58-4a15-bb19-25f3c09442d8",
    "resource": {
      "resourceType": "Task",
      "id": "42c9e801-1d58-4a15-bb19-25f3c09442d8",
      "meta": {
        "profile": [ "http://hl7.org/fhir/us/qicore/StructureDefinition/qicore-task" ]
      },
      "identifier": [ {
        "use": "official",
        "system": "http:/goodhealth.org/identifiers",
        "value": "20170201-002"
      } ],
      "basedOn": [ {
        "reference": "ServiceRequest/280095e9-620e-4137-a9c1-763b3f5c03c9"
      } ],
      "status": "completed",
      "intent": "order",
      "priority": "routine",
      "code": {
        "coding": [ {
          "system": "http://loinc.org",
          "version": "2.72",
          "code": "11488-4",
          "display": "Consult note",
          "userSelected": true
        } ]
      },
      "for": {
        "reference": "Patient/8f9f3df4-60f6-4c9a-855f-1e3fa9b30f96"
      },
      "executionPeriod": {
        "start": "2026-06-06T08:00:00.000+00:00",
        "end": "2026-06-06T08:15:00.000+00:00"
      }
    },
    "request": {
      "method": "PUT",
      "url": "Task/42c9e801-1d58-4a15-bb19-25f3c09442d8"
    }
  }, {
    "fullUrl": "https://madie.cms.gov/ServiceRequest/280095e9-620e-4137-a9c1-763b3f5c03c9",
    "resource": {
      "resourceType": "ServiceRequest",
      "id": "280095e9-620e-4137-a9c1-763b3f5c03c9",
      "meta": {
        "profile": [ "http://hl7.org/fhir/us/qicore/StructureDefinition/qicore-servicerequest" ]
      },
      "status": "active",
      "intent": "order",
      "code": {
        "coding": [ {
          "system": "http://snomed.info/sct",
          "version": "2022-03",
          "code": "103696004",
          "display": "Patient referral to specialist (procedure)",
          "userSelected": true
        } ]
      },
      "subject": {
        "reference": "Patient/8f9f3df4-60f6-4c9a-855f-1e3fa9b30f96"
      },
      "authoredOn": "2026-06-06T08:00:00.000+00:00"
    },
    "request": {
      "method": "PUT",
      "url": "ServiceRequest/280095e9-620e-4137-a9c1-763b3f5c03c9"
    }
  }, {
    "fullUrl": "https://madie.cms.gov/Task/cea662f7-51fd-44ff-81b4-3ce2504000cb",
    "resource": {
      "resourceType": "Task",
      "id": "cea662f7-51fd-44ff-81b4-3ce2504000cb",
      "meta": {
        "profile": [ "http://hl7.org/fhir/us/qicore/StructureDefinition/qicore-task" ]
      },
      "identifier": [ {
        "use": "official",
        "system": "http:/goodhealth.org/identifiers",
        "value": "20170201-002"
      } ],
      "basedOn": [ {
        "reference": "ServiceRequest/5edabd7f-99f2-43fa-8906-03b5695a2049"
      } ],
      "status": "completed",
      "intent": "order",
      "priority": "routine",
      "code": {
        "coding": [ {
          "system": "http://loinc.org",
          "version": "2.72",
          "code": "11488-4",
          "display": "Consult note",
          "userSelected": true
        } ]
      },
      "for": {
        "reference": "Patient/8f9f3df4-60f6-4c9a-855f-1e3fa9b30f96"
      },
      "executionPeriod": {
        "start": "2026-06-09T08:00:00.000+00:00",
        "end": "2026-06-09T08:15:00.000+00:00"
      }
    },
    "request": {
      "method": "PUT",
      "url": "Task/cea662f7-51fd-44ff-81b4-3ce2504000cb"
    }
  }, {
    "fullUrl": "https://madie.cms.gov/ServiceRequest/5edabd7f-99f2-43fa-8906-03b5695a2049",
    "resource": {
      "resourceType": "ServiceRequest",
      "id": "5edabd7f-99f2-43fa-8906-03b5695a2049",
      "meta": {
        "profile": [ "http://hl7.org/fhir/us/qicore/StructureDefinition/qicore-servicerequest" ]
      },
      "status": "active",
      "intent": "order",
      "code": {
        "coding": [ {
          "system": "http://snomed.info/sct",
          "version": "2022-03",
          "code": "103696004",
          "display": "Patient referral to specialist (procedure)",
          "userSelected": true
        } ]
      },
      "subject": {
        "reference": "Patient/8f9f3df4-60f6-4c9a-855f-1e3fa9b30f96"
      },
      "authoredOn": "2026-01-09T08:00:00.000+00:00"
    },
    "request": {
      "method": "PUT",
      "url": "ServiceRequest/5edabd7f-99f2-43fa-8906-03b5695a2049"
    }
  }, {
    "fullUrl": "https://madie.cms.gov/Encounter/d60207d1-37a0-4f4f-ba22-3a015dec67ca",
    "resource": {
      "resourceType": "Encounter",
      "id": "d60207d1-37a0-4f4f-ba22-3a015dec67ca",
      "meta": {
        "profile": [ "http://hl7.org/fhir/us/qicore/StructureDefinition/qicore-encounter" ]
      },
      "status": "finished",
      "class": {
        "system": "http://terminology.hl7.org/CodeSystem/v3-ActCode",
        "code": "AMB",
        "display": "ambulatory"
      },
      "type": [ {
        "coding": [ {
          "system": "http://snomed.info/sct",
          "version": "2022-03",
          "code": "359960003",
          "display": "Ophthalmologic examination and evaluation under general anesthesia, limited (procedure)",
          "userSelected": true
        } ]
      } ],
      "subject": {
        "reference": "Patient/8f9f3df4-60f6-4c9a-855f-1e3fa9b30f96"
      },
      "period": {
        "start": "2026-05-27T08:00:00.000+00:00",
        "end": "2026-05-27T09:15:00.000+00:00"
      }
    },
    "request": {
      "method": "PUT",
      "url": "Encounter/d60207d1-37a0-4f4f-ba22-3a015dec67ca"
    }
  }, {
    "fullUrl": "https://madie.cms.gov/Coverage/78fce1b1-0179-445e-9274-41a577c1b40e",
    "resource": {
      "resourceType": "Coverage",
      "id": "78fce1b1-0179-445e-9274-41a577c1b40e",
      "meta": {
        "profile": [ "http://hl7.org/fhir/us/qicore/StructureDefinition/qicore-coverage" ]
      },
      "status": "active",
      "beneficiary": {
        "reference": "Patient/8f9f3df4-60f6-4c9a-855f-1e3fa9b30f96"
      },
      "payor": [ {
        "reference": "Organization/7b6728ac-9062-4fdb-bf9f-323e77b3a359"
      } ]
    },
    "request": {
      "method": "PUT",
      "url": "Coverage/78fce1b1-0179-445e-9274-41a577c1b40e"
    }
  }, {
    "fullUrl": "https://madie.cms.gov/Organization/7b6728ac-9062-4fdb-bf9f-323e77b3a359",
    "resource": {
      "resourceType": "Organization",
      "id": "7b6728ac-9062-4fdb-bf9f-323e77b3a359",
      "meta": {
        "profile": [ "http://hl7.org/fhir/us/qicore/StructureDefinition/qicore-organization" ]
      },
      "identifier": [ {
        "use": "temp",
        "system": "urn:oid:2.16.840.1.113883.4.4",
        "value": "21-3259825"
      } ],
      "active": true,
      "type": [ {
        "coding": [ {
          "system": "http://terminology.hl7.org/CodeSystem/organization-type",
          "code": "pay",
          "display": "Payer"
        } ]
      } ],
      "name": "Blue Cross Blue Shield of Texas",
      "telecom": [ {
        "system": "phone",
        "value": "(+1) 972-766-6900"
      } ],
      "address": [ {
        "use": "billing",
        "type": "postal",
        "line": [ "P.O. Box 660044" ],
        "city": "Dallas",
        "state": "TX",
        "postalCode": "75266-0044",
        "country": "USA"
      } ]
    },
    "request": {
      "method": "PUT",
      "url": "Organization/7b6728ac-9062-4fdb-bf9f-323e77b3a359"
    }
  }, {
    "fullUrl": "https://madie.cms.gov/Practitioner/03e1362f-9fab-4ebb-9317-f321efc82ea9",
    "resource": {
      "resourceType": "Practitioner",
      "id": "03e1362f-9fab-4ebb-9317-f321efc82ea9",
      "meta": {
        "profile": [ "http://hl7.org/fhir/us/qicore/StructureDefinition/qicore-practitioner" ]
      },
      "identifier": [ {
        "system": "http://hl7.org/fhir/sid/us-npi",
        "value": "123456"
      } ],
      "name": [ {
        "family": "Evil",
        "prefix": [ "Dr" ]
      } ]
    },
    "request": {
      "method": "PUT",
      "url": "Practitioner/03e1362f-9fab-4ebb-9317-f321efc82ea9"
    }
  }, {
    "fullUrl": "https://madie.cms.gov/MeasureReport/79979549-b085-400a-a9a6-396051e86eed",
    "resource": {
      "resourceType": "MeasureReport",
      "id": "79979549-b085-400a-a9a6-396051e86eed",
      "meta": {
        "profile": [ "http://hl7.org/fhir/us/cqfmeasures/StructureDefinition/test-case-cqfm" ]
      },
      "contained": [ {
        "resourceType": "Parameters",
        "id": "6914cac0-87bb-41cc-88fa-fd592078c59f-parameters",
        "parameter": [ {
          "name": "subject",
          "valueString": "648157ed-8a6e-43b5-9481-9498848ae5ea"
        } ]
      } ],
      "extension": [ {
        "url": "http://hl7.org/fhir/StructureDefinition/cqf-inputParameters",
        "valueReference": {
          "reference": "#6914cac0-87bb-41cc-88fa-fd592078c59f-parameters"
        }
      }, {
        "url": "http://hl7.org/fhir/us/cqfmeasures/StructureDefinition/cqfm-testCaseDescription",
        "valueMarkdown": "2 out of 2 Referrals with associated Consultant reports received."
      } ],
      "modifierExtension": [ {
        "url": "http://hl7.org/fhir/us/cqfmeasures/StructureDefinition/cqfm-isTestCase",
        "valueBoolean": true
      } ],
      "status": "complete",
      "type": "individual",
      "measure": "https://madie.cms.gov/Measure/CMS50FHIRCRLReceiptofSpecialistReport",
      "period": {
        "start": "2026-01-01",
        "end": "2026-12-31"
      },
      "group": [ {
        "id": "Group_1",
        "population": [ {
          "id": "InitialPopulation_1",
          "code": {
            "coding": [ {
              "system": "http://terminology.hl7.org/CodeSystem/measure-population",
              "code": "initial-population",
              "display": "Initial Population"
            } ]
          },
          "count": 1
        }, {
          "id": "Denominator_1",
          "code": {
            "coding": [ {
              "system": "http://terminology.hl7.org/CodeSystem/measure-population",
              "code": "denominator",
              "display": "Denominator"
            } ]
          },
          "count": 1
        }, {
          "id": "Numerator_1",
          "code": {
            "coding": [ {
              "system": "http://terminology.hl7.org/CodeSystem/measure-population",
              "code": "numerator",
              "display": "Numerator"
            } ]
          },
          "count": 1
        } ],
        "measureScore": {
          "value": 1.0
        }
      } ],
      "evaluatedResource": [ {
        "reference": "Patient/648157ed-8a6e-43b5-9481-9498848ae5ea"
      }, {
        "reference": "Task/42c9e801-1d58-4a15-bb19-25f3c09442d8"
      }, {
        "reference": "ServiceRequest/280095e9-620e-4137-a9c1-763b3f5c03c9"
      }, {
        "reference": "Task/cea662f7-51fd-44ff-81b4-3ce2504000cb"
      }, {
        "reference": "ServiceRequest/5edabd7f-99f2-43fa-8906-03b5695a2049"
      }, {
        "reference": "Encounter/d60207d1-37a0-4f4f-ba22-3a015dec67ca"
      }, {
        "reference": "Coverage/78fce1b1-0179-445e-9274-41a577c1b40e"
      }, {
        "reference": "Organization/7b6728ac-9062-4fdb-bf9f-323e77b3a359"
      }, {
        "reference": "Practitioner/03e1362f-9fab-4ebb-9317-f321efc82ea9"
      } ]
    },
    "request": {
      "method": "PUT",
      "url": "MeasureReport/79979549-b085-400a-a9a6-396051e86eed"
    }
  } ]
}