{"resourceType":"Bundle","id":"tests-87532ec3-3437-4936-a22f-c33c134a9779-bundle","type":"transaction","entry":[{"fullUrl":"Bundle/tests-87532ec3-3437-4936-a22f-c33c134a9779-bundle","resource":{"resourceType":"Bundle","id":"tests-87532ec3-3437-4936-a22f-c33c134a9779-bundle","type":"transaction","entry":[{"fullUrl":"https://madie.cms.gov/Patient/87532ec3-3437-4936-a22f-c33c134a9779","resource":{"resourceType":"Patient","id":"87532ec3-3437-4936-a22f-c33c134a9779","meta":{"profile":["http://hl7.org/fhir/us/qicore/StructureDefinition/qicore-patient"]},"text":{"status":"generated","div":"<div xmlns=\"http://www.w3.org/1999/xhtml\"><div class=\"hapiHeaderText\">EncDxObstetricsVTE <b>IPPFAIL </b></div><table class=\"hapiPropertyTable\"><tbody><tr><td>Identifier</td><td>b7a7425ccd6ae25cbc6ebf054c4ec0a9</td></tr><tr><td>Date of birth</td><td><span>02 September 2003</span></td></tr></tbody></table></div>"},"extension":[{"url":"http://hl7.org/fhir/us/core/StructureDefinition/us-core-race","extension":[{"url":"ombCategory","valueCoding":{"system":"urn:oid:2.16.840.1.113883.6.238","code":"1002-5","display":"American Indian or Alaska Native","userSelected":true}},{"url":"text","valueString":"American Indian or Alaska Native"}]},{"url":"http://hl7.org/fhir/us/core/StructureDefinition/us-core-ethnicity","extension":[{"url":"ombCategory","valueCoding":{"system":"urn:oid:2.16.840.1.113883.6.238","code":"2135-2","display":"Hispanic or Latino","userSelected":true}},{"url":"text","valueString":"Hispanic or Latino"}]}],"identifier":[{"type":{"coding":[{"system":"http://terminology.hl7.org/CodeSystem/v2-0203","code":"MR"}]},"system":"https://bonnie-fhir.healthit.gov/","value":"612e6b6402c62a011f2ed965"}],"active":true,"name":[{"use":"usual","family":"IPPFail","given":["EncDxObstetricsVTE"]}],"gender":"male","birthDate":"2004-09-02"},"request":{"method":"PUT","url":"Patient/87532ec3-3437-4936-a22f-c33c134a9779"}},{"fullUrl":"https://madie.cms.gov/Encounter/fd43e2d2-c2dc-45b3-985f-12cbf0cfc1ae","resource":{"resourceType":"Encounter","id":"fd43e2d2-c2dc-45b3-985f-12cbf0cfc1ae","meta":{"profile":["http://hl7.org/fhir/us/qicore/StructureDefinition/qicore-encounter"]},"status":"finished","class":{"system":"http://terminology.hl7.org/CodeSystem/v3-ActCode","code":"IMP","display":"inpatient encounter"},"type":[{"coding":[{"system":"http://snomed.info/sct","code":"183452005"}]}],"subject":{"reference":"Patient/87532ec3-3437-4936-a22f-c33c134a9779"},"period":{"start":"2026-09-02T12:59:00.000+00:00","end":"2026-09-02T13:14:00.000+00:00"},"length":{"value":0,"unit":"days"},"reasonReference":[{"reference":"Condition/5442acb7-5c86-4588-aaad-f5a73eaea48b"}]},"request":{"method":"PUT","url":"Encounter/fd43e2d2-c2dc-45b3-985f-12cbf0cfc1ae"}},{"fullUrl":"https://madie.cms.gov/Coverage/a20ef21f-cc3c-4ad1-8fdf-38f807e9b74f","resource":{"resourceType":"Coverage","id":"a20ef21f-cc3c-4ad1-8fdf-38f807e9b74f","status":"active","beneficiary":{"reference":"Patient/87532ec3-3437-4936-a22f-c33c134a9779"},"period":{"start":"2004-09-02T08:00:00.000+00:00"},"payor":[{"reference":"Organization/e62bfcaf-37c9-49d3-aa4d-002511dafc33"}]},"request":{"method":"PUT","url":"Coverage/a20ef21f-cc3c-4ad1-8fdf-38f807e9b74f"}},{"fullUrl":"https://madie.cms.gov/Condition/5442acb7-5c86-4588-aaad-f5a73eaea48b","resource":{"resourceType":"Condition","id":"5442acb7-5c86-4588-aaad-f5a73eaea48b","meta":{"profile":["http://hl7.org/fhir/us/qicore/StructureDefinition/qicore-condition-encounter-diagnosis"]},"category":[{"coding":[{"system":"http://terminology.hl7.org/CodeSystem/condition-category","code":"encounter-diagnosis","display":"Encounter Diagnosis"}]}],"code":{"coding":[{"system":"http://snomed.info/sct","version":"2025-03","code":"13943000","display":"Failed attempted abortion complicated by embolism (disorder)","userSelected":true}]},"subject":{"reference":"Patient/87532ec3-3437-4936-a22f-c33c134a9779"},"recordedDate":"2026-07-07T08:00:00.000+00:00"},"request":{"method":"PUT","url":"Condition/5442acb7-5c86-4588-aaad-f5a73eaea48b"}},{"fullUrl":"https://madie.cms.gov/Organization/e62bfcaf-37c9-49d3-aa4d-002511dafc33","resource":{"resourceType":"Organization","id":"e62bfcaf-37c9-49d3-aa4d-002511dafc33","meta":{"profile":["http://hl7.org/fhir/us/qicore/StructureDefinition/qicore-organization"]},"identifier":[{"use":"temp","system":"urn:oid:2.16.840.1.113883.4.4","value":"21-3259825"}],"active":true,"type":[{"coding":[{"system":"http://terminology.hl7.org/CodeSystem/organization-type","code":"pay","display":"Payer"}]}],"name":"Blue Cross Blue Shield of Texas","telecom":[{"system":"phone","value":"(+1) 972-766-6900"}],"address":[{"use":"billing","type":"postal","line":["P.O. Box 660044"],"city":"Dallas","state":"TX","postalCode":"75266-0044","country":"USA"}]},"request":{"method":"PUT","url":"Organization/e62bfcaf-37c9-49d3-aa4d-002511dafc33"}},{"fullUrl":"https://madie.cms.gov/Practitioner/38a82a60-f87b-4e2e-8435-30924fb585f0","resource":{"resourceType":"Practitioner","id":"38a82a60-f87b-4e2e-8435-30924fb585f0","identifier":[{"system":"http://hl7.org/fhir/sid/us-npi","value":"123456"}],"name":[{"family":"Evil","prefix":["Dr"]}]},"request":{"method":"PUT","url":"Practitioner/38a82a60-f87b-4e2e-8435-30924fb585f0"}},{"fullUrl":"https://madie.cms.gov/MeasureReport/74a19b63-63ee-43c6-aca0-e16da981828d","resource":{"resourceType":"MeasureReport","id":"74a19b63-63ee-43c6-aca0-e16da981828d","meta":{"profile":["http://hl7.org/fhir/us/cqfmeasures/StructureDefinition/test-case-cqfm"]},"contained":[{"resourceType":"Parameters","id":"aac59153-dca0-462c-82a2-bb0017f65545-parameters","parameter":[{"name":"subject","valueString":"87532ec3-3437-4936-a22f-c33c134a9779"}]}],"extension":[{"url":"http://hl7.org/fhir/StructureDefinition/cqf-inputParameters","valueReference":{"reference":"#aac59153-dca0-462c-82a2-bb0017f65545-parameters"}},{"url":"http://hl7.org/fhir/us/cqfmeasures/StructureDefinition/cqfm-testCaseDescription","valueMarkdown":"Patient is 18 years old with LOS < 120 days during MP with obstetrics VTE diagnosis\n"}],"modifierExtension":[{"url":"http://hl7.org/fhir/us/cqfmeasures/StructureDefinition/cqfm-isTestCase","valueBoolean":true}],"status":"complete","type":"individual","measure":"https://madie.cms.gov/Measure/CMS108FHIRVTEProphylaxis","period":{"start":"2026-01-01","end":"2026-12-31"},"group":[{"id":"Group_1","population":[{"id":"InitialPopulation_1","code":{"coding":[{"system":"http://terminology.hl7.org/CodeSystem/measure-population","code":"initial-population","display":"Initial Population"}]},"count":0},{"id":"Denominator_1","code":{"coding":[{"system":"http://terminology.hl7.org/CodeSystem/measure-population","code":"denominator","display":"Denominator"}]},"count":0},{"id":"DenominatorExclusion_1","code":{"coding":[{"system":"http://terminology.hl7.org/CodeSystem/measure-population","code":"denominator-exclusion","display":"Denominator Exclusion"}]},"count":0},{"id":"Numerator_1","code":{"coding":[{"system":"http://terminology.hl7.org/CodeSystem/measure-population","code":"numerator","display":"Numerator"}]},"count":0}],"measureScore":{"value":0.0}}],"evaluatedResource":[{"reference":"Patient/87532ec3-3437-4936-a22f-c33c134a9779"},{"reference":"Encounter/fd43e2d2-c2dc-45b3-985f-12cbf0cfc1ae"},{"reference":"Coverage/a20ef21f-cc3c-4ad1-8fdf-38f807e9b74f"},{"reference":"Condition/5442acb7-5c86-4588-aaad-f5a73eaea48b"},{"reference":"Organization/e62bfcaf-37c9-49d3-aa4d-002511dafc33"},{"reference":"Practitioner/38a82a60-f87b-4e2e-8435-30924fb585f0"}]},"request":{"method":"PUT","url":"MeasureReport/74a19b63-63ee-43c6-aca0-e16da981828d"}}]},"request":{"method":"PUT","url":"Bundle/tests-87532ec3-3437-4936-a22f-c33c134a9779-bundle"}}]}