{"resourceType":"Bundle","id":"tests-8e2cfc29-0925-45b9-857f-b9ee9b9fa248-bundle","type":"transaction","entry":[{"fullUrl":"Bundle/tests-8e2cfc29-0925-45b9-857f-b9ee9b9fa248-bundle","resource":{"resourceType":"Bundle","id":"tests-8e2cfc29-0925-45b9-857f-b9ee9b9fa248-bundle","type":"transaction","entry":[{"fullUrl":"https://madie.cms.gov/Patient/8e2cfc29-0925-45b9-857f-b9ee9b9fa248","resource":{"resourceType":"Patient","id":"8e2cfc29-0925-45b9-857f-b9ee9b9fa248","meta":{"profile":["http://hl7.org/fhir/us/qicore/StructureDefinition/qicore-patient"]},"text":{"status":"generated","div":"<div xmlns=\"http://www.w3.org/1999/xhtml\"><div class=\"hapiHeaderText\">MedRsnMAWarfDAIPCDrgEDGT1hrSameDayAdm <b>NUMERPASS </b></div><table class=\"hapiPropertyTable\"><tbody><tr><td>Identifier</td><td>d5661b6a7ac7a6b9f13847d23af8475a</td></tr><tr><td>Date of birth</td><td><span>02 January 1974</span></td></tr></tbody></table></div>"},"extension":[{"url":"http://hl7.org/fhir/us/core/StructureDefinition/us-core-race","extension":[{"url":"ombCategory","valueCoding":{"system":"urn:oid:2.16.840.1.113883.6.238","code":"1002-5","display":"American Indian or Alaska Native","userSelected":true}},{"url":"text","valueString":"American Indian or Alaska Native"}]},{"url":"http://hl7.org/fhir/us/core/StructureDefinition/us-core-ethnicity","extension":[{"url":"ombCategory","valueCoding":{"system":"urn:oid:2.16.840.1.113883.6.238","code":"2135-2","display":"Hispanic or Latino","userSelected":true}},{"url":"text","valueString":"Hispanic or Latino"}]}],"identifier":[{"type":{"coding":[{"system":"http://terminology.hl7.org/CodeSystem/v2-0203","code":"MR"}]},"system":"https://bonnie-fhir.healthit.gov/","value":"612e6b8402c62a011f2ee1d9"}],"active":true,"name":[{"use":"usual","family":"NUMERPass","given":["MedRsnMAWarfDAIPCDrgEDGT1hrSameDayAdm"]}],"gender":"male","birthDate":"1975-01-02"},"request":{"method":"PUT","url":"Patient/8e2cfc29-0925-45b9-857f-b9ee9b9fa248"}},{"fullUrl":"https://madie.cms.gov/Encounter/2ceabd9a-4f56-4474-b066-f98c80926177","resource":{"resourceType":"Encounter","id":"2ceabd9a-4f56-4474-b066-f98c80926177","meta":{"profile":["http://hl7.org/fhir/us/qicore/StructureDefinition/qicore-encounter"]},"status":"finished","class":{"system":"http://terminology.hl7.org/CodeSystem/v3-ActCode","code":"EMER","display":"emergency"},"type":[{"coding":[{"system":"http://snomed.info/sct","code":"4525004"}]}],"subject":{"reference":"Patient/8e2cfc29-0925-45b9-857f-b9ee9b9fa248"},"period":{"start":"2026-10-31T04:00:00.000+00:00","end":"2026-11-01T07:15:00.000+00:00"},"length":{"value":1,"unit":"days"}},"request":{"method":"PUT","url":"Encounter/2ceabd9a-4f56-4474-b066-f98c80926177"}},{"fullUrl":"https://madie.cms.gov/Encounter/38430149-25d9-4772-a4a5-cd7787b07c83","resource":{"resourceType":"Encounter","id":"38430149-25d9-4772-a4a5-cd7787b07c83","meta":{"profile":["http://hl7.org/fhir/us/qicore/StructureDefinition/qicore-encounter"]},"status":"finished","class":{"system":"http://terminology.hl7.org/CodeSystem/v3-ActCode","code":"IMP","display":"inpatient encounter"},"type":[{"coding":[{"system":"http://snomed.info/sct","code":"8715000"}]}],"subject":{"reference":"Patient/8e2cfc29-0925-45b9-857f-b9ee9b9fa248"},"period":{"start":"2026-11-01T10:00:00.000+00:00","end":"2026-11-04T05:00:00.000+00:00"},"length":{"value":25,"unit":"days"}},"request":{"method":"PUT","url":"Encounter/38430149-25d9-4772-a4a5-cd7787b07c83"}},{"fullUrl":"https://madie.cms.gov/Coverage/60d327ee-f5ce-4e60-a083-2a251e64ace3","resource":{"resourceType":"Coverage","id":"60d327ee-f5ce-4e60-a083-2a251e64ace3","status":"active","beneficiary":{"reference":"Patient/8e2cfc29-0925-45b9-857f-b9ee9b9fa248"},"period":{"start":"1975-01-02T08:00:00.000+00:00"},"payor":[{"reference":"Organization/aec9d485-e449-4e28-a7be-26766d49c962"}]},"request":{"method":"PUT","url":"Coverage/60d327ee-f5ce-4e60-a083-2a251e64ace3"}},{"fullUrl":"https://madie.cms.gov/Procedure/4e7f3569-cc1f-4492-9d5b-216f932c114d","resource":{"resourceType":"Procedure","id":"4e7f3569-cc1f-4492-9d5b-216f932c114d","meta":{"profile":["http://hl7.org/fhir/us/qicore/StructureDefinition/qicore-procedurenotdone"]},"extension":[{"url":"http://hl7.org/fhir/us/qicore/StructureDefinition/qicore-recorded","valueDateTime":"2026-11-01T10:35:00.000+00:00"}],"status":"not-done","statusReason":{"coding":[{"system":"http://snomed.info/sct","code":"183932001","display":"Procedure contraindicated (situation)","userSelected":true}]},"code":{"coding":[{"system":"http://snomed.info/sct","code":"443448006","display":"Application of intermittent pneumatic compression device (procedure)","userSelected":true}]},"subject":{"reference":"Patient/8e2cfc29-0925-45b9-857f-b9ee9b9fa248"},"_performedDateTime":{"extension":[{"url":"http://hl7.org/fhir/StructureDefinition/data-absent-reason","valueCode":"not-performed"}]}},"request":{"method":"PUT","url":"Procedure/4e7f3569-cc1f-4492-9d5b-216f932c114d"}},{"fullUrl":"https://madie.cms.gov/MedicationAdministration/93b13535-39a2-4696-be2f-f21def0835cc","resource":{"resourceType":"MedicationAdministration","id":"93b13535-39a2-4696-be2f-f21def0835cc","meta":{"profile":["http://hl7.org/fhir/us/qicore/StructureDefinition/qicore-medicationadministrationnotdone"]},"extension":[{"url":"http://hl7.org/fhir/us/qicore/StructureDefinition/qicore-recorded","valueDateTime":"2026-11-01T06:00:00.000+00:00"}],"status":"not-done","statusReason":[{"coding":[{"system":"http://snomed.info/sct","code":"183932001","display":"Procedure contraindicated (situation)","userSelected":true}]}],"medicationCodeableConcept":{"coding":[{"system":"http://www.nlm.nih.gov/research/umls/rxnorm","code":"855288"}]},"subject":{"reference":"Patient/8e2cfc29-0925-45b9-857f-b9ee9b9fa248"},"effectivePeriod":{"start":"2026-11-01T07:00:00.000+00:00"}},"request":{"method":"PUT","url":"MedicationAdministration/93b13535-39a2-4696-be2f-f21def0835cc"}},{"fullUrl":"https://madie.cms.gov/Organization/aec9d485-e449-4e28-a7be-26766d49c962","resource":{"resourceType":"Organization","id":"aec9d485-e449-4e28-a7be-26766d49c962","meta":{"profile":["http://hl7.org/fhir/us/qicore/StructureDefinition/qicore-organization"]},"identifier":[{"use":"temp","system":"urn:oid:2.16.840.1.113883.4.4","value":"21-3259825"}],"active":true,"type":[{"coding":[{"system":"http://terminology.hl7.org/CodeSystem/organization-type","code":"pay","display":"Payer"}]}],"name":"Blue Cross Blue Shield of Texas","telecom":[{"system":"phone","value":"(+1) 972-766-6900"}],"address":[{"use":"billing","type":"postal","line":["P.O. Box 660044"],"city":"Dallas","state":"TX","postalCode":"75266-0044","country":"USA"}]},"request":{"method":"PUT","url":"Organization/aec9d485-e449-4e28-a7be-26766d49c962"}},{"fullUrl":"https://madie.cms.gov/Practitioner/f8555175-fa75-4270-bc42-2b58958c6adb","resource":{"resourceType":"Practitioner","id":"f8555175-fa75-4270-bc42-2b58958c6adb","identifier":[{"system":"http://hl7.org/fhir/sid/us-npi","value":"123456"}],"name":[{"family":"Evil","prefix":["Dr"]}]},"request":{"method":"PUT","url":"Practitioner/f8555175-fa75-4270-bc42-2b58958c6adb"}},{"fullUrl":"https://madie.cms.gov/MeasureReport/108a15e8-231a-490c-8945-0bacfc2eccef","resource":{"resourceType":"MeasureReport","id":"108a15e8-231a-490c-8945-0bacfc2eccef","meta":{"profile":["http://hl7.org/fhir/us/cqfmeasures/StructureDefinition/test-case-cqfm"]},"contained":[{"resourceType":"Parameters","id":"aed607b8-a669-4314-b507-ef31087e6fea-parameters","parameter":[{"name":"subject","valueString":"8e2cfc29-0925-45b9-857f-b9ee9b9fa248"}]}],"extension":[{"url":"http://hl7.org/fhir/StructureDefinition/cqf-inputParameters","valueReference":{"reference":"#aed607b8-a669-4314-b507-ef31087e6fea-parameters"}},{"url":"http://hl7.org/fhir/us/cqfmeasures/StructureDefinition/cqfm-testCaseDescription","valueMarkdown":"medical reasons for not receiving IPC devices and warfarin in ED but ED is 2 hour before Adm\n"}],"modifierExtension":[{"url":"http://hl7.org/fhir/us/cqfmeasures/StructureDefinition/cqfm-isTestCase","valueBoolean":true}],"status":"complete","type":"individual","measure":"https://madie.cms.gov/Measure/CMS108FHIRVTEProphylaxis","period":{"start":"2026-01-01","end":"2026-12-31"},"group":[{"id":"Group_1","population":[{"id":"InitialPopulation_1","code":{"coding":[{"system":"http://terminology.hl7.org/CodeSystem/measure-population","code":"initial-population","display":"Initial Population"}]},"count":1},{"id":"Denominator_1","code":{"coding":[{"system":"http://terminology.hl7.org/CodeSystem/measure-population","code":"denominator","display":"Denominator"}]},"count":1},{"id":"DenominatorExclusion_1","code":{"coding":[{"system":"http://terminology.hl7.org/CodeSystem/measure-population","code":"denominator-exclusion","display":"Denominator Exclusion"}]},"count":0},{"id":"Numerator_1","code":{"coding":[{"system":"http://terminology.hl7.org/CodeSystem/measure-population","code":"numerator","display":"Numerator"}]},"count":1}],"measureScore":{"value":0.0}}],"evaluatedResource":[{"reference":"Patient/8e2cfc29-0925-45b9-857f-b9ee9b9fa248"},{"reference":"Encounter/2ceabd9a-4f56-4474-b066-f98c80926177"},{"reference":"Encounter/38430149-25d9-4772-a4a5-cd7787b07c83"},{"reference":"Coverage/60d327ee-f5ce-4e60-a083-2a251e64ace3"},{"reference":"Procedure/4e7f3569-cc1f-4492-9d5b-216f932c114d"},{"reference":"MedicationAdministration/93b13535-39a2-4696-be2f-f21def0835cc"},{"reference":"Organization/aec9d485-e449-4e28-a7be-26766d49c962"},{"reference":"Practitioner/f8555175-fa75-4270-bc42-2b58958c6adb"}]},"request":{"method":"PUT","url":"MeasureReport/108a15e8-231a-490c-8945-0bacfc2eccef"}}]},"request":{"method":"PUT","url":"Bundle/tests-8e2cfc29-0925-45b9-857f-b9ee9b9fa248-bundle"}}]}