{"resourceType":"Bundle","id":"tests-810ee9c4-bb4d-43b6-a552-d7326e9e7a7b-bundle","type":"transaction","entry":[{"fullUrl":"Bundle/tests-810ee9c4-bb4d-43b6-a552-d7326e9e7a7b-bundle","resource":{"resourceType":"Bundle","id":"tests-810ee9c4-bb4d-43b6-a552-d7326e9e7a7b-bundle","type":"transaction","entry":[{"fullUrl":"https://madie.cms.gov/Patient/810ee9c4-bb4d-43b6-a552-d7326e9e7a7b","resource":{"resourceType":"Patient","id":"810ee9c4-bb4d-43b6-a552-d7326e9e7a7b","meta":{"profile":["http://hl7.org/fhir/us/qicore/StructureDefinition/qicore-patient"]},"text":{"status":"generated","div":"<div xmlns=\"http://www.w3.org/1999/xhtml\"><div class=\"hapiHeaderText\">VTE_RiskAssess_IPEnc <b>NUMERPASS </b></div><table class=\"hapiPropertyTable\"><tbody><tr><td>Identifier</td><td>a62a5b0e4cff99540c5cc7035df016ac</td></tr><tr><td>Date of birth</td><td><span>02 January 1974</span></td></tr></tbody></table></div>"},"extension":[{"url":"http://hl7.org/fhir/us/core/StructureDefinition/us-core-race","extension":[{"url":"ombCategory","valueCoding":{"system":"urn:oid:2.16.840.1.113883.6.238","code":"1002-5","display":"American Indian or Alaska Native","userSelected":true}},{"url":"text","valueString":"American Indian or Alaska Native"}]},{"url":"http://hl7.org/fhir/us/core/StructureDefinition/us-core-ethnicity","extension":[{"url":"ombCategory","valueCoding":{"system":"urn:oid:2.16.840.1.113883.6.238","code":"2135-2","display":"Hispanic or Latino","userSelected":true}},{"url":"text","valueString":"Hispanic or Latino"}]}],"identifier":[{"type":{"coding":[{"system":"http://terminology.hl7.org/CodeSystem/v2-0203","code":"MR"}]},"system":"https://bonnie-fhir.healthit.gov/","value":"612e6a6702c62a011f2e9fb5"}],"active":true,"name":[{"use":"usual","family":"NUMERPass","given":["VTERiskAssessIPEnc"]}],"gender":"male","birthDate":"1975-01-02"},"request":{"method":"PUT","url":"Patient/810ee9c4-bb4d-43b6-a552-d7326e9e7a7b"}},{"fullUrl":"https://madie.cms.gov/Encounter/ff2dd5b3-9eab-4b95-a59d-78881b3fdb38","resource":{"resourceType":"Encounter","id":"ff2dd5b3-9eab-4b95-a59d-78881b3fdb38","meta":{"profile":["http://hl7.org/fhir/us/qicore/StructureDefinition/qicore-encounter"]},"status":"finished","class":{"system":"http://terminology.hl7.org/CodeSystem/v3-ActCode","code":"IMP","display":"inpatient encounter"},"type":[{"coding":[{"system":"http://snomed.info/sct","code":"8715000"}]}],"subject":{"reference":"Patient/810ee9c4-bb4d-43b6-a552-d7326e9e7a7b"},"period":{"start":"2026-11-01T08:00:00.000+00:00","end":"2026-11-26T08:15:00.000+00:00"},"length":{"value":25,"unit":"days"}},"request":{"method":"PUT","url":"Encounter/ff2dd5b3-9eab-4b95-a59d-78881b3fdb38"}},{"fullUrl":"https://madie.cms.gov/Observation/9ddaf1bf-dff3-4970-b3d9-07ec3b202a44","resource":{"resourceType":"Observation","id":"9ddaf1bf-dff3-4970-b3d9-07ec3b202a44","meta":{"profile":["http://hl7.org/fhir/us/qicore/StructureDefinition/qicore-simple-observation"]},"status":"final","category":[{"coding":[{"system":"http://terminology.hl7.org/CodeSystem/observation-category","code":"exam","display":"exam"}]}],"code":{"coding":[{"system":"http://loinc.org","code":"72136-5"}]},"subject":{"reference":"Patient/810ee9c4-bb4d-43b6-a552-d7326e9e7a7b"},"effectiveDateTime":"2026-11-01T09:00:00.000+00:00","valueCodeableConcept":{"coding":[{"system":"http://snomed.info/sct","code":"260362008","display":"Low Risk"}]}},"request":{"method":"PUT","url":"Observation/9ddaf1bf-dff3-4970-b3d9-07ec3b202a44"}},{"fullUrl":"https://madie.cms.gov/Coverage/ca5afa08-8245-44f7-9380-feded9daa5be","resource":{"resourceType":"Coverage","id":"ca5afa08-8245-44f7-9380-feded9daa5be","status":"active","beneficiary":{"reference":"Patient/810ee9c4-bb4d-43b6-a552-d7326e9e7a7b"},"period":{"start":"1975-01-02T08:00:00.000+00:00"},"payor":[{"reference":"Organization/6a7ff585-3d63-43f6-863e-c5b218ed434c"}]},"request":{"method":"PUT","url":"Coverage/ca5afa08-8245-44f7-9380-feded9daa5be"}},{"fullUrl":"https://madie.cms.gov/Organization/6a7ff585-3d63-43f6-863e-c5b218ed434c","resource":{"resourceType":"Organization","id":"6a7ff585-3d63-43f6-863e-c5b218ed434c","meta":{"profile":["http://hl7.org/fhir/us/qicore/StructureDefinition/qicore-organization"]},"identifier":[{"use":"temp","system":"urn:oid:2.16.840.1.113883.4.4","value":"21-3259825"}],"active":true,"type":[{"coding":[{"system":"http://terminology.hl7.org/CodeSystem/organization-type","code":"pay","display":"Payer"}]}],"name":"Blue Cross Blue Shield of Texas","telecom":[{"system":"phone","value":"(+1) 972-766-6900"}],"address":[{"use":"billing","type":"postal","line":["P.O. Box 660044"],"city":"Dallas","state":"TX","postalCode":"75266-0044","country":"USA"}]},"request":{"method":"PUT","url":"Organization/6a7ff585-3d63-43f6-863e-c5b218ed434c"}},{"fullUrl":"https://madie.cms.gov/Practitioner/5d99eeeb-29d1-4a49-a85b-458097091017","resource":{"resourceType":"Practitioner","id":"5d99eeeb-29d1-4a49-a85b-458097091017","identifier":[{"system":"http://hl7.org/fhir/sid/us-npi","value":"123456"}],"name":[{"family":"Evil","prefix":["Dr"]}]},"request":{"method":"PUT","url":"Practitioner/5d99eeeb-29d1-4a49-a85b-458097091017"}},{"fullUrl":"https://madie.cms.gov/MeasureReport/76605d52-8141-4182-afe2-bd70c82bebd8","resource":{"resourceType":"MeasureReport","id":"76605d52-8141-4182-afe2-bd70c82bebd8","meta":{"profile":["http://hl7.org/fhir/us/cqfmeasures/StructureDefinition/test-case-cqfm"]},"contained":[{"resourceType":"Parameters","id":"ccdc964d-9a4f-48d4-83ac-afed0b461cb1-parameters","parameter":[{"name":"subject","valueString":"810ee9c4-bb4d-43b6-a552-d7326e9e7a7b"}]}],"extension":[{"url":"http://hl7.org/fhir/StructureDefinition/cqf-inputParameters","valueReference":{"reference":"#ccdc964d-9a4f-48d4-83ac-afed0b461cb1-parameters"}},{"url":"http://hl7.org/fhir/us/cqfmeasures/StructureDefinition/cqfm-testCaseDescription","valueMarkdown":"vte risk assessment low risk < = 1 day after start of IP encounter\n"}],"modifierExtension":[{"url":"http://hl7.org/fhir/us/cqfmeasures/StructureDefinition/cqfm-isTestCase","valueBoolean":true}],"status":"complete","type":"individual","measure":"https://madie.cms.gov/Measure/CMS108FHIRVTEProphylaxis","period":{"start":"2026-01-01","end":"2026-12-31"},"group":[{"id":"Group_1","population":[{"id":"InitialPopulation_1","code":{"coding":[{"system":"http://terminology.hl7.org/CodeSystem/measure-population","code":"initial-population","display":"Initial Population"}]},"count":1},{"id":"Denominator_1","code":{"coding":[{"system":"http://terminology.hl7.org/CodeSystem/measure-population","code":"denominator","display":"Denominator"}]},"count":1},{"id":"DenominatorExclusion_1","code":{"coding":[{"system":"http://terminology.hl7.org/CodeSystem/measure-population","code":"denominator-exclusion","display":"Denominator Exclusion"}]},"count":0},{"id":"Numerator_1","code":{"coding":[{"system":"http://terminology.hl7.org/CodeSystem/measure-population","code":"numerator","display":"Numerator"}]},"count":1}],"measureScore":{"value":0.0}}],"evaluatedResource":[{"reference":"Patient/810ee9c4-bb4d-43b6-a552-d7326e9e7a7b"},{"reference":"Encounter/ff2dd5b3-9eab-4b95-a59d-78881b3fdb38"},{"reference":"Observation/9ddaf1bf-dff3-4970-b3d9-07ec3b202a44"},{"reference":"Coverage/ca5afa08-8245-44f7-9380-feded9daa5be"},{"reference":"Organization/6a7ff585-3d63-43f6-863e-c5b218ed434c"},{"reference":"Practitioner/5d99eeeb-29d1-4a49-a85b-458097091017"}]},"request":{"method":"PUT","url":"MeasureReport/76605d52-8141-4182-afe2-bd70c82bebd8"}}]},"request":{"method":"PUT","url":"Bundle/tests-810ee9c4-bb4d-43b6-a552-d7326e9e7a7b-bundle"}}]}