{"resourceType":"Bundle","id":"tests-9f11ba0f-2fd8-4f45-87c8-98fd7f81e42b-bundle","type":"transaction","entry":[{"fullUrl":"Bundle/tests-9f11ba0f-2fd8-4f45-87c8-98fd7f81e42b-bundle","resource":{"resourceType":"Bundle","id":"tests-9f11ba0f-2fd8-4f45-87c8-98fd7f81e42b-bundle","type":"transaction","entry":[{"fullUrl":"https://madie.cms.gov/Patient/9f11ba0f-2fd8-4f45-87c8-98fd7f81e42b","resource":{"resourceType":"Patient","id":"9f11ba0f-2fd8-4f45-87c8-98fd7f81e42b","meta":{"profile":["http://hl7.org/fhir/us/qicore/StructureDefinition/qicore-patient"]},"text":{"status":"generated","div":"<div xmlns=\"http://www.w3.org/1999/xhtml\"><div class=\"hapiHeaderText\">SCIP_GenSurgRank1 <b>DENEXPASS </b></div><table class=\"hapiPropertyTable\"><tbody><tr><td>Identifier</td><td>66c70c125db369967b4b164e75338304</td></tr><tr><td>Date of birth</td><td><span>01 September 2000</span></td></tr></tbody></table></div>"},"extension":[{"url":"http://hl7.org/fhir/us/core/StructureDefinition/us-core-race","extension":[{"url":"ombCategory","valueCoding":{"system":"urn:oid:2.16.840.1.113883.6.238","code":"1002-5","display":"American Indian or Alaska Native","userSelected":true}},{"url":"text","valueString":"American Indian or Alaska Native"}]},{"url":"http://hl7.org/fhir/us/core/StructureDefinition/us-core-ethnicity","extension":[{"url":"ombCategory","valueCoding":{"system":"urn:oid:2.16.840.1.113883.6.238","code":"2135-2","display":"Hispanic or Latino","userSelected":true}},{"url":"text","valueString":"Hispanic or Latino"}]}],"identifier":[{"type":{"coding":[{"system":"http://terminology.hl7.org/CodeSystem/v2-0203","code":"MR"}]},"system":"https://bonnie-fhir.healthit.gov/","value":"612e6b0002c62a011f2ec10b"}],"active":true,"name":[{"use":"usual","family":"DENEXPass ","given":["SCIPGenSurgRank1"]}],"gender":"male","birthDate":"2001-09-01"},"request":{"method":"PUT","url":"Patient/9f11ba0f-2fd8-4f45-87c8-98fd7f81e42b"}},{"fullUrl":"https://madie.cms.gov/Encounter/03d3ecdd-98ba-4399-a93a-d8c7cd881547","resource":{"resourceType":"Encounter","id":"03d3ecdd-98ba-4399-a93a-d8c7cd881547","meta":{"profile":["http://hl7.org/fhir/us/qicore/StructureDefinition/qicore-encounter"]},"status":"finished","class":{"system":"http://terminology.hl7.org/CodeSystem/v3-ActCode","code":"IMP","display":"inpatient encounter"},"type":[{"coding":[{"system":"http://snomed.info/sct","code":"183452005"}]}],"subject":{"reference":"Patient/9f11ba0f-2fd8-4f45-87c8-98fd7f81e42b"},"period":{"start":"2026-09-02T06:00:00.000+00:00","end":"2026-12-31T12:59:00.000+00:00"},"length":{"value":120,"unit":"days"}},"request":{"method":"PUT","url":"Encounter/03d3ecdd-98ba-4399-a93a-d8c7cd881547"}},{"fullUrl":"https://madie.cms.gov/claim/5ca62962b8484628b8de1ec5","resource":{"resourceType":"Claim","id":"5ca62962b8484628b8de1ec5","meta":{"profile":["http://hl7.org/fhir/us/qicore/StructureDefinition/qicore-claim"]},"status":"active","type":{"coding":[{"system":"http://terminology.hl7.org/CodeSystem/claim-type","code":"institutional"}]},"use":"claim","patient":{"reference":"Patient/9f11ba0f-2fd8-4f45-87c8-98fd7f81e42b"},"created":"2026-12-01","provider":{"reference":"Practitioner/f04a7142-8dfa-42a6-aa66-3adeb3afe0e4"},"priority":{"coding":[{"system":"http://terminology.hl7.org/CodeSystem/processpriority","code":"normal"}]},"procedure":[{"sequence":1,"type":[{"coding":[{"system":"http://terminology.hl7.org/CodeSystem/ex-procedure-type","code":"primary"}]}],"procedureCodeableConcept":{"coding":[{"system":"http://www.cms.gov/Medicare/Coding/ICD10","code":"008Q0ZZ"}]}}],"insurance":[{"sequence":1,"focal":true,"coverage":{"reference":"Coverage/ba648039-da53-4ece-9ff1-8af24a875123"}}],"item":[{"sequence":1,"procedureSequence":[1],"productOrService":{"coding":[{"system":"http://terminology.hl7.org/CodeSystem/ex-USCLS","code":"99555"}]},"encounter":[{"reference":"Encounter/03d3ecdd-98ba-4399-a93a-d8c7cd881547"}]}]},"request":{"method":"PUT","url":"Claim/5ca62962b8484628b8de1ec5"}},{"fullUrl":"https://madie.cms.gov/Coverage/ba648039-da53-4ece-9ff1-8af24a875123","resource":{"resourceType":"Coverage","id":"ba648039-da53-4ece-9ff1-8af24a875123","status":"active","beneficiary":{"reference":"Patient/9f11ba0f-2fd8-4f45-87c8-98fd7f81e42b"},"period":{"start":"2001-09-01T08:00:00.000+00:00"},"payor":[{"reference":"Organization/49656e4f-e744-4ec9-a9a8-d3d12692e604"}]},"request":{"method":"PUT","url":"Coverage/ba648039-da53-4ece-9ff1-8af24a875123"}},{"fullUrl":"https://madie.cms.gov/Procedure/6e27336d-f49f-4573-9452-c4bf71b35cf2","resource":{"resourceType":"Procedure","id":"6e27336d-f49f-4573-9452-c4bf71b35cf2","meta":{"profile":["http://hl7.org/fhir/us/qicore/StructureDefinition/qicore-procedure"]},"extension":[{"url":"http://hl7.org/fhir/us/qicore/StructureDefinition/qicore-recorded","valueDateTime":"2014-04-05T13:35:00.000+00:00"}],"status":"completed","code":{"coding":[{"system":"http://snomed.info/sct","version":"2025-03","code":"72261007","display":"Resection of rectum with pelvic exenteration (procedure)"}]},"subject":{"reference":"Patient/9f11ba0f-2fd8-4f45-87c8-98fd7f81e42b"},"performedPeriod":{"start":"2026-09-02T09:00:00.000+00:00","end":"2026-09-02T12:59:00.000+00:00"}},"request":{"method":"PUT","url":"Procedure/6e27336d-f49f-4573-9452-c4bf71b35cf2"}},{"fullUrl":"https://madie.cms.gov/Organization/49656e4f-e744-4ec9-a9a8-d3d12692e604","resource":{"resourceType":"Organization","id":"49656e4f-e744-4ec9-a9a8-d3d12692e604","meta":{"profile":["http://hl7.org/fhir/us/qicore/StructureDefinition/qicore-organization"]},"identifier":[{"use":"temp","system":"urn:oid:2.16.840.1.113883.4.4","value":"21-3259825"}],"active":true,"type":[{"coding":[{"system":"http://terminology.hl7.org/CodeSystem/organization-type","code":"pay","display":"Payer"}]}],"name":"Blue Cross Blue Shield of Texas","telecom":[{"system":"phone","value":"(+1) 972-766-6900"}],"address":[{"use":"billing","type":"postal","line":["P.O. Box 660044"],"city":"Dallas","state":"TX","postalCode":"75266-0044","country":"USA"}]},"request":{"method":"PUT","url":"Organization/49656e4f-e744-4ec9-a9a8-d3d12692e604"}},{"fullUrl":"https://madie.cms.gov/Practitioner/f04a7142-8dfa-42a6-aa66-3adeb3afe0e4","resource":{"resourceType":"Practitioner","id":"f04a7142-8dfa-42a6-aa66-3adeb3afe0e4","identifier":[{"system":"http://hl7.org/fhir/sid/us-npi","value":"123456"}],"name":[{"family":"Evil","prefix":["Dr"]}]},"request":{"method":"PUT","url":"Practitioner/f04a7142-8dfa-42a6-aa66-3adeb3afe0e4"}},{"fullUrl":"https://madie.cms.gov/MeasureReport/0db574a3-182e-4358-963a-97b7386283ed","resource":{"resourceType":"MeasureReport","id":"0db574a3-182e-4358-963a-97b7386283ed","meta":{"profile":["http://hl7.org/fhir/us/cqfmeasures/StructureDefinition/test-case-cqfm"]},"contained":[{"resourceType":"Parameters","id":"a3225de9-d8bf-4ef6-96c8-f07dc0a96d47-parameters","parameter":[{"name":"subject","valueString":"9f11ba0f-2fd8-4f45-87c8-98fd7f81e42b"}]}],"extension":[{"url":"http://hl7.org/fhir/StructureDefinition/cqf-inputParameters","valueReference":{"reference":"#a3225de9-d8bf-4ef6-96c8-f07dc0a96d47-parameters"}},{"url":"http://hl7.org/fhir/us/cqfmeasures/StructureDefinition/cqfm-testCaseDescription","valueMarkdown":"Patient had SCIP -GenSurg during Encounter and Rank =1\n"}],"modifierExtension":[{"url":"http://hl7.org/fhir/us/cqfmeasures/StructureDefinition/cqfm-isTestCase","valueBoolean":true}],"status":"complete","type":"individual","measure":"https://madie.cms.gov/Measure/CMS108FHIRVTEProphylaxis","period":{"start":"2026-01-01","end":"2026-12-31"},"group":[{"id":"Group_1","population":[{"id":"InitialPopulation_1","code":{"coding":[{"system":"http://terminology.hl7.org/CodeSystem/measure-population","code":"initial-population","display":"Initial Population"}]},"count":1},{"id":"Denominator_1","code":{"coding":[{"system":"http://terminology.hl7.org/CodeSystem/measure-population","code":"denominator","display":"Denominator"}]},"count":1},{"id":"DenominatorExclusion_1","code":{"coding":[{"system":"http://terminology.hl7.org/CodeSystem/measure-population","code":"denominator-exclusion","display":"Denominator Exclusion"}]},"count":1},{"id":"Numerator_1","code":{"coding":[{"system":"http://terminology.hl7.org/CodeSystem/measure-population","code":"numerator","display":"Numerator"}]},"count":0}],"measureScore":{"value":0.0}}],"evaluatedResource":[{"reference":"Patient/9f11ba0f-2fd8-4f45-87c8-98fd7f81e42b"},{"reference":"Encounter/03d3ecdd-98ba-4399-a93a-d8c7cd881547"},{"reference":"Claim/5ca62962b8484628b8de1ec5"},{"reference":"Coverage/ba648039-da53-4ece-9ff1-8af24a875123"},{"reference":"Procedure/6e27336d-f49f-4573-9452-c4bf71b35cf2"},{"reference":"Organization/49656e4f-e744-4ec9-a9a8-d3d12692e604"},{"reference":"Practitioner/f04a7142-8dfa-42a6-aa66-3adeb3afe0e4"}]},"request":{"method":"PUT","url":"MeasureReport/0db574a3-182e-4358-963a-97b7386283ed"}}]},"request":{"method":"PUT","url":"Bundle/tests-9f11ba0f-2fd8-4f45-87c8-98fd7f81e42b-bundle"}}]}