{"resourceType":"Bundle","id":"tests-61e522ed-d51b-4398-bb65-6cf7fefe179f-bundle","type":"transaction","entry":[{"fullUrl":"Bundle/tests-61e522ed-d51b-4398-bb65-6cf7fefe179f-bundle","resource":{"resourceType":"Bundle","id":"tests-61e522ed-d51b-4398-bb65-6cf7fefe179f-bundle","type":"transaction","entry":[{"fullUrl":"https://madie.cms.gov/Patient/61e522ed-d51b-4398-bb65-6cf7fefe179f","resource":{"resourceType":"Patient","id":"61e522ed-d51b-4398-bb65-6cf7fefe179f","meta":{"profile":["http://hl7.org/fhir/us/qicore/StructureDefinition/qicore-patient"]},"text":{"status":"generated","div":"<div xmlns=\"http://www.w3.org/1999/xhtml\"><div class=\"hapiHeaderText\">PtRef_MO_Riv_DayOfAnes_ProcRvltDT <b>NUMERPASS </b></div><table class=\"hapiPropertyTable\"><tbody><tr><td>Identifier</td><td>bec2580a47ed4bf7691b191e0654b2de</td></tr><tr><td>Date of birth</td><td><span>02 January 1974</span></td></tr></tbody></table></div>"},"extension":[{"url":"http://hl7.org/fhir/us/core/StructureDefinition/us-core-race","extension":[{"url":"ombCategory","valueCoding":{"system":"urn:oid:2.16.840.1.113883.6.238","code":"1002-5","display":"American Indian or Alaska Native","userSelected":true}},{"url":"text","valueString":"American Indian or Alaska Native"}]},{"url":"http://hl7.org/fhir/us/core/StructureDefinition/us-core-ethnicity","extension":[{"url":"ombCategory","valueCoding":{"system":"urn:oid:2.16.840.1.113883.6.238","code":"2135-2","display":"Hispanic or Latino","userSelected":true}},{"url":"text","valueString":"Hispanic or Latino"}]}],"identifier":[{"type":{"coding":[{"system":"http://terminology.hl7.org/CodeSystem/v2-0203","code":"MR"}]},"system":"https://bonnie-fhir.healthit.gov/","value":"612e6b2e02c62a011f2ecc81"}],"active":true,"name":[{"use":"usual","family":"NUMERPass","given":["PtRefMORivDayOfAnesProcRvltDT"]}],"gender":"male","birthDate":"1975-01-02"},"request":{"method":"PUT","url":"Patient/61e522ed-d51b-4398-bb65-6cf7fefe179f"}},{"fullUrl":"https://madie.cms.gov/Encounter/1d4d60ec-87d8-45b1-bf39-c12121d1df70","resource":{"resourceType":"Encounter","id":"1d4d60ec-87d8-45b1-bf39-c12121d1df70","meta":{"profile":["http://hl7.org/fhir/us/qicore/StructureDefinition/qicore-encounter"]},"status":"finished","class":{"system":"http://terminology.hl7.org/CodeSystem/v3-ActCode","code":"IMP","display":"inpatient encounter"},"type":[{"coding":[{"system":"http://snomed.info/sct","code":"8715000"}]}],"subject":{"reference":"Patient/61e522ed-d51b-4398-bb65-6cf7fefe179f"},"period":{"start":"2026-11-01T08:00:00.000+00:00","end":"2026-11-26T08:15:00.000+00:00"},"length":{"value":25,"unit":"days"}},"request":{"method":"PUT","url":"Encounter/1d4d60ec-87d8-45b1-bf39-c12121d1df70"}},{"fullUrl":"https://madie.cms.gov/Coverage/97657cdb-d870-47ec-beaf-85ed8cd3eebb","resource":{"resourceType":"Coverage","id":"97657cdb-d870-47ec-beaf-85ed8cd3eebb","status":"active","beneficiary":{"reference":"Patient/61e522ed-d51b-4398-bb65-6cf7fefe179f"},"period":{"start":"1975-01-02T08:00:00.000+00:00"},"payor":[{"reference":"Organization/49bca5c3-2e57-4351-ba1c-8ddfa0a3ac5b"}]},"request":{"method":"PUT","url":"Coverage/97657cdb-d870-47ec-beaf-85ed8cd3eebb"}},{"fullUrl":"https://madie.cms.gov/MedicationRequest/8d163790-fb1f-4168-891a-38331e687c3a","resource":{"resourceType":"MedicationRequest","id":"8d163790-fb1f-4168-891a-38331e687c3a","meta":{"profile":["http://hl7.org/fhir/us/qicore/StructureDefinition/qicore-medicationnotrequested"]},"status":"completed","intent":"order","category":[{"coding":[{"system":"http://terminology.hl7.org/CodeSystem/medicationrequest-category","code":"community"}]}],"doNotPerform":true,"medicationCodeableConcept":{"coding":[{"system":"http://www.nlm.nih.gov/research/umls/rxnorm","code":"1114198"}]},"subject":{"reference":"Patient/61e522ed-d51b-4398-bb65-6cf7fefe179f"},"authoredOn":"2026-11-01T07:00:00.000+00:00","requester":{"reference":"Practitioner/123456"},"reasonCode":[{"coding":[{"system":"http://snomed.info/sct","code":"443390004","display":"Refusal of treatment by patient (situation)","userSelected":true}]}],"dosageInstruction":[{"timing":{"repeat":{"boundsPeriod":{"start":"2026-11-03T09:00:00.000+00:00"}}}}]},"request":{"method":"PUT","url":"MedicationRequest/8d163790-fb1f-4168-891a-38331e687c3a"}},{"fullUrl":"https://madie.cms.gov/Procedure/1c38ae67-edef-49f1-a60a-0115dcf4d998","resource":{"resourceType":"Procedure","id":"1c38ae67-edef-49f1-a60a-0115dcf4d998","meta":{"profile":["http://hl7.org/fhir/us/qicore/StructureDefinition/qicore-procedure"]},"extension":[{"url":"http://hl7.org/fhir/us/qicore/StructureDefinition/qicore-recorded","valueDateTime":"2013-11-19T13:35:00.000+00:00"}],"status":"completed","code":{"coding":[{"system":"http://snomed.info/sct","code":"18946005"}]},"subject":{"reference":"Patient/61e522ed-d51b-4398-bb65-6cf7fefe179f"},"performedDateTime":"2026-11-02T09:15:00.000+00:00"},"request":{"method":"PUT","url":"Procedure/1c38ae67-edef-49f1-a60a-0115dcf4d998"}},{"fullUrl":"https://madie.cms.gov/Organization/49bca5c3-2e57-4351-ba1c-8ddfa0a3ac5b","resource":{"resourceType":"Organization","id":"49bca5c3-2e57-4351-ba1c-8ddfa0a3ac5b","meta":{"profile":["http://hl7.org/fhir/us/qicore/StructureDefinition/qicore-organization"]},"identifier":[{"use":"temp","system":"urn:oid:2.16.840.1.113883.4.4","value":"21-3259825"}],"active":true,"type":[{"coding":[{"system":"http://terminology.hl7.org/CodeSystem/organization-type","code":"pay","display":"Payer"}]}],"name":"Blue Cross Blue Shield of Texas","telecom":[{"system":"phone","value":"(+1) 972-766-6900"}],"address":[{"use":"billing","type":"postal","line":["P.O. Box 660044"],"city":"Dallas","state":"TX","postalCode":"75266-0044","country":"USA"}]},"request":{"method":"PUT","url":"Organization/49bca5c3-2e57-4351-ba1c-8ddfa0a3ac5b"}},{"fullUrl":"https://madie.cms.gov/Practitioner/26862027-1347-47b9-ae4e-1993c0ef9b5a","resource":{"resourceType":"Practitioner","id":"26862027-1347-47b9-ae4e-1993c0ef9b5a","identifier":[{"system":"http://hl7.org/fhir/sid/us-npi","value":"123456"}],"name":[{"family":"Evil","prefix":["Dr"]}]},"request":{"method":"PUT","url":"Practitioner/26862027-1347-47b9-ae4e-1993c0ef9b5a"}},{"fullUrl":"https://madie.cms.gov/MeasureReport/0731394f-c803-4bf9-a303-cb6e4a9d8880","resource":{"resourceType":"MeasureReport","id":"0731394f-c803-4bf9-a303-cb6e4a9d8880","meta":{"profile":["http://hl7.org/fhir/us/cqfmeasures/StructureDefinition/test-case-cqfm"]},"contained":[{"resourceType":"Parameters","id":"2295c495-db8c-4a99-985c-1e162c1a9bf2-parameters","parameter":[{"name":"subject","valueString":"61e522ed-d51b-4398-bb65-6cf7fefe179f"}]}],"extension":[{"url":"http://hl7.org/fhir/StructureDefinition/cqf-inputParameters","valueReference":{"reference":"#2295c495-db8c-4a99-985c-1e162c1a9bf2-parameters"}},{"url":"http://hl7.org/fhir/us/cqfmeasures/StructureDefinition/cqfm-testCaseDescription","valueMarkdown":"Rivaroxaban refused <= 1 day after end of anesthesia as revelant Datetime\n"}],"modifierExtension":[{"url":"http://hl7.org/fhir/us/cqfmeasures/StructureDefinition/cqfm-isTestCase","valueBoolean":true}],"status":"complete","type":"individual","measure":"https://madie.cms.gov/Measure/CMS108FHIRVTEProphylaxis","period":{"start":"2026-01-01","end":"2026-12-31"},"group":[{"id":"Group_1","population":[{"id":"InitialPopulation_1","code":{"coding":[{"system":"http://terminology.hl7.org/CodeSystem/measure-population","code":"initial-population","display":"Initial Population"}]},"count":1},{"id":"Denominator_1","code":{"coding":[{"system":"http://terminology.hl7.org/CodeSystem/measure-population","code":"denominator","display":"Denominator"}]},"count":1},{"id":"DenominatorExclusion_1","code":{"coding":[{"system":"http://terminology.hl7.org/CodeSystem/measure-population","code":"denominator-exclusion","display":"Denominator Exclusion"}]},"count":0},{"id":"Numerator_1","code":{"coding":[{"system":"http://terminology.hl7.org/CodeSystem/measure-population","code":"numerator","display":"Numerator"}]},"count":1}],"measureScore":{"value":0.0}}],"evaluatedResource":[{"reference":"Patient/61e522ed-d51b-4398-bb65-6cf7fefe179f"},{"reference":"Encounter/1d4d60ec-87d8-45b1-bf39-c12121d1df70"},{"reference":"Coverage/97657cdb-d870-47ec-beaf-85ed8cd3eebb"},{"reference":"MedicationRequest/8d163790-fb1f-4168-891a-38331e687c3a"},{"reference":"Procedure/1c38ae67-edef-49f1-a60a-0115dcf4d998"},{"reference":"Organization/49bca5c3-2e57-4351-ba1c-8ddfa0a3ac5b"},{"reference":"Practitioner/26862027-1347-47b9-ae4e-1993c0ef9b5a"}]},"request":{"method":"PUT","url":"MeasureReport/0731394f-c803-4bf9-a303-cb6e4a9d8880"}}]},"request":{"method":"PUT","url":"Bundle/tests-61e522ed-d51b-4398-bb65-6cf7fefe179f-bundle"}}]}