{"resourceType":"Bundle","id":"tests-d170a0a8-b5ad-4303-b6df-e304dd5f92ad-bundle","type":"transaction","entry":[{"fullUrl":"Bundle/tests-d170a0a8-b5ad-4303-b6df-e304dd5f92ad-bundle","resource":{"resourceType":"Bundle","id":"tests-d170a0a8-b5ad-4303-b6df-e304dd5f92ad-bundle","type":"transaction","entry":[{"fullUrl":"https://madie.cms.gov/Patient/d170a0a8-b5ad-4303-b6df-e304dd5f92ad","resource":{"resourceType":"Patient","id":"d170a0a8-b5ad-4303-b6df-e304dd5f92ad","meta":{"profile":["http://hl7.org/fhir/us/qicore/StructureDefinition/qicore-patient"]},"text":{"status":"generated","div":"<div xmlns=\"http://www.w3.org/1999/xhtml\"><div class=\"hapiHeaderText\">PrincDxIschStroke <b>DENEXPASS </b></div><table class=\"hapiPropertyTable\"><tbody><tr><td>Identifier</td><td>29c9716eb5f48b54d7b337bf497e0e5e</td></tr><tr><td>Date of birth</td><td><span>01 December 2003</span></td></tr></tbody></table></div>"},"extension":[{"url":"http://hl7.org/fhir/us/core/StructureDefinition/us-core-race","extension":[{"url":"ombCategory","valueCoding":{"system":"urn:oid:2.16.840.1.113883.6.238","code":"1002-5","display":"American Indian or Alaska Native","userSelected":true}},{"url":"text","valueString":"American Indian or Alaska Native"}]},{"url":"http://hl7.org/fhir/us/core/StructureDefinition/us-core-ethnicity","extension":[{"url":"ombCategory","valueCoding":{"system":"urn:oid:2.16.840.1.113883.6.238","code":"2135-2","display":"Hispanic or Latino","userSelected":true}},{"url":"text","valueString":"Hispanic or Latino"}]}],"identifier":[{"type":{"coding":[{"system":"http://terminology.hl7.org/CodeSystem/v2-0203","code":"MR"}]},"system":"https://bonnie-fhir.healthit.gov/","value":"612e6afd02c62a011f2ec06f"}],"active":true,"name":[{"use":"usual","family":"DENEXPass","given":["PrincDxIschStroke"]}],"gender":"male","birthDate":"2003-12-01"},"request":{"method":"PUT","url":"Patient/d170a0a8-b5ad-4303-b6df-e304dd5f92ad"}},{"fullUrl":"https://madie.cms.gov/Encounter/293949c6-089e-407c-87f4-75a6833d4a0f","resource":{"resourceType":"Encounter","id":"293949c6-089e-407c-87f4-75a6833d4a0f","meta":{"profile":["http://hl7.org/fhir/us/qicore/StructureDefinition/qicore-encounter"]},"status":"finished","class":{"system":"http://terminology.hl7.org/CodeSystem/v3-ActCode","code":"IMP","display":"inpatient encounter"},"type":[{"coding":[{"system":"http://snomed.info/sct","code":"183452005"}]}],"subject":{"reference":"Patient/d170a0a8-b5ad-4303-b6df-e304dd5f92ad"},"period":{"start":"2026-12-01T00:00:00.000+00:00","end":"2026-12-31T23:59:00.000+00:00"},"length":{"value":30,"unit":"days"},"diagnosis":[{"condition":{"reference":"Condition/75940060-a2fb-4e52-9a63-aa87e43f647e"},"use":{"coding":[{"system":"http://terminology.hl7.org/CodeSystem/diagnosis-role","code":"billing"}]},"rank":1}]},"request":{"method":"PUT","url":"Encounter/293949c6-089e-407c-87f4-75a6833d4a0f"}},{"fullUrl":"https://madie.cms.gov/claim/5ca62962b8484628b8de1ec5","resource":{"resourceType":"Claim","id":"5ca62962b8484628b8de1ec5","meta":{"profile":["http://hl7.org/fhir/us/qicore/StructureDefinition/qicore-claim"]},"status":"active","type":{"coding":[{"system":"http://terminology.hl7.org/CodeSystem/claim-type","code":"institutional"}]},"use":"claim","patient":{"reference":"Patient/d170a0a8-b5ad-4303-b6df-e304dd5f92ad"},"created":"2026-12-01","provider":{"reference":"Practitioner/32777433-272b-461c-8765-d42808ab4938"},"priority":{"coding":[{"system":"http://terminology.hl7.org/CodeSystem/processpriority","code":"normal"}]},"diagnosis":[{"sequence":1,"diagnosisCodeableConcept":{"coding":[{"system":"http://hl7.org/fhir/sid/icd-10-cm","code":"I63.00"}]},"type":[{"coding":[{"system":"http://terminology.hl7.org/CodeSystem/ex-diagnosistype","code":"principal"}]}]}],"insurance":[{"sequence":1,"focal":true,"coverage":{"reference":"Coverage/c9112de5-474c-420b-b910-fc793431f741"}}],"item":[{"sequence":1,"diagnosisSequence":[1],"productOrService":{"coding":[{"system":"http://terminology.hl7.org/CodeSystem/ex-USCLS","code":"99555"}]},"encounter":[{"reference":"Encounter/293949c6-089e-407c-87f4-75a6833d4a0f"}]}]},"request":{"method":"PUT","url":"Claim/5ca62962b8484628b8de1ec5"}},{"fullUrl":"https://madie.cms.gov/Coverage/c9112de5-474c-420b-b910-fc793431f741","resource":{"resourceType":"Coverage","id":"c9112de5-474c-420b-b910-fc793431f741","status":"active","beneficiary":{"reference":"Patient/d170a0a8-b5ad-4303-b6df-e304dd5f92ad"},"period":{"start":"2004-12-01T01:00:00.000+00:00"},"payor":[{"reference":"Organization/702db97c-5419-4880-a390-0c266f2706d1"}]},"request":{"method":"PUT","url":"Coverage/c9112de5-474c-420b-b910-fc793431f741"}},{"fullUrl":"https://madie.cms.gov/Condition/75940060-a2fb-4e52-9a63-aa87e43f647e","resource":{"resourceType":"Condition","id":"75940060-a2fb-4e52-9a63-aa87e43f647e","meta":{"profile":["http://hl7.org/fhir/us/qicore/StructureDefinition/qicore-condition-problems-health-concerns"]},"category":[{"coding":[{"system":"http://terminology.hl7.org/CodeSystem/condition-category","code":"encounter-diagnosis","display":"Encounter Diagnosis"}]}],"code":{"coding":[{"system":"http://snomed.info/sct","version":"2025-03","code":"111297002","display":"Nonparalytic stroke (disorder)","userSelected":true}]},"subject":{"reference":"Patient/d170a0a8-b5ad-4303-b6df-e304dd5f92ad"},"recordedDate":"2026-07-13T08:00:00.000+00:00"},"request":{"method":"PUT","url":"Condition/75940060-a2fb-4e52-9a63-aa87e43f647e"}},{"fullUrl":"https://madie.cms.gov/Organization/702db97c-5419-4880-a390-0c266f2706d1","resource":{"resourceType":"Organization","id":"702db97c-5419-4880-a390-0c266f2706d1","meta":{"profile":["http://hl7.org/fhir/us/qicore/StructureDefinition/qicore-organization"]},"identifier":[{"use":"temp","system":"urn:oid:2.16.840.1.113883.4.4","value":"21-3259825"}],"active":true,"type":[{"coding":[{"system":"http://terminology.hl7.org/CodeSystem/organization-type","code":"pay","display":"Payer"}]}],"name":"Blue Cross Blue Shield of Texas","telecom":[{"system":"phone","value":"(+1) 972-766-6900"}],"address":[{"use":"billing","type":"postal","line":["P.O. Box 660044"],"city":"Dallas","state":"TX","postalCode":"75266-0044","country":"USA"}]},"request":{"method":"PUT","url":"Organization/702db97c-5419-4880-a390-0c266f2706d1"}},{"fullUrl":"https://madie.cms.gov/Practitioner/32777433-272b-461c-8765-d42808ab4938","resource":{"resourceType":"Practitioner","id":"32777433-272b-461c-8765-d42808ab4938","meta":{"profile":["http://hl7.org/fhir/us/qicore/StructureDefinition/qicore-practitioner"]},"identifier":[{"system":"http://hl7.org/fhir/sid/us-npi","value":"9999999896"}],"name":[{"family":"Evil","prefix":["Dr"]}]},"request":{"method":"PUT","url":"Practitioner/32777433-272b-461c-8765-d42808ab4938"}},{"fullUrl":"https://madie.cms.gov/MeasureReport/0b41bdce-3ba6-48d2-9105-556fe90c179b","resource":{"resourceType":"MeasureReport","id":"0b41bdce-3ba6-48d2-9105-556fe90c179b","meta":{"profile":["http://hl7.org/fhir/us/cqfmeasures/StructureDefinition/test-case-cqfm"]},"contained":[{"resourceType":"Parameters","id":"0b056ac8-c889-4289-83a7-76c8fd74269b-parameters","parameter":[{"name":"subject","valueString":"d170a0a8-b5ad-4303-b6df-e304dd5f92ad"}]}],"extension":[{"url":"http://hl7.org/fhir/StructureDefinition/cqf-inputParameters","valueReference":{"reference":"#0b056ac8-c889-4289-83a7-76c8fd74269b-parameters"}},{"url":"http://hl7.org/fhir/us/cqfmeasures/StructureDefinition/cqfm-testCaseDescription","valueMarkdown":"Principal Dx of IschStroke, also test Race and Gender\n"}],"modifierExtension":[{"url":"http://hl7.org/fhir/us/cqfmeasures/StructureDefinition/cqfm-isTestCase","valueBoolean":true}],"status":"complete","type":"individual","measure":"https://madie.cms.gov/Measure/CMS108FHIRVTEProphylaxis","period":{"start":"2026-01-01","end":"2026-12-31"},"group":[{"id":"Group_1","population":[{"id":"InitialPopulation_1","code":{"coding":[{"system":"http://terminology.hl7.org/CodeSystem/measure-population","code":"initial-population","display":"Initial Population"}]},"count":1},{"id":"Denominator_1","code":{"coding":[{"system":"http://terminology.hl7.org/CodeSystem/measure-population","code":"denominator","display":"Denominator"}]},"count":1},{"id":"DenominatorExclusion_1","code":{"coding":[{"system":"http://terminology.hl7.org/CodeSystem/measure-population","code":"denominator-exclusion","display":"Denominator Exclusion"}]},"count":1},{"id":"Numerator_1","code":{"coding":[{"system":"http://terminology.hl7.org/CodeSystem/measure-population","code":"numerator","display":"Numerator"}]},"count":0}],"measureScore":{"value":0.0}}],"evaluatedResource":[{"reference":"Patient/d170a0a8-b5ad-4303-b6df-e304dd5f92ad"},{"reference":"Encounter/293949c6-089e-407c-87f4-75a6833d4a0f"},{"reference":"Claim/5ca62962b8484628b8de1ec5"},{"reference":"Coverage/c9112de5-474c-420b-b910-fc793431f741"},{"reference":"Condition/75940060-a2fb-4e52-9a63-aa87e43f647e"},{"reference":"Organization/702db97c-5419-4880-a390-0c266f2706d1"},{"reference":"Practitioner/32777433-272b-461c-8765-d42808ab4938"}]},"request":{"method":"PUT","url":"MeasureReport/0b41bdce-3ba6-48d2-9105-556fe90c179b"}}]},"request":{"method":"PUT","url":"Bundle/tests-d170a0a8-b5ad-4303-b6df-e304dd5f92ad-bundle"}}]}