{"resourceType":"Bundle","id":"tests-29bd19cc-e5fc-431b-b308-ce5f816533d3-bundle","type":"transaction","entry":[{"fullUrl":"Bundle/tests-29bd19cc-e5fc-431b-b308-ce5f816533d3-bundle","resource":{"resourceType":"Bundle","id":"tests-29bd19cc-e5fc-431b-b308-ce5f816533d3-bundle","type":"transaction","entry":[{"fullUrl":"https://madie.cms.gov/Patient/29bd19cc-e5fc-431b-b308-ce5f816533d3","resource":{"resourceType":"Patient","id":"29bd19cc-e5fc-431b-b308-ce5f816533d3","meta":{"profile":["http://hl7.org/fhir/us/qicore/StructureDefinition/qicore-patient"]},"text":{"status":"generated","div":"<div xmlns=\"http://www.w3.org/1999/xhtml\"><div class=\"hapiHeaderText\">RixDuringOBS_OBSGT1hr <b>NUMERFAIL </b></div><table class=\"hapiPropertyTable\"><tbody><tr><td>Identifier</td><td>9ac41bff10ef3353d0742df1f73dc984</td></tr><tr><td>Date of birth</td><td><span>02 January 1974</span></td></tr></tbody></table></div>"},"extension":[{"url":"http://hl7.org/fhir/us/core/StructureDefinition/us-core-race","extension":[{"url":"ombCategory","valueCoding":{"system":"urn:oid:2.16.840.1.113883.6.238","code":"1002-5","display":"American Indian or Alaska Native","userSelected":true}},{"url":"text","valueString":"American Indian or Alaska Native"}]},{"url":"http://hl7.org/fhir/us/core/StructureDefinition/us-core-ethnicity","extension":[{"url":"ombCategory","valueCoding":{"system":"urn:oid:2.16.840.1.113883.6.238","code":"2135-2","display":"Hispanic or Latino","userSelected":true}},{"url":"text","valueString":"Hispanic or Latino"}]}],"identifier":[{"type":{"coding":[{"system":"http://terminology.hl7.org/CodeSystem/v2-0203","code":"MR"}]},"system":"https://bonnie-fhir.healthit.gov/","value":"612e6b1302c62a011f2ec527"}],"active":true,"name":[{"use":"usual","family":"NUMERFail","given":["RixDuringOBS_OBSGT1hr"]}],"gender":"male","birthDate":"1975-01-02"},"request":{"method":"PUT","url":"Patient/29bd19cc-e5fc-431b-b308-ce5f816533d3"}},{"fullUrl":"https://madie.cms.gov/Encounter/494219cd-3975-4cf6-bb96-8c27a3e9ea85","resource":{"resourceType":"Encounter","id":"494219cd-3975-4cf6-bb96-8c27a3e9ea85","meta":{"profile":["http://hl7.org/fhir/us/qicore/StructureDefinition/qicore-encounter"]},"status":"finished","class":{"system":"http://terminology.hl7.org/CodeSystem/v3-ActCode","code":"IMP","display":"inpatient encounter"},"type":[{"coding":[{"system":"http://snomed.info/sct","code":"8715000"}]}],"subject":{"reference":"Patient/29bd19cc-e5fc-431b-b308-ce5f816533d3"},"period":{"start":"2026-11-01T08:00:00.000+00:00","end":"2026-11-26T08:15:00.000+00:00"},"length":{"value":25,"unit":"days"}},"request":{"method":"PUT","url":"Encounter/494219cd-3975-4cf6-bb96-8c27a3e9ea85"}},{"fullUrl":"https://madie.cms.gov/Encounter/b8e9221f-3b37-4de4-ab61-27e53690e66f","resource":{"resourceType":"Encounter","id":"b8e9221f-3b37-4de4-ab61-27e53690e66f","meta":{"profile":["http://hl7.org/fhir/us/qicore/StructureDefinition/qicore-encounter"]},"status":"finished","class":{"system":"http://terminology.hl7.org/CodeSystem/v3-ActCode","code":"EMER","display":"emergency"},"type":[{"coding":[{"system":"http://snomed.info/sct","code":"4525004"}]}],"subject":{"reference":"Patient/29bd19cc-e5fc-431b-b308-ce5f816533d3"},"period":{"start":"2026-10-31T20:00:00.000+00:00","end":"2026-10-31T20:00:00.000+00:00"}},"request":{"method":"PUT","url":"Encounter/b8e9221f-3b37-4de4-ab61-27e53690e66f"}},{"fullUrl":"https://madie.cms.gov/Encounter/e553d71b-8572-4f7e-9bda-a751f13b66e8","resource":{"resourceType":"Encounter","id":"e553d71b-8572-4f7e-9bda-a751f13b66e8","meta":{"profile":["http://hl7.org/fhir/us/qicore/StructureDefinition/qicore-encounter"]},"status":"finished","class":{"system":"http://terminology.hl7.org/CodeSystem/v3-ActCode","code":"OBSENC","display":"observation encounter"},"type":[{"coding":[{"system":"http://snomed.info/sct","code":"448951000124107"}]}],"subject":{"reference":"Patient/29bd19cc-e5fc-431b-b308-ce5f816533d3"},"period":{"start":"2026-10-31T20:00:00.000+00:00","end":"2026-11-01T05:00:00.000+00:00"}},"request":{"method":"PUT","url":"Encounter/e553d71b-8572-4f7e-9bda-a751f13b66e8"}},{"fullUrl":"https://madie.cms.gov/Coverage/2299d5a8-97a6-49f6-8d80-2be1bc17f343","resource":{"resourceType":"Coverage","id":"2299d5a8-97a6-49f6-8d80-2be1bc17f343","status":"active","beneficiary":{"reference":"Patient/29bd19cc-e5fc-431b-b308-ce5f816533d3"},"period":{"start":"1975-01-02T08:00:00.000+00:00"},"payor":[{"reference":"Organization/46fe098b-b42e-438a-9f0a-912cea9e4761"}]},"request":{"method":"PUT","url":"Coverage/2299d5a8-97a6-49f6-8d80-2be1bc17f343"}},{"fullUrl":"https://madie.cms.gov/MedicationAdministration/1b8e008f-270c-498a-a778-8c9350176982","resource":{"resourceType":"MedicationAdministration","id":"1b8e008f-270c-498a-a778-8c9350176982","meta":{"profile":["http://hl7.org/fhir/us/qicore/StructureDefinition/qicore-medicationadministration"]},"status":"completed","medicationCodeableConcept":{"coding":[{"system":"http://www.nlm.nih.gov/research/umls/rxnorm","code":"1114198"}]},"subject":{"reference":"Patient/29bd19cc-e5fc-431b-b308-ce5f816533d3"},"effectivePeriod":{"start":"2026-10-31T09:00:00.000+00:00","end":"2026-10-31T09:15:00.000+00:00"}},"request":{"method":"PUT","url":"MedicationAdministration/1b8e008f-270c-498a-a778-8c9350176982"}},{"fullUrl":"https://madie.cms.gov/Organization/46fe098b-b42e-438a-9f0a-912cea9e4761","resource":{"resourceType":"Organization","id":"46fe098b-b42e-438a-9f0a-912cea9e4761","meta":{"profile":["http://hl7.org/fhir/us/qicore/StructureDefinition/qicore-organization"]},"identifier":[{"use":"temp","system":"urn:oid:2.16.840.1.113883.4.4","value":"21-3259825"}],"active":true,"type":[{"coding":[{"system":"http://terminology.hl7.org/CodeSystem/organization-type","code":"pay","display":"Payer"}]}],"name":"Blue Cross Blue Shield of Texas","telecom":[{"system":"phone","value":"(+1) 972-766-6900"}],"address":[{"use":"billing","type":"postal","line":["P.O. Box 660044"],"city":"Dallas","state":"TX","postalCode":"75266-0044","country":"USA"}]},"request":{"method":"PUT","url":"Organization/46fe098b-b42e-438a-9f0a-912cea9e4761"}},{"fullUrl":"https://madie.cms.gov/Practitioner/947f43fe-e458-481b-818d-095bcbf10ef4","resource":{"resourceType":"Practitioner","id":"947f43fe-e458-481b-818d-095bcbf10ef4","identifier":[{"system":"http://hl7.org/fhir/sid/us-npi","value":"123456"}],"name":[{"family":"Evil","prefix":["Dr"]}]},"request":{"method":"PUT","url":"Practitioner/947f43fe-e458-481b-818d-095bcbf10ef4"}},{"fullUrl":"https://madie.cms.gov/MeasureReport/aa0e7986-cb60-4ccf-9595-a5c53dfd1999","resource":{"resourceType":"MeasureReport","id":"aa0e7986-cb60-4ccf-9595-a5c53dfd1999","meta":{"profile":["http://hl7.org/fhir/us/cqfmeasures/StructureDefinition/test-case-cqfm"]},"contained":[{"resourceType":"Parameters","id":"4804db76-53f8-4130-8fe8-f4696a62ebd7-parameters","parameter":[{"name":"subject","valueString":"29bd19cc-e5fc-431b-b308-ce5f816533d3"}]}],"extension":[{"url":"http://hl7.org/fhir/StructureDefinition/cqf-inputParameters","valueReference":{"reference":"#4804db76-53f8-4130-8fe8-f4696a62ebd7-parameters"}},{"url":"http://hl7.org/fhir/us/cqfmeasures/StructureDefinition/cqfm-testCaseDescription","valueMarkdown":"Rivaroxaban for VTE Prophylaxis Med Administered during OBS which ends >1 hr before adm and ED = 1 hr ends OBS\n"}],"modifierExtension":[{"url":"http://hl7.org/fhir/us/cqfmeasures/StructureDefinition/cqfm-isTestCase","valueBoolean":true}],"status":"complete","type":"individual","measure":"https://madie.cms.gov/Measure/CMS108FHIRVTEProphylaxis","period":{"start":"2026-01-01","end":"2026-12-31"},"group":[{"id":"Group_1","population":[{"id":"InitialPopulation_1","code":{"coding":[{"system":"http://terminology.hl7.org/CodeSystem/measure-population","code":"initial-population","display":"Initial Population"}]},"count":1},{"id":"Denominator_1","code":{"coding":[{"system":"http://terminology.hl7.org/CodeSystem/measure-population","code":"denominator","display":"Denominator"}]},"count":1},{"id":"DenominatorExclusion_1","code":{"coding":[{"system":"http://terminology.hl7.org/CodeSystem/measure-population","code":"denominator-exclusion","display":"Denominator Exclusion"}]},"count":0},{"id":"Numerator_1","code":{"coding":[{"system":"http://terminology.hl7.org/CodeSystem/measure-population","code":"numerator","display":"Numerator"}]},"count":0}],"measureScore":{"value":0.0}}],"evaluatedResource":[{"reference":"Patient/29bd19cc-e5fc-431b-b308-ce5f816533d3"},{"reference":"Encounter/494219cd-3975-4cf6-bb96-8c27a3e9ea85"},{"reference":"Encounter/b8e9221f-3b37-4de4-ab61-27e53690e66f"},{"reference":"Encounter/e553d71b-8572-4f7e-9bda-a751f13b66e8"},{"reference":"Coverage/2299d5a8-97a6-49f6-8d80-2be1bc17f343"},{"reference":"MedicationAdministration/1b8e008f-270c-498a-a778-8c9350176982"},{"reference":"Organization/46fe098b-b42e-438a-9f0a-912cea9e4761"},{"reference":"Practitioner/947f43fe-e458-481b-818d-095bcbf10ef4"}]},"request":{"method":"PUT","url":"MeasureReport/aa0e7986-cb60-4ccf-9595-a5c53dfd1999"}}]},"request":{"method":"PUT","url":"Bundle/tests-29bd19cc-e5fc-431b-b308-ce5f816533d3-bundle"}}]}