{"resourceType":"Bundle","id":"tests-1f59fbfd-286a-4d4e-bd11-17769e86e872-bundle","type":"transaction","entry":[{"fullUrl":"Bundle/tests-1f59fbfd-286a-4d4e-bd11-17769e86e872-bundle","resource":{"resourceType":"Bundle","id":"tests-1f59fbfd-286a-4d4e-bd11-17769e86e872-bundle","type":"transaction","entry":[{"fullUrl":"https://madie.cms.gov/Patient/1f59fbfd-286a-4d4e-bd11-17769e86e872","resource":{"resourceType":"Patient","id":"1f59fbfd-286a-4d4e-bd11-17769e86e872","meta":{"profile":["http://hl7.org/fhir/us/qicore/StructureDefinition/qicore-patient"]},"text":{"status":"generated","div":"<div xmlns=\"http://www.w3.org/1999/xhtml\"><div class=\"hapiHeaderText\">CMPerfRvltStartNULLEndDayAfAdm <b>DENEXFAIL </b></div><table class=\"hapiPropertyTable\"><tbody><tr><td>Identifier</td><td>8e120c670e34f79f329b985203cc966e</td></tr><tr><td>Date of birth</td><td><span>02 January 1974</span></td></tr></tbody></table></div>"},"extension":[{"url":"http://hl7.org/fhir/us/core/StructureDefinition/us-core-race","extension":[{"url":"ombCategory","valueCoding":{"system":"urn:oid:2.16.840.1.113883.6.238","code":"1002-5","display":"American Indian or Alaska Native","userSelected":true}},{"url":"text","valueString":"American Indian or Alaska Native"}]},{"url":"http://hl7.org/fhir/us/core/StructureDefinition/us-core-ethnicity","extension":[{"url":"ombCategory","valueCoding":{"system":"urn:oid:2.16.840.1.113883.6.238","code":"2135-2","display":"Hispanic or Latino","userSelected":true}},{"url":"text","valueString":"Hispanic or Latino"}]}],"identifier":[{"type":{"coding":[{"system":"http://terminology.hl7.org/CodeSystem/v2-0203","code":"MR"}]},"system":"https://bonnie-fhir.healthit.gov/","value":"612e6b2002c62a011f2ec907"}],"active":true,"name":[{"use":"usual","family":"DENEXFail","given":["CMPerfRvltStartNULLEndDayAfAdm"]}],"gender":"male","birthDate":"1975-01-02"},"request":{"method":"PUT","url":"Patient/1f59fbfd-286a-4d4e-bd11-17769e86e872"}},{"fullUrl":"https://madie.cms.gov/Encounter/aa2845bd-6b95-4234-b875-72ffa5772704","resource":{"resourceType":"Encounter","id":"aa2845bd-6b95-4234-b875-72ffa5772704","meta":{"profile":["http://hl7.org/fhir/us/qicore/StructureDefinition/qicore-encounter"]},"status":"finished","class":{"system":"http://terminology.hl7.org/CodeSystem/v3-ActCode","code":"IMP","display":"inpatient encounter"},"type":[{"coding":[{"system":"http://snomed.info/sct","code":"8715000"}]}],"subject":{"reference":"Patient/1f59fbfd-286a-4d4e-bd11-17769e86e872"},"period":{"start":"2026-11-01T08:00:00.000+00:00","end":"2026-11-26T08:15:00.000+00:00"},"length":{"value":25.0,"unit":"days"}},"request":{"method":"PUT","url":"Encounter/aa2845bd-6b95-4234-b875-72ffa5772704"}},{"fullUrl":"https://madie.cms.gov/Procedure/7761b530-6da0-47b5-8c41-b241201e7845","resource":{"resourceType":"Procedure","id":"7761b530-6da0-47b5-8c41-b241201e7845","meta":{"profile":["http://hl7.org/fhir/us/qicore/StructureDefinition/qicore-procedure"]},"extension":[{"url":"http://hl7.org/fhir/us/qicore/StructureDefinition/qicore-recorded","valueDateTime":"2013-12-04T13:35:00.000+00:00"}],"status":"completed","code":{"coding":[{"system":"http://snomed.info/sct","code":"133918004"}]},"subject":{"reference":"Patient/1f59fbfd-286a-4d4e-bd11-17769e86e872"},"performedPeriod":{"end":"2026-11-02T08:15:00.000+00:00"}},"request":{"method":"PUT","url":"Procedure/7761b530-6da0-47b5-8c41-b241201e7845"}},{"fullUrl":"https://madie.cms.gov/Coverage/8a1d9425-507c-44eb-96cd-3a1830a651e0","resource":{"resourceType":"Coverage","id":"8a1d9425-507c-44eb-96cd-3a1830a651e0","status":"active","beneficiary":{"reference":"Patient/1f59fbfd-286a-4d4e-bd11-17769e86e872"},"period":{"start":"1975-01-02T08:00:00.000+00:00"},"payor":[{"reference":"Organization/661becea-9bfd-4090-a0d1-0a0742b1b15c"}]},"request":{"method":"PUT","url":"Coverage/8a1d9425-507c-44eb-96cd-3a1830a651e0"}},{"fullUrl":"https://madie.cms.gov/Organization/661becea-9bfd-4090-a0d1-0a0742b1b15c","resource":{"resourceType":"Organization","id":"661becea-9bfd-4090-a0d1-0a0742b1b15c","meta":{"profile":["http://hl7.org/fhir/us/qicore/StructureDefinition/qicore-organization"]},"identifier":[{"use":"temp","system":"urn:oid:2.16.840.1.113883.4.4","value":"21-3259825"}],"active":true,"type":[{"coding":[{"system":"http://terminology.hl7.org/CodeSystem/organization-type","code":"pay","display":"Payer"}]}],"name":"Blue Cross Blue Shield of Texas","telecom":[{"system":"phone","value":"(+1) 972-766-6900"}],"address":[{"use":"billing","type":"postal","line":["P.O. Box 660044"],"city":"Dallas","state":"TX","postalCode":"75266-0044","country":"USA"}]},"request":{"method":"PUT","url":"Organization/661becea-9bfd-4090-a0d1-0a0742b1b15c"}},{"fullUrl":"https://madie.cms.gov/Practitioner/035785d8-b5af-45d2-ac9a-2ef049880b2e","resource":{"resourceType":"Practitioner","id":"035785d8-b5af-45d2-ac9a-2ef049880b2e","identifier":[{"system":"http://hl7.org/fhir/sid/us-npi","value":"123456"}],"name":[{"family":"Evil","prefix":["Dr"]}]},"request":{"method":"PUT","url":"Practitioner/035785d8-b5af-45d2-ac9a-2ef049880b2e"}},{"fullUrl":"https://madie.cms.gov/MeasureReport/1b03ee81-dd83-415a-b0e9-5a5f5ce8a64d","resource":{"resourceType":"MeasureReport","id":"1b03ee81-dd83-415a-b0e9-5a5f5ce8a64d","meta":{"profile":["http://hl7.org/fhir/us/cqfmeasures/StructureDefinition/test-case-cqfm"]},"contained":[{"resourceType":"Parameters","id":"b3f6c6e0-085a-4381-bfbc-9b0d0c7674dc-parameters","parameter":[{"name":"subject","valueString":"1f59fbfd-286a-4d4e-bd11-17769e86e872"}]}],"extension":[{"url":"http://hl7.org/fhir/StructureDefinition/cqf-inputParameters","valueReference":{"reference":"#b3f6c6e0-085a-4381-bfbc-9b0d0c7674dc-parameters"}},{"url":"http://hl7.org/fhir/us/cqfmeasures/StructureDefinition/cqfm-testCaseDescription","valueMarkdown":"comfort measures performed relevantPeriod start is null. end with day after IP encounter start\n"}],"modifierExtension":[{"url":"http://hl7.org/fhir/us/cqfmeasures/StructureDefinition/cqfm-isTestCase","valueBoolean":true}],"status":"complete","type":"individual","measure":"https://madie.cms.gov/Measure/CMS108FHIRVTEProphylaxis","period":{"start":"2026-01-01","end":"2026-12-31"},"group":[{"id":"Group_1","population":[{"id":"InitialPopulation_1","code":{"coding":[{"system":"http://terminology.hl7.org/CodeSystem/measure-population","code":"initial-population","display":"Initial Population"}]},"count":1},{"id":"Denominator_1","code":{"coding":[{"system":"http://terminology.hl7.org/CodeSystem/measure-population","code":"denominator","display":"Denominator"}]},"count":1},{"id":"DenominatorExclusion_1","code":{"coding":[{"system":"http://terminology.hl7.org/CodeSystem/measure-population","code":"denominator-exclusion","display":"Denominator Exclusion"}]},"count":0},{"id":"Numerator_1","code":{"coding":[{"system":"http://terminology.hl7.org/CodeSystem/measure-population","code":"numerator","display":"Numerator"}]},"count":0}],"measureScore":{"value":0.0}}],"evaluatedResource":[{"reference":"Patient/1f59fbfd-286a-4d4e-bd11-17769e86e872"},{"reference":"Encounter/aa2845bd-6b95-4234-b875-72ffa5772704"},{"reference":"Procedure/7761b530-6da0-47b5-8c41-b241201e7845"},{"reference":"Coverage/8a1d9425-507c-44eb-96cd-3a1830a651e0"},{"reference":"Organization/661becea-9bfd-4090-a0d1-0a0742b1b15c"},{"reference":"Practitioner/035785d8-b5af-45d2-ac9a-2ef049880b2e"}]},"request":{"method":"PUT","url":"MeasureReport/1b03ee81-dd83-415a-b0e9-5a5f5ce8a64d"}}]},"request":{"method":"PUT","url":"Bundle/tests-1f59fbfd-286a-4d4e-bd11-17769e86e872-bundle"}}]}