{"resourceType":"Bundle","id":"tests-6ce8d015-efcf-4c8e-a715-cc7c460e3ba8-bundle","type":"transaction","entry":[{"fullUrl":"Bundle/tests-6ce8d015-efcf-4c8e-a715-cc7c460e3ba8-bundle","resource":{"resourceType":"Bundle","id":"tests-6ce8d015-efcf-4c8e-a715-cc7c460e3ba8-bundle","type":"transaction","entry":[{"fullUrl":"https://madie.cms.gov/Patient/6ce8d015-efcf-4c8e-a715-cc7c460e3ba8","resource":{"resourceType":"Patient","id":"6ce8d015-efcf-4c8e-a715-cc7c460e3ba8","meta":{"profile":["http://hl7.org/fhir/us/qicore/StructureDefinition/qicore-patient"]},"text":{"status":"generated","div":"<div xmlns=\"http://www.w3.org/1999/xhtml\"><div class=\"hapiHeaderText\">MA_Glyco_1DayAFIPEnc <b>NUMERPASS </b></div><table class=\"hapiPropertyTable\"><tbody><tr><td>Identifier</td><td>c2e8bf5527b837484be3c34ba714a74a</td></tr><tr><td>Date of birth</td><td><span>02 January 1974</span></td></tr></tbody></table></div>"},"extension":[{"url":"http://hl7.org/fhir/us/core/StructureDefinition/us-core-race","extension":[{"url":"ombCategory","valueCoding":{"system":"urn:oid:2.16.840.1.113883.6.238","code":"1002-5","display":"American Indian or Alaska Native","userSelected":true}},{"url":"text","valueString":"American Indian or Alaska Native"}]},{"url":"http://hl7.org/fhir/us/core/StructureDefinition/us-core-ethnicity","extension":[{"url":"ombCategory","valueCoding":{"system":"urn:oid:2.16.840.1.113883.6.238","code":"2135-2","display":"Hispanic or Latino","userSelected":true}},{"url":"text","valueString":"Hispanic or Latino"}]}],"identifier":[{"type":{"coding":[{"system":"http://terminology.hl7.org/CodeSystem/v2-0203","code":"MR"}]},"system":"https://bonnie-fhir.healthit.gov/","value":"612e6ad802c62a011f2eb6db"}],"active":true,"name":[{"use":"usual","family":"NUMERPass","given":["MAGlyco1DayAFIPEnc"]}],"gender":"male","birthDate":"1975-01-02"},"request":{"method":"PUT","url":"Patient/6ce8d015-efcf-4c8e-a715-cc7c460e3ba8"}},{"fullUrl":"https://madie.cms.gov/Encounter/510a9a1d-45c4-4496-b366-d6b7bab7a5e1","resource":{"resourceType":"Encounter","id":"510a9a1d-45c4-4496-b366-d6b7bab7a5e1","meta":{"profile":["http://hl7.org/fhir/us/qicore/StructureDefinition/qicore-encounter"]},"status":"finished","class":{"system":"http://terminology.hl7.org/CodeSystem/v3-ActCode","code":"IMP","display":"inpatient encounter"},"type":[{"coding":[{"system":"http://snomed.info/sct","code":"8715000"}]}],"subject":{"reference":"Patient/6ce8d015-efcf-4c8e-a715-cc7c460e3ba8"},"period":{"start":"2026-11-01T08:00:00.000+00:00","end":"2026-11-26T08:15:00.000+00:00"},"length":{"value":25,"unit":"days"}},"request":{"method":"PUT","url":"Encounter/510a9a1d-45c4-4496-b366-d6b7bab7a5e1"}},{"fullUrl":"https://madie.cms.gov/Coverage/0376e981-856a-4f9c-9399-db2313ff90da","resource":{"resourceType":"Coverage","id":"0376e981-856a-4f9c-9399-db2313ff90da","status":"active","beneficiary":{"reference":"Patient/6ce8d015-efcf-4c8e-a715-cc7c460e3ba8"},"period":{"start":"1975-01-02T08:00:00.000+00:00"},"payor":[{"reference":"Organization/4bb3a533-47b0-46d0-b2a5-4becd615fe56"}]},"request":{"method":"PUT","url":"Coverage/0376e981-856a-4f9c-9399-db2313ff90da"}},{"fullUrl":"https://madie.cms.gov/MedicationAdministration/81f5984f-dda6-46f6-bada-1024d80b6f33","resource":{"resourceType":"MedicationAdministration","id":"81f5984f-dda6-46f6-bada-1024d80b6f33","meta":{"profile":["http://hl7.org/fhir/us/qicore/StructureDefinition/qicore-medicationadministration"]},"status":"completed","medicationCodeableConcept":{"coding":[{"system":"http://www.nlm.nih.gov/research/umls/rxnorm","code":"200349"}]},"subject":{"reference":"Patient/6ce8d015-efcf-4c8e-a715-cc7c460e3ba8"},"effectivePeriod":{"start":"2026-11-02T09:00:00.000+00:00","end":"2026-11-02T09:10:00.000+00:00"}},"request":{"method":"PUT","url":"MedicationAdministration/81f5984f-dda6-46f6-bada-1024d80b6f33"}},{"fullUrl":"https://madie.cms.gov/Organization/4bb3a533-47b0-46d0-b2a5-4becd615fe56","resource":{"resourceType":"Organization","id":"4bb3a533-47b0-46d0-b2a5-4becd615fe56","meta":{"profile":["http://hl7.org/fhir/us/qicore/StructureDefinition/qicore-organization"]},"identifier":[{"use":"temp","system":"urn:oid:2.16.840.1.113883.4.4","value":"21-3259825"}],"active":true,"type":[{"coding":[{"system":"http://terminology.hl7.org/CodeSystem/organization-type","code":"pay","display":"Payer"}]}],"name":"Blue Cross Blue Shield of Texas","telecom":[{"system":"phone","value":"(+1) 972-766-6900"}],"address":[{"use":"billing","type":"postal","line":["P.O. Box 660044"],"city":"Dallas","state":"TX","postalCode":"75266-0044","country":"USA"}]},"request":{"method":"PUT","url":"Organization/4bb3a533-47b0-46d0-b2a5-4becd615fe56"}},{"fullUrl":"https://madie.cms.gov/Practitioner/4cc9cd88-90bf-43f1-b93f-74f1c31e4e31","resource":{"resourceType":"Practitioner","id":"4cc9cd88-90bf-43f1-b93f-74f1c31e4e31","identifier":[{"system":"http://hl7.org/fhir/sid/us-npi","value":"123456"}],"name":[{"family":"Evil","prefix":["Dr"]}]},"request":{"method":"PUT","url":"Practitioner/4cc9cd88-90bf-43f1-b93f-74f1c31e4e31"}},{"fullUrl":"https://madie.cms.gov/MeasureReport/77006f7d-3cf4-4ba9-99b2-37e173c75907","resource":{"resourceType":"MeasureReport","id":"77006f7d-3cf4-4ba9-99b2-37e173c75907","meta":{"profile":["http://hl7.org/fhir/us/cqfmeasures/StructureDefinition/test-case-cqfm"]},"contained":[{"resourceType":"Parameters","id":"99cc327e-b826-4384-b7ce-f381ea0d90fd-parameters","parameter":[{"name":"subject","valueString":"6ce8d015-efcf-4c8e-a715-cc7c460e3ba8"}]}],"extension":[{"url":"http://hl7.org/fhir/StructureDefinition/cqf-inputParameters","valueReference":{"reference":"#99cc327e-b826-4384-b7ce-f381ea0d90fd-parameters"}},{"url":"http://hl7.org/fhir/us/cqfmeasures/StructureDefinition/cqfm-testCaseDescription","valueMarkdown":"glycoprotein IIb/IIIa inhibitor = 1 day after start of IP encounter\n"}],"modifierExtension":[{"url":"http://hl7.org/fhir/us/cqfmeasures/StructureDefinition/cqfm-isTestCase","valueBoolean":true}],"status":"complete","type":"individual","measure":"https://madie.cms.gov/Measure/CMS108FHIRVTEProphylaxis","period":{"start":"2026-01-01","end":"2026-12-31"},"group":[{"id":"Group_1","population":[{"id":"InitialPopulation_1","code":{"coding":[{"system":"http://terminology.hl7.org/CodeSystem/measure-population","code":"initial-population","display":"Initial Population"}]},"count":1},{"id":"Denominator_1","code":{"coding":[{"system":"http://terminology.hl7.org/CodeSystem/measure-population","code":"denominator","display":"Denominator"}]},"count":1},{"id":"DenominatorExclusion_1","code":{"coding":[{"system":"http://terminology.hl7.org/CodeSystem/measure-population","code":"denominator-exclusion","display":"Denominator Exclusion"}]},"count":0},{"id":"Numerator_1","code":{"coding":[{"system":"http://terminology.hl7.org/CodeSystem/measure-population","code":"numerator","display":"Numerator"}]},"count":1}],"measureScore":{"value":0.0}}],"evaluatedResource":[{"reference":"Patient/6ce8d015-efcf-4c8e-a715-cc7c460e3ba8"},{"reference":"Encounter/510a9a1d-45c4-4496-b366-d6b7bab7a5e1"},{"reference":"Coverage/0376e981-856a-4f9c-9399-db2313ff90da"},{"reference":"MedicationAdministration/81f5984f-dda6-46f6-bada-1024d80b6f33"},{"reference":"Organization/4bb3a533-47b0-46d0-b2a5-4becd615fe56"},{"reference":"Practitioner/4cc9cd88-90bf-43f1-b93f-74f1c31e4e31"}]},"request":{"method":"PUT","url":"MeasureReport/77006f7d-3cf4-4ba9-99b2-37e173c75907"}}]},"request":{"method":"PUT","url":"Bundle/tests-6ce8d015-efcf-4c8e-a715-cc7c460e3ba8-bundle"}}]}