{"resourceType":"Bundle","id":"tests-ff814452-be6d-4e4b-905b-c1ae2a551645-bundle","type":"transaction","entry":[{"fullUrl":"Bundle/tests-ff814452-be6d-4e4b-905b-c1ae2a551645-bundle","resource":{"resourceType":"Bundle","id":"tests-ff814452-be6d-4e4b-905b-c1ae2a551645-bundle","type":"transaction","entry":[{"fullUrl":"https://madie.cms.gov/Patient/ff814452-be6d-4e4b-905b-c1ae2a551645","resource":{"resourceType":"Patient","id":"ff814452-be6d-4e4b-905b-c1ae2a551645","meta":{"profile":["http://hl7.org/fhir/us/qicore/StructureDefinition/qicore-patient"]},"text":{"status":"generated","div":"<div xmlns=\"http://www.w3.org/1999/xhtml\"><div class=\"hapiHeaderText\">PtRefMOLMWHTaskReject <b>NUMERPASS </b></div><table class=\"hapiPropertyTable\"><tbody><tr><td>Identifier</td><td>bec2580a47ed4bf7691b191e0654b2de</td></tr><tr><td>Date of birth</td><td><span>02 January 1974</span></td></tr></tbody></table></div>"},"extension":[{"url":"http://hl7.org/fhir/us/core/StructureDefinition/us-core-race","extension":[{"url":"ombCategory","valueCoding":{"system":"urn:oid:2.16.840.1.113883.6.238","code":"1002-5","display":"American Indian or Alaska Native","userSelected":true}},{"url":"text","valueString":"American Indian or Alaska Native"}]},{"url":"http://hl7.org/fhir/us/core/StructureDefinition/us-core-ethnicity","extension":[{"url":"ombCategory","valueCoding":{"system":"urn:oid:2.16.840.1.113883.6.238","code":"2135-2","display":"Hispanic or Latino","userSelected":true}},{"url":"text","valueString":"Hispanic or Latino"}]}],"identifier":[{"type":{"coding":[{"system":"http://terminology.hl7.org/CodeSystem/v2-0203","code":"MR"}]},"system":"https://bonnie-fhir.healthit.gov/","value":"612e6b2e02c62a011f2ecc81"}],"active":true,"name":[{"use":"usual","family":"NUMERPass","given":["PtRefMOLMWHTaskReject"]}],"gender":"male","birthDate":"1975-01-02"},"request":{"method":"PUT","url":"Patient/ff814452-be6d-4e4b-905b-c1ae2a551645"}},{"fullUrl":"https://madie.cms.gov/Encounter/75fd9a92-32dc-4791-8f4f-43b45e1e4eed","resource":{"resourceType":"Encounter","id":"75fd9a92-32dc-4791-8f4f-43b45e1e4eed","meta":{"profile":["http://hl7.org/fhir/us/qicore/StructureDefinition/qicore-encounter"]},"status":"finished","class":{"system":"http://terminology.hl7.org/CodeSystem/v3-ActCode","code":"IMP","display":"inpatient encounter"},"type":[{"coding":[{"system":"http://snomed.info/sct","code":"8715000"}]}],"subject":{"reference":"Patient/ff814452-be6d-4e4b-905b-c1ae2a551645"},"period":{"start":"2026-11-01T08:00:00.000+00:00","end":"2026-11-26T08:15:00.000+00:00"},"length":{"value":25,"unit":"days"}},"request":{"method":"PUT","url":"Encounter/75fd9a92-32dc-4791-8f4f-43b45e1e4eed"}},{"fullUrl":"https://madie.cms.gov/Coverage/289e4d89-602c-442a-b2bb-20071e536fb3","resource":{"resourceType":"Coverage","id":"289e4d89-602c-442a-b2bb-20071e536fb3","status":"active","beneficiary":{"reference":"Patient/ff814452-be6d-4e4b-905b-c1ae2a551645"},"period":{"start":"1975-01-02T08:00:00.000+00:00"},"payor":[{"reference":"Organization/798432ab-a7b7-48f3-9d5d-3f4ed226e1ee"}]},"request":{"method":"PUT","url":"Coverage/289e4d89-602c-442a-b2bb-20071e536fb3"}},{"fullUrl":"https://madie.cms.gov/MedicationRequest/06c835de-08e7-4c8a-b0f8-6ede6fca31f8","resource":{"resourceType":"MedicationRequest","id":"06c835de-08e7-4c8a-b0f8-6ede6fca31f8","meta":{"profile":["http://hl7.org/fhir/us/qicore/StructureDefinition/qicore-medicationrequest"]},"status":"active","intent":"order","category":[{"coding":[{"system":"http://terminology.hl7.org/CodeSystem/medicationrequest-category","code":"inpatient"}]}],"doNotPerform":false,"medicationCodeableConcept":{"coding":[{"system":"http://www.nlm.nih.gov/research/umls/rxnorm","code":"1658647"}]},"subject":{"reference":"Patient/ff814452-be6d-4e4b-905b-c1ae2a551645"},"authoredOn":"2026-11-01T08:00:00.000+00:00","requester":{"reference":"Practitioner/123456"},"dosageInstruction":[{"timing":{"repeat":{"boundsPeriod":{"start":"2026-11-03T09:00:00.000+00:00"}}}}]},"request":{"method":"PUT","url":"MedicationRequest/06c835de-08e7-4c8a-b0f8-6ede6fca31f8"}},{"fullUrl":"https://madie.cms.gov/Task/e05e2cd0-db41-414e-a147-830bf4e49735","resource":{"resourceType":"Task","id":"e05e2cd0-db41-414e-a147-830bf4e49735","meta":{"profile":["http://hl7.org/fhir/us/qicore/StructureDefinition/qicore-taskrejected"]},"status":"rejected","statusReason":{"coding":[{"system":"http://snomed.info/sct","code":"443390004","display":"Refusal of treatment by patient (situation)","userSelected":true}]},"code":{"coding":[{"system":"http://hl7.org/fhir/CodeSystem/task-code","code":"fulfill"}]},"focus":{"reference":"MedicationRequest/06c835de-08e7-4c8a-b0f8-6ede6fca31f8"},"executionPeriod":{"start":"2026-11-01T09:00:00.000+00:00","end":"2026-11-03T09:00:00.000+00:00"}},"request":{"method":"PUT","url":"Task/e05e2cd0-db41-414e-a147-830bf4e49735"}},{"fullUrl":"https://madie.cms.gov/Organization/798432ab-a7b7-48f3-9d5d-3f4ed226e1ee","resource":{"resourceType":"Organization","id":"798432ab-a7b7-48f3-9d5d-3f4ed226e1ee","meta":{"profile":["http://hl7.org/fhir/us/qicore/StructureDefinition/qicore-organization"]},"identifier":[{"use":"temp","system":"urn:oid:2.16.840.1.113883.4.4","value":"21-3259825"}],"active":true,"type":[{"coding":[{"system":"http://terminology.hl7.org/CodeSystem/organization-type","code":"pay","display":"Payer"}]}],"name":"Blue Cross Blue Shield of Texas","telecom":[{"system":"phone","value":"(+1) 972-766-6900"}],"address":[{"use":"billing","type":"postal","line":["P.O. Box 660044"],"city":"Dallas","state":"TX","postalCode":"75266-0044","country":"USA"}]},"request":{"method":"PUT","url":"Organization/798432ab-a7b7-48f3-9d5d-3f4ed226e1ee"}},{"fullUrl":"https://madie.cms.gov/Practitioner/ae01645c-baac-4fef-b660-43acb2ca67c0","resource":{"resourceType":"Practitioner","id":"ae01645c-baac-4fef-b660-43acb2ca67c0","identifier":[{"system":"http://hl7.org/fhir/sid/us-npi","value":"123456"}],"name":[{"family":"Evil","prefix":["Dr"]}]},"request":{"method":"PUT","url":"Practitioner/ae01645c-baac-4fef-b660-43acb2ca67c0"}},{"fullUrl":"https://madie.cms.gov/MeasureReport/418502c3-524a-4961-8ecd-20bd160ca15b","resource":{"resourceType":"MeasureReport","id":"418502c3-524a-4961-8ecd-20bd160ca15b","meta":{"profile":["http://hl7.org/fhir/us/cqfmeasures/StructureDefinition/test-case-cqfm"]},"contained":[{"resourceType":"Parameters","id":"83cc56bc-380e-4723-a645-38cccb42483f-parameters","parameter":[{"name":"subject","valueString":"ff814452-be6d-4e4b-905b-c1ae2a551645"}]}],"extension":[{"url":"http://hl7.org/fhir/StructureDefinition/cqf-inputParameters","valueReference":{"reference":"#83cc56bc-380e-4723-a645-38cccb42483f-parameters"}},{"url":"http://hl7.org/fhir/us/cqfmeasures/StructureDefinition/cqfm-testCaseDescription","valueMarkdown":"Low Dose Unfractionated Heparin  refused with taskReject profile\n"}],"modifierExtension":[{"url":"http://hl7.org/fhir/us/cqfmeasures/StructureDefinition/cqfm-isTestCase","valueBoolean":true}],"status":"complete","type":"individual","measure":"https://madie.cms.gov/Measure/CMS108FHIRVTEProphylaxis","period":{"start":"2026-01-01","end":"2026-12-31"},"group":[{"id":"Group_1","population":[{"id":"InitialPopulation_1","code":{"coding":[{"system":"http://terminology.hl7.org/CodeSystem/measure-population","code":"initial-population","display":"Initial Population"}]},"count":1},{"id":"Denominator_1","code":{"coding":[{"system":"http://terminology.hl7.org/CodeSystem/measure-population","code":"denominator","display":"Denominator"}]},"count":1},{"id":"DenominatorExclusion_1","code":{"coding":[{"system":"http://terminology.hl7.org/CodeSystem/measure-population","code":"denominator-exclusion","display":"Denominator Exclusion"}]},"count":0},{"id":"Numerator_1","code":{"coding":[{"system":"http://terminology.hl7.org/CodeSystem/measure-population","code":"numerator","display":"Numerator"}]},"count":1}],"measureScore":{"value":0.0}}],"evaluatedResource":[{"reference":"Patient/ff814452-be6d-4e4b-905b-c1ae2a551645"},{"reference":"Encounter/75fd9a92-32dc-4791-8f4f-43b45e1e4eed"},{"reference":"Coverage/289e4d89-602c-442a-b2bb-20071e536fb3"},{"reference":"MedicationRequest/06c835de-08e7-4c8a-b0f8-6ede6fca31f8"},{"reference":"Task/e05e2cd0-db41-414e-a147-830bf4e49735"},{"reference":"Organization/798432ab-a7b7-48f3-9d5d-3f4ed226e1ee"},{"reference":"Practitioner/ae01645c-baac-4fef-b660-43acb2ca67c0"}]},"request":{"method":"PUT","url":"MeasureReport/418502c3-524a-4961-8ecd-20bd160ca15b"}}]},"request":{"method":"PUT","url":"Bundle/tests-ff814452-be6d-4e4b-905b-c1ae2a551645-bundle"}}]}