{"resourceType":"Bundle","id":"tests-d04c2856-3708-4809-b4e3-4d1746ff274b-bundle","type":"transaction","entry":[{"fullUrl":"Bundle/tests-d04c2856-3708-4809-b4e3-4d1746ff274b-bundle","resource":{"resourceType":"Bundle","id":"tests-d04c2856-3708-4809-b4e3-4d1746ff274b-bundle","type":"transaction","entry":[{"fullUrl":"https://madie.cms.gov/Patient/d04c2856-3708-4809-b4e3-4d1746ff274b","resource":{"resourceType":"Patient","id":"d04c2856-3708-4809-b4e3-4d1746ff274b","meta":{"profile":["http://hl7.org/fhir/us/qicore/StructureDefinition/qicore-patient"]},"text":{"status":"generated","div":"<div xmlns=\"http://www.w3.org/1999/xhtml\"><div class=\"hapiHeaderText\">PtRefusal_EDGT1HrAdm_1DayBFAdm <b>NUMERFAIL </b></div><table class=\"hapiPropertyTable\"><tbody><tr><td>Identifier</td><td>6d2c319cdc22db5701bad5a897102b581ef8b66eb0c722b7fcb9c543ba1be0e3</td></tr><tr><td>Date of birth</td><td><span>02 January 1974</span></td></tr></tbody></table></div>"},"extension":[{"url":"http://hl7.org/fhir/us/core/StructureDefinition/us-core-race","extension":[{"url":"ombCategory","valueCoding":{"system":"urn:oid:2.16.840.1.113883.6.238","code":"1002-5","display":"American Indian or Alaska Native","userSelected":true}},{"url":"text","valueString":"American Indian or Alaska Native"}]},{"url":"http://hl7.org/fhir/us/core/StructureDefinition/us-core-ethnicity","extension":[{"url":"ombCategory","valueCoding":{"system":"urn:oid:2.16.840.1.113883.6.238","code":"2135-2","display":"Hispanic or Latino","userSelected":true}},{"url":"text","valueString":"Hispanic or Latino"}]}],"identifier":[{"type":{"coding":[{"system":"http://terminology.hl7.org/CodeSystem/v2-0203","code":"MR"}]},"system":"https://bonnie-fhir.healthit.gov/","value":"612e6ae402c62a011f2eba14"}],"active":true,"name":[{"use":"usual","family":"NUMERFail","given":["PtRefusalEDGT1HrAdm1DayBFAdm"]}],"gender":"male","birthDate":"1975-01-02"},"request":{"method":"PUT","url":"Patient/d04c2856-3708-4809-b4e3-4d1746ff274b"}},{"fullUrl":"https://madie.cms.gov/Encounter/80db0571-0227-4e41-8951-d77c4ec111ed","resource":{"resourceType":"Encounter","id":"80db0571-0227-4e41-8951-d77c4ec111ed","meta":{"profile":["http://hl7.org/fhir/us/qicore/StructureDefinition/qicore-encounter"]},"status":"finished","class":{"system":"http://terminology.hl7.org/CodeSystem/v3-ActCode","code":"EMER","display":"emergency"},"type":[{"coding":[{"system":"http://snomed.info/sct","code":"4525004"}]}],"subject":{"reference":"Patient/d04c2856-3708-4809-b4e3-4d1746ff274b"},"period":{"start":"2026-10-31T05:00:00.000+00:00","end":"2026-11-01T07:15:00.000+00:00"},"length":{"value":1,"unit":"days"}},"request":{"method":"PUT","url":"Encounter/80db0571-0227-4e41-8951-d77c4ec111ed"}},{"fullUrl":"https://madie.cms.gov/Encounter/2c72f450-d3d8-48fe-ac47-55dce7005507","resource":{"resourceType":"Encounter","id":"2c72f450-d3d8-48fe-ac47-55dce7005507","meta":{"profile":["http://hl7.org/fhir/us/qicore/StructureDefinition/qicore-encounter"]},"status":"finished","class":{"system":"http://terminology.hl7.org/CodeSystem/v3-ActCode","code":"IMP","display":"inpatient encounter"},"type":[{"coding":[{"system":"http://snomed.info/sct","code":"8715000"}]}],"subject":{"reference":"Patient/d04c2856-3708-4809-b4e3-4d1746ff274b"},"period":{"start":"2026-11-01T10:00:00.000+00:00","end":"2026-11-03T08:15:00.000+00:00"},"length":{"value":2,"unit":"days"}},"request":{"method":"PUT","url":"Encounter/2c72f450-d3d8-48fe-ac47-55dce7005507"}},{"fullUrl":"https://madie.cms.gov/Coverage/fde20ff1-aa6d-4b69-96ab-c9ca9770cf4e","resource":{"resourceType":"Coverage","id":"fde20ff1-aa6d-4b69-96ab-c9ca9770cf4e","status":"active","beneficiary":{"reference":"Patient/d04c2856-3708-4809-b4e3-4d1746ff274b"},"period":{"start":"1975-01-02T08:00:00.000+00:00"},"payor":[{"reference":"Organization/2cfb3f62-5c24-4628-8c80-c4e66e82d8a7"}]},"request":{"method":"PUT","url":"Coverage/fde20ff1-aa6d-4b69-96ab-c9ca9770cf4e"}},{"fullUrl":"https://madie.cms.gov/MedicationAdministration/16b1bfc1-ef85-47da-be31-64655b27d3fd","resource":{"resourceType":"MedicationAdministration","id":"16b1bfc1-ef85-47da-be31-64655b27d3fd","meta":{"profile":["http://hl7.org/fhir/us/qicore/StructureDefinition/qicore-medicationadministrationnotdone"]},"extension":[{"url":"http://hl7.org/fhir/us/qicore/StructureDefinition/qicore-recorded","valueDateTime":"2026-10-31T07:00:00.000+00:00"}],"status":"completed","statusReason":[{"coding":[{"system":"http://snomed.info/sct","code":"443390004","display":"Refusal of treatment by patient (situation)"}]}],"medicationCodeableConcept":{"coding":[{"system":"http://www.nlm.nih.gov/research/umls/rxnorm","code":"1361607"}]},"subject":{"reference":"Patient/d04c2856-3708-4809-b4e3-4d1746ff274b"},"effectivePeriod":{"start":"2026-10-31T07:00:00.000+00:00"},"reasonCode":[{"coding":[{"system":"http://snomed.info/sct","code":"105480006","display":"Refusal of treatment by patient (situation)","userSelected":true}]}]},"request":{"method":"PUT","url":"MedicationAdministration/16b1bfc1-ef85-47da-be31-64655b27d3fd"}},{"fullUrl":"https://madie.cms.gov/MedicationRequest/d2edd4fd-6a9d-4bcb-91ec-f37b9175e302","resource":{"resourceType":"MedicationRequest","id":"d2edd4fd-6a9d-4bcb-91ec-f37b9175e302","meta":{"profile":["http://hl7.org/fhir/us/qicore/StructureDefinition/qicore-medicationnotrequested"]},"status":"completed","intent":"order","doNotPerform":true,"medicationCodeableConcept":{"coding":[{"system":"http://www.nlm.nih.gov/research/umls/rxnorm","code":"854228"}]},"subject":{"reference":"Patient/d04c2856-3708-4809-b4e3-4d1746ff274b"},"authoredOn":"2026-10-31T07:00:00.000+00:00","requester":{"reference":"Practitioner/123456"},"reasonCode":[{"coding":[{"system":"http://snomed.info/sct","code":"183932001","display":"Procedure contraindicated (situation)","userSelected":true}]}],"dosageInstruction":[{"timing":{"repeat":{"boundsPeriod":{"start":"2026-10-31T07:00:00.000+00:00"}}}}]},"request":{"method":"PUT","url":"MedicationRequest/d2edd4fd-6a9d-4bcb-91ec-f37b9175e302"}},{"fullUrl":"https://madie.cms.gov/MedicationRequest/16f41962-e72f-48cd-82f6-ad8461ac6421","resource":{"resourceType":"MedicationRequest","id":"16f41962-e72f-48cd-82f6-ad8461ac6421","status":"active","intent":"order","medicationCodeableConcept":{"coding":[{"system":"http://www.nlm.nih.gov/research/umls/rxnorm","code":"861356"}]},"subject":{"reference":"Patient/d04c2856-3708-4809-b4e3-4d1746ff274b"},"authoredOn":"2026-10-31T07:00:00.000+00:00","requester":{"reference":"Practitioner/123456"},"dosageInstruction":[{"timing":{"repeat":{"boundsPeriod":{"start":"2026-10-31T07:00:00.000+00:00"}}}}]},"request":{"method":"PUT","url":"MedicationRequest/16f41962-e72f-48cd-82f6-ad8461ac6421"}},{"fullUrl":"https://madie.cms.gov/MedicationRequest/a40bf73f-5106-4819-b140-9fc2317e4fb3","resource":{"resourceType":"MedicationRequest","id":"a40bf73f-5106-4819-b140-9fc2317e4fb3","status":"active","intent":"order","medicationCodeableConcept":{"coding":[{"system":"http://www.nlm.nih.gov/research/umls/rxnorm","code":"855288"}]},"subject":{"reference":"Patient/d04c2856-3708-4809-b4e3-4d1746ff274b"},"authoredOn":"2026-10-31T07:00:00.000+00:00","requester":{"reference":"Practitioner/123456"},"dosageInstruction":[{"timing":{"repeat":{"boundsPeriod":{"start":"2026-10-31T07:00:00.000+00:00"}}}}]},"request":{"method":"PUT","url":"MedicationRequest/a40bf73f-5106-4819-b140-9fc2317e4fb3"}},{"fullUrl":"https://madie.cms.gov/Organization/2cfb3f62-5c24-4628-8c80-c4e66e82d8a7","resource":{"resourceType":"Organization","id":"2cfb3f62-5c24-4628-8c80-c4e66e82d8a7","meta":{"profile":["http://hl7.org/fhir/us/qicore/StructureDefinition/qicore-organization"]},"identifier":[{"use":"temp","system":"urn:oid:2.16.840.1.113883.4.4","value":"21-3259825"}],"active":true,"type":[{"coding":[{"system":"http://terminology.hl7.org/CodeSystem/organization-type","code":"pay","display":"Payer"}]}],"name":"Blue Cross Blue Shield of Texas","telecom":[{"system":"phone","value":"(+1) 972-766-6900"}],"address":[{"use":"billing","type":"postal","line":["P.O. Box 660044"],"city":"Dallas","state":"TX","postalCode":"75266-0044","country":"USA"}]},"request":{"method":"PUT","url":"Organization/2cfb3f62-5c24-4628-8c80-c4e66e82d8a7"}},{"fullUrl":"https://madie.cms.gov/Practitioner/d8d068ff-6473-4ae6-b917-546b03a4182e","resource":{"resourceType":"Practitioner","id":"d8d068ff-6473-4ae6-b917-546b03a4182e","identifier":[{"system":"http://hl7.org/fhir/sid/us-npi","value":"123456"}],"name":[{"family":"Evil","prefix":["Dr"]}]},"request":{"method":"PUT","url":"Practitioner/d8d068ff-6473-4ae6-b917-546b03a4182e"}},{"fullUrl":"https://madie.cms.gov/MeasureReport/72093936-b5ce-4179-a4a5-5a4abc7ec959","resource":{"resourceType":"MeasureReport","id":"72093936-b5ce-4179-a4a5-5a4abc7ec959","meta":{"profile":["http://hl7.org/fhir/us/cqfmeasures/StructureDefinition/test-case-cqfm"]},"contained":[{"resourceType":"Parameters","id":"ac1015ff-1e6c-4f7c-a6ce-164825d6de8e-parameters","parameter":[{"name":"subject","valueString":"d04c2856-3708-4809-b4e3-4d1746ff274b"}]}],"extension":[{"url":"http://hl7.org/fhir/StructureDefinition/cqf-inputParameters","valueReference":{"reference":"#ac1015ff-1e6c-4f7c-a6ce-164825d6de8e-parameters"}},{"url":"http://hl7.org/fhir/us/cqfmeasures/StructureDefinition/cqfm-testCaseDescription","valueMarkdown":"patient refused GCS, unfractionated heparin, lmwh, vfp, warfarin, factor Xa, IPC in ED but ED is .1 hour before Adm AND Refusal 1 day before Adm\n"}],"modifierExtension":[{"url":"http://hl7.org/fhir/us/cqfmeasures/StructureDefinition/cqfm-isTestCase","valueBoolean":true}],"status":"complete","type":"individual","measure":"https://madie.cms.gov/Measure/CMS108FHIRVTEProphylaxis","period":{"start":"2026-01-01","end":"2026-12-31"},"group":[{"id":"Group_1","population":[{"id":"InitialPopulation_1","code":{"coding":[{"system":"http://terminology.hl7.org/CodeSystem/measure-population","code":"initial-population","display":"Initial Population"}]},"count":1},{"id":"Denominator_1","code":{"coding":[{"system":"http://terminology.hl7.org/CodeSystem/measure-population","code":"denominator","display":"Denominator"}]},"count":1},{"id":"DenominatorExclusion_1","code":{"coding":[{"system":"http://terminology.hl7.org/CodeSystem/measure-population","code":"denominator-exclusion","display":"Denominator Exclusion"}]},"count":0},{"id":"Numerator_1","code":{"coding":[{"system":"http://terminology.hl7.org/CodeSystem/measure-population","code":"numerator","display":"Numerator"}]},"count":0}],"measureScore":{"value":0.0}}],"evaluatedResource":[{"reference":"Patient/d04c2856-3708-4809-b4e3-4d1746ff274b"},{"reference":"Encounter/80db0571-0227-4e41-8951-d77c4ec111ed"},{"reference":"Encounter/2c72f450-d3d8-48fe-ac47-55dce7005507"},{"reference":"Coverage/fde20ff1-aa6d-4b69-96ab-c9ca9770cf4e"},{"reference":"MedicationAdministration/16b1bfc1-ef85-47da-be31-64655b27d3fd"},{"reference":"MedicationRequest/d2edd4fd-6a9d-4bcb-91ec-f37b9175e302"},{"reference":"MedicationRequest/16f41962-e72f-48cd-82f6-ad8461ac6421"},{"reference":"MedicationRequest/a40bf73f-5106-4819-b140-9fc2317e4fb3"},{"reference":"Organization/2cfb3f62-5c24-4628-8c80-c4e66e82d8a7"},{"reference":"Practitioner/d8d068ff-6473-4ae6-b917-546b03a4182e"}]},"request":{"method":"PUT","url":"MeasureReport/72093936-b5ce-4179-a4a5-5a4abc7ec959"}}]},"request":{"method":"PUT","url":"Bundle/tests-d04c2856-3708-4809-b4e3-4d1746ff274b-bundle"}}]}