{"resourceType":"Bundle","id":"tests-e3ec8d52-9b22-4b4d-8dad-a411a1053e83-bundle","type":"transaction","entry":[{"fullUrl":"Bundle/tests-e3ec8d52-9b22-4b4d-8dad-a411a1053e83-bundle","resource":{"resourceType":"Bundle","id":"tests-e3ec8d52-9b22-4b4d-8dad-a411a1053e83-bundle","type":"transaction","entry":[{"fullUrl":"https://madie.cms.gov/Patient/e3ec8d52-9b22-4b4d-8dad-a411a1053e83","resource":{"resourceType":"Patient","id":"e3ec8d52-9b22-4b4d-8dad-a411a1053e83","meta":{"profile":["http://hl7.org/fhir/us/qicore/StructureDefinition/qicore-patient"]},"text":{"status":"generated","div":"<div xmlns=\"http://www.w3.org/1999/xhtml\"><div class=\"hapiHeaderText\">EncDx=VTE <b>IPPFAIL </b></div><table class=\"hapiPropertyTable\"><tbody><tr><td>Identifier</td><td>da1a5545aa68e1ac51ebdbfee0df4b4e</td></tr><tr><td>Date of birth</td><td><span>02 January 1974</span></td></tr></tbody></table></div>"},"extension":[{"url":"http://hl7.org/fhir/us/core/StructureDefinition/us-core-race","extension":[{"url":"ombCategory","valueCoding":{"system":"urn:oid:2.16.840.1.113883.6.238","code":"1002-5","display":"American Indian or Alaska Native","userSelected":true}},{"url":"text","valueString":"American Indian or Alaska Native"}]},{"url":"http://hl7.org/fhir/us/core/StructureDefinition/us-core-ethnicity","extension":[{"url":"ombCategory","valueCoding":{"system":"urn:oid:2.16.840.1.113883.6.238","code":"2135-2","display":"Hispanic or Latino","userSelected":true}},{"url":"text","valueString":"Hispanic or Latino"}]}],"identifier":[{"type":{"coding":[{"system":"http://terminology.hl7.org/CodeSystem/v2-0203","code":"MR"}]},"system":"https://bonnie-fhir.healthit.gov/","value":"612e6ab802c62a011f2eb11c"}],"active":true,"name":[{"use":"usual","family":"IPPFail","given":["EncDxVTE"]}],"gender":"male","birthDate":"1975-01-02"},"request":{"method":"PUT","url":"Patient/e3ec8d52-9b22-4b4d-8dad-a411a1053e83"}},{"fullUrl":"https://madie.cms.gov/Encounter/33920d99-88db-4458-a249-5bb17743b3b9","resource":{"resourceType":"Encounter","id":"33920d99-88db-4458-a249-5bb17743b3b9","meta":{"profile":["http://hl7.org/fhir/us/qicore/StructureDefinition/qicore-encounter"]},"status":"finished","class":{"system":"http://terminology.hl7.org/CodeSystem/v3-ActCode","code":"IMP","display":"inpatient encounter"},"type":[{"coding":[{"system":"http://snomed.info/sct","code":"8715000"}]}],"subject":{"reference":"Patient/e3ec8d52-9b22-4b4d-8dad-a411a1053e83"},"period":{"start":"2026-11-01T08:00:00.000+00:00","end":"2026-11-26T08:15:00.000+00:00"},"length":{"value":25,"unit":"days"},"reasonReference":[{"reference":"Condition/a2b4242e-d15a-4937-b572-5e9e030746d3"}]},"request":{"method":"PUT","url":"Encounter/33920d99-88db-4458-a249-5bb17743b3b9"}},{"fullUrl":"https://madie.cms.gov/Coverage/35dc1ce3-b040-4c18-97b4-8adaae5e6ff2","resource":{"resourceType":"Coverage","id":"35dc1ce3-b040-4c18-97b4-8adaae5e6ff2","status":"active","beneficiary":{"reference":"Patient/e3ec8d52-9b22-4b4d-8dad-a411a1053e83"},"period":{"start":"1975-01-02T08:00:00.000+00:00"},"payor":[{"reference":"Organization/67201a13-8c2e-4846-becc-aa7121a18821"}]},"request":{"method":"PUT","url":"Coverage/35dc1ce3-b040-4c18-97b4-8adaae5e6ff2"}},{"fullUrl":"https://madie.cms.gov/MedicationAdministration/ddaa81db-5f4c-4c4f-8403-9dc2d9d5a899","resource":{"resourceType":"MedicationAdministration","id":"ddaa81db-5f4c-4c4f-8403-9dc2d9d5a899","status":"unknown","medicationCodeableConcept":{"coding":[{"system":"http://www.nlm.nih.gov/research/umls/rxnorm","code":"855288"}]},"subject":{"reference":"Patient/e3ec8d52-9b22-4b4d-8dad-a411a1053e83"},"effectivePeriod":{"start":"2026-11-01T09:00:00.000+00:00","end":"2026-11-01T09:15:00.000+00:00"}},"request":{"method":"PUT","url":"MedicationAdministration/ddaa81db-5f4c-4c4f-8403-9dc2d9d5a899"}},{"fullUrl":"https://madie.cms.gov/Condition/a2b4242e-d15a-4937-b572-5e9e030746d3","resource":{"resourceType":"Condition","id":"a2b4242e-d15a-4937-b572-5e9e030746d3","meta":{"profile":["http://hl7.org/fhir/us/qicore/StructureDefinition/qicore-condition-encounter-diagnosis"]},"category":[{"coding":[{"system":"http://terminology.hl7.org/CodeSystem/condition-category","code":"encounter-diagnosis","display":"Encounter Diagnosis"}]}],"code":{"coding":[{"system":"http://snomed.info/sct","version":"2025-03","code":"1001000119102","display":"Pulmonary embolism with pulmonary infarction (disorder)","userSelected":true}]},"subject":{"reference":"Patient/e3ec8d52-9b22-4b4d-8dad-a411a1053e83"},"recordedDate":"2026-11-02T08:00:00.000+00:00"},"request":{"method":"PUT","url":"Condition/a2b4242e-d15a-4937-b572-5e9e030746d3"}},{"fullUrl":"https://madie.cms.gov/Organization/67201a13-8c2e-4846-becc-aa7121a18821","resource":{"resourceType":"Organization","id":"67201a13-8c2e-4846-becc-aa7121a18821","meta":{"profile":["http://hl7.org/fhir/us/qicore/StructureDefinition/qicore-organization"]},"identifier":[{"use":"temp","system":"urn:oid:2.16.840.1.113883.4.4","value":"21-3259825"}],"active":true,"type":[{"coding":[{"system":"http://terminology.hl7.org/CodeSystem/organization-type","code":"pay","display":"Payer"}]}],"name":"Blue Cross Blue Shield of Texas","telecom":[{"system":"phone","value":"(+1) 972-766-6900"}],"address":[{"use":"billing","type":"postal","line":["P.O. Box 660044"],"city":"Dallas","state":"TX","postalCode":"75266-0044","country":"USA"}]},"request":{"method":"PUT","url":"Organization/67201a13-8c2e-4846-becc-aa7121a18821"}},{"fullUrl":"https://madie.cms.gov/Practitioner/9fbee101-2278-4310-a3e3-634767723181","resource":{"resourceType":"Practitioner","id":"9fbee101-2278-4310-a3e3-634767723181","identifier":[{"system":"http://hl7.org/fhir/sid/us-npi","value":"123456"}],"name":[{"family":"Evil","prefix":["Dr"]}]},"request":{"method":"PUT","url":"Practitioner/9fbee101-2278-4310-a3e3-634767723181"}},{"fullUrl":"https://madie.cms.gov/MeasureReport/b983c803-6ab7-48a2-ad4f-7ee2aaf10840","resource":{"resourceType":"MeasureReport","id":"b983c803-6ab7-48a2-ad4f-7ee2aaf10840","meta":{"profile":["http://hl7.org/fhir/us/cqfmeasures/StructureDefinition/test-case-cqfm"]},"contained":[{"resourceType":"Parameters","id":"3c5ff84f-3ee8-4b9a-b64e-c81497df71f3-parameters","parameter":[{"name":"subject","valueString":"e3ec8d52-9b22-4b4d-8dad-a411a1053e83"}]}],"extension":[{"url":"http://hl7.org/fhir/StructureDefinition/cqf-inputParameters","valueReference":{"reference":"#3c5ff84f-3ee8-4b9a-b64e-c81497df71f3-parameters"}},{"url":"http://hl7.org/fhir/us/cqfmeasures/StructureDefinition/cqfm-testCaseDescription","valueMarkdown":"patient is > 18 years, LOS < 120 days during MP with dx of VTE and warfarin administered\n"}],"modifierExtension":[{"url":"http://hl7.org/fhir/us/cqfmeasures/StructureDefinition/cqfm-isTestCase","valueBoolean":true}],"status":"complete","type":"individual","measure":"https://madie.cms.gov/Measure/CMS108FHIRVTEProphylaxis","period":{"start":"2026-01-01","end":"2026-12-31"},"group":[{"id":"Group_1","population":[{"id":"InitialPopulation_1","code":{"coding":[{"system":"http://terminology.hl7.org/CodeSystem/measure-population","code":"initial-population","display":"Initial Population"}]},"count":0},{"id":"Denominator_1","code":{"coding":[{"system":"http://terminology.hl7.org/CodeSystem/measure-population","code":"denominator","display":"Denominator"}]},"count":0},{"id":"DenominatorExclusion_1","code":{"coding":[{"system":"http://terminology.hl7.org/CodeSystem/measure-population","code":"denominator-exclusion","display":"Denominator Exclusion"}]},"count":0},{"id":"Numerator_1","code":{"coding":[{"system":"http://terminology.hl7.org/CodeSystem/measure-population","code":"numerator","display":"Numerator"}]},"count":0}],"measureScore":{"value":0.0}}],"evaluatedResource":[{"reference":"Patient/e3ec8d52-9b22-4b4d-8dad-a411a1053e83"},{"reference":"Encounter/33920d99-88db-4458-a249-5bb17743b3b9"},{"reference":"Coverage/35dc1ce3-b040-4c18-97b4-8adaae5e6ff2"},{"reference":"MedicationAdministration/ddaa81db-5f4c-4c4f-8403-9dc2d9d5a899"},{"reference":"Condition/a2b4242e-d15a-4937-b572-5e9e030746d3"},{"reference":"Organization/67201a13-8c2e-4846-becc-aa7121a18821"},{"reference":"Practitioner/9fbee101-2278-4310-a3e3-634767723181"}]},"request":{"method":"PUT","url":"MeasureReport/b983c803-6ab7-48a2-ad4f-7ee2aaf10840"}}]},"request":{"method":"PUT","url":"Bundle/tests-e3ec8d52-9b22-4b4d-8dad-a411a1053e83-bundle"}}]}