{"resourceType":"Bundle","id":"tests-a3af6a3d-6334-44db-a39a-23db9018a190-bundle","type":"transaction","entry":[{"fullUrl":"Bundle/tests-a3af6a3d-6334-44db-a39a-23db9018a190-bundle","resource":{"resourceType":"Bundle","id":"tests-a3af6a3d-6334-44db-a39a-23db9018a190-bundle","type":"transaction","entry":[{"fullUrl":"https://madie.cms.gov/Patient/a3af6a3d-6334-44db-a39a-23db9018a190","resource":{"resourceType":"Patient","id":"a3af6a3d-6334-44db-a39a-23db9018a190","meta":{"profile":["http://hl7.org/fhir/us/qicore/StructureDefinition/qicore-patient"]},"text":{"status":"generated","div":"<div xmlns=\"http://www.w3.org/1999/xhtml\"><div class=\"hapiHeaderText\">MedReason_MO_LMWHep_DO_GSC_DayOfAnes <b>NUMERPASS </b></div><table class=\"hapiPropertyTable\"><tbody><tr><td>Identifier</td><td>7e62c5832c05e34e66418ee66816965a</td></tr><tr><td>Date of birth</td><td><span>02 January 1974</span></td></tr></tbody></table></div>"},"extension":[{"url":"http://hl7.org/fhir/us/core/StructureDefinition/us-core-race","extension":[{"url":"ombCategory","valueCoding":{"system":"urn:oid:2.16.840.1.113883.6.238","code":"1002-5","display":"American Indian or Alaska Native","userSelected":true}},{"url":"text","valueString":"American Indian or Alaska Native"}]},{"url":"http://hl7.org/fhir/us/core/StructureDefinition/us-core-ethnicity","extension":[{"url":"ombCategory","valueCoding":{"system":"urn:oid:2.16.840.1.113883.6.238","code":"2135-2","display":"Hispanic or Latino","userSelected":true}},{"url":"text","valueString":"Hispanic or Latino"}]}],"identifier":[{"type":{"coding":[{"system":"http://terminology.hl7.org/CodeSystem/v2-0203","code":"MR"}]},"system":"https://bonnie-fhir.healthit.gov/","value":"612e6a9802c62a011f2ea828"}],"active":true,"name":[{"use":"usual","family":"NUMERPass","given":["MedReasonMOLMWHepDOGSCDayOfAnes"]}],"gender":"male","birthDate":"1975-01-02"},"request":{"method":"PUT","url":"Patient/a3af6a3d-6334-44db-a39a-23db9018a190"}},{"fullUrl":"https://madie.cms.gov/Encounter/339d0fd4-fe63-4cc8-a573-41a7524af284","resource":{"resourceType":"Encounter","id":"339d0fd4-fe63-4cc8-a573-41a7524af284","meta":{"profile":["http://hl7.org/fhir/us/qicore/StructureDefinition/qicore-encounter"]},"status":"finished","class":{"system":"http://terminology.hl7.org/CodeSystem/v3-ActCode","code":"IMP","display":"inpatient encounter"},"type":[{"coding":[{"system":"http://snomed.info/sct","code":"8715000"}]}],"subject":{"reference":"Patient/a3af6a3d-6334-44db-a39a-23db9018a190"},"period":{"start":"2026-11-01T08:00:00.000+00:00","end":"2026-11-26T08:15:00.000+00:00"},"length":{"value":25,"unit":"days"}},"request":{"method":"PUT","url":"Encounter/339d0fd4-fe63-4cc8-a573-41a7524af284"}},{"fullUrl":"https://madie.cms.gov/Coverage/7f8af1fd-ebc7-4822-881b-356ea5e4413e","resource":{"resourceType":"Coverage","id":"7f8af1fd-ebc7-4822-881b-356ea5e4413e","status":"active","beneficiary":{"reference":"Patient/a3af6a3d-6334-44db-a39a-23db9018a190"},"period":{"start":"1975-01-02T08:00:00.000+00:00"},"payor":[{"reference":"Organization/ac41413a-6ad4-43d3-9377-3c30c23f869c"}]},"request":{"method":"PUT","url":"Coverage/7f8af1fd-ebc7-4822-881b-356ea5e4413e"}},{"fullUrl":"https://madie.cms.gov/MedicationRequest/8407ccbe-e7f6-468d-b15e-9fdca3adfcb1","resource":{"resourceType":"MedicationRequest","id":"8407ccbe-e7f6-468d-b15e-9fdca3adfcb1","meta":{"profile":["http://hl7.org/fhir/us/qicore/StructureDefinition/qicore-medicationnotrequested"]},"status":"completed","intent":"order","category":[{"coding":[{"system":"http://terminology.hl7.org/CodeSystem/medicationrequest-category","code":"community"}]}],"doNotPerform":true,"medicationCodeableConcept":{"coding":[{"system":"http://www.nlm.nih.gov/research/umls/rxnorm","code":"854228"}]},"subject":{"reference":"Patient/a3af6a3d-6334-44db-a39a-23db9018a190"},"authoredOn":"2026-11-02T10:00:00.000+00:00","requester":{"reference":"Practitioner/123456"},"reasonCode":[{"coding":[{"system":"http://snomed.info/sct","code":"183932001","display":"Procedure contraindicated (situation)","userSelected":true}]}]},"request":{"method":"PUT","url":"MedicationRequest/8407ccbe-e7f6-468d-b15e-9fdca3adfcb1"}},{"fullUrl":"https://madie.cms.gov/Procedure/8d683045-9373-49a0-a9db-d35c619d2bd8","resource":{"resourceType":"Procedure","id":"8d683045-9373-49a0-a9db-d35c619d2bd8","meta":{"profile":["http://hl7.org/fhir/us/qicore/StructureDefinition/qicore-procedure"]},"extension":[{"url":"http://hl7.org/fhir/us/qicore/StructureDefinition/qicore-recorded","valueDateTime":"2013-11-02T13:35:00.000+00:00"}],"status":"completed","code":{"coding":[{"system":"http://snomed.info/sct","code":"18946005"}]},"subject":{"reference":"Patient/a3af6a3d-6334-44db-a39a-23db9018a190"},"performedPeriod":{"start":"2026-11-02T09:00:00.000+00:00","end":"2026-11-02T09:15:00.000+00:00"}},"request":{"method":"PUT","url":"Procedure/8d683045-9373-49a0-a9db-d35c619d2bd8"}},{"fullUrl":"https://madie.cms.gov/ServiceRequest/c2c4b8bc-b69c-4461-a641-89b4ce265925","resource":{"resourceType":"ServiceRequest","id":"c2c4b8bc-b69c-4461-a641-89b4ce265925","meta":{"profile":["http://hl7.org/fhir/us/qicore/StructureDefinition/qicore-servicenotrequested"]},"extension":[{"url":"http://hl7.org/fhir/us/qicore/StructureDefinition/qicore-doNotPerformReason","valueCodeableConcept":{"coding":[{"system":"http://snomed.info/sct","code":"183932001","display":"Procedure contraindicated (situation)"}]}}],"status":"completed","intent":"order","doNotPerform":true,"code":{"coding":[{"system":"http://snomed.info/sct","version":"2025-03","code":"348681001","display":"Graduated compression elastic hosiery (physical object)","userSelected":true}]},"subject":{"reference":"Patient/a3af6a3d-6334-44db-a39a-23db9018a190"},"authoredOn":"2026-11-02T10:00:00.000+00:00"},"request":{"method":"PUT","url":"ServiceRequest/c2c4b8bc-b69c-4461-a641-89b4ce265925"}},{"fullUrl":"https://madie.cms.gov/Organization/ac41413a-6ad4-43d3-9377-3c30c23f869c","resource":{"resourceType":"Organization","id":"ac41413a-6ad4-43d3-9377-3c30c23f869c","meta":{"profile":["http://hl7.org/fhir/us/qicore/StructureDefinition/qicore-organization"]},"identifier":[{"use":"temp","system":"urn:oid:2.16.840.1.113883.4.4","value":"21-3259825"}],"active":true,"type":[{"coding":[{"system":"http://terminology.hl7.org/CodeSystem/organization-type","code":"pay","display":"Payer"}]}],"name":"Blue Cross Blue Shield of Texas","telecom":[{"system":"phone","value":"(+1) 972-766-6900"}],"address":[{"use":"billing","type":"postal","line":["P.O. Box 660044"],"city":"Dallas","state":"TX","postalCode":"75266-0044","country":"USA"}]},"request":{"method":"PUT","url":"Organization/ac41413a-6ad4-43d3-9377-3c30c23f869c"}},{"fullUrl":"https://madie.cms.gov/Practitioner/25a008ac-40c9-4a4d-b7b9-8028584250d2","resource":{"resourceType":"Practitioner","id":"25a008ac-40c9-4a4d-b7b9-8028584250d2","identifier":[{"system":"http://hl7.org/fhir/sid/us-npi","value":"123456"}],"name":[{"family":"Evil","prefix":["Dr"]}]},"request":{"method":"PUT","url":"Practitioner/25a008ac-40c9-4a4d-b7b9-8028584250d2"}},{"fullUrl":"https://madie.cms.gov/MeasureReport/ab790671-e1ff-41f7-ab99-7a5e3d00c0d6","resource":{"resourceType":"MeasureReport","id":"ab790671-e1ff-41f7-ab99-7a5e3d00c0d6","meta":{"profile":["http://hl7.org/fhir/us/cqfmeasures/StructureDefinition/test-case-cqfm"]},"contained":[{"resourceType":"Parameters","id":"6e2eb226-041a-41df-8faf-03389f07f703-parameters","parameter":[{"name":"subject","valueString":"a3af6a3d-6334-44db-a39a-23db9018a190"}]}],"extension":[{"url":"http://hl7.org/fhir/StructureDefinition/cqf-inputParameters","valueReference":{"reference":"#6e2eb226-041a-41df-8faf-03389f07f703-parameters"}},{"url":"http://hl7.org/fhir/us/cqfmeasures/StructureDefinition/cqfm-testCaseDescription","valueMarkdown":"lmwh and GCS not ordered due to medical reason <= 1 day after end of  anesthesia\n"}],"modifierExtension":[{"url":"http://hl7.org/fhir/us/cqfmeasures/StructureDefinition/cqfm-isTestCase","valueBoolean":true}],"status":"complete","type":"individual","measure":"https://madie.cms.gov/Measure/CMS108FHIRVTEProphylaxis","period":{"start":"2026-01-01","end":"2026-12-31"},"group":[{"id":"Group_1","population":[{"id":"InitialPopulation_1","code":{"coding":[{"system":"http://terminology.hl7.org/CodeSystem/measure-population","code":"initial-population","display":"Initial Population"}]},"count":1},{"id":"Denominator_1","code":{"coding":[{"system":"http://terminology.hl7.org/CodeSystem/measure-population","code":"denominator","display":"Denominator"}]},"count":1},{"id":"DenominatorExclusion_1","code":{"coding":[{"system":"http://terminology.hl7.org/CodeSystem/measure-population","code":"denominator-exclusion","display":"Denominator Exclusion"}]},"count":0},{"id":"Numerator_1","code":{"coding":[{"system":"http://terminology.hl7.org/CodeSystem/measure-population","code":"numerator","display":"Numerator"}]},"count":1}],"measureScore":{"value":0.0}}],"evaluatedResource":[{"reference":"Patient/a3af6a3d-6334-44db-a39a-23db9018a190"},{"reference":"Encounter/339d0fd4-fe63-4cc8-a573-41a7524af284"},{"reference":"Coverage/7f8af1fd-ebc7-4822-881b-356ea5e4413e"},{"reference":"MedicationRequest/8407ccbe-e7f6-468d-b15e-9fdca3adfcb1"},{"reference":"Procedure/8d683045-9373-49a0-a9db-d35c619d2bd8"},{"reference":"ServiceRequest/c2c4b8bc-b69c-4461-a641-89b4ce265925"},{"reference":"Organization/ac41413a-6ad4-43d3-9377-3c30c23f869c"},{"reference":"Practitioner/25a008ac-40c9-4a4d-b7b9-8028584250d2"}]},"request":{"method":"PUT","url":"MeasureReport/ab790671-e1ff-41f7-ab99-7a5e3d00c0d6"}}]},"request":{"method":"PUT","url":"Bundle/tests-a3af6a3d-6334-44db-a39a-23db9018a190-bundle"}}]}