{"resourceType":"Bundle","id":"tests-1701c7fe-de21-4bb9-8404-92cb1ef4e638-bundle","type":"transaction","entry":[{"fullUrl":"Bundle/tests-1701c7fe-de21-4bb9-8404-92cb1ef4e638-bundle","resource":{"resourceType":"Bundle","id":"tests-1701c7fe-de21-4bb9-8404-92cb1ef4e638-bundle","type":"transaction","entry":[{"fullUrl":"https://madie.cms.gov/Patient/1701c7fe-de21-4bb9-8404-92cb1ef4e638","resource":{"resourceType":"Patient","id":"1701c7fe-de21-4bb9-8404-92cb1ef4e638","meta":{"profile":["http://hl7.org/fhir/us/qicore/StructureDefinition/qicore-patient"]},"text":{"status":"generated","div":"<div xmlns=\"http://www.w3.org/1999/xhtml\"><div class=\"hapiHeaderText\">PtRef_MO_Warf_EDendTimeEQEncStartTime <b>NUMERPASS </b></div><table class=\"hapiPropertyTable\"><tbody><tr><td>Identifier</td><td>35e854fe06e36e7e02449812c3316da3</td></tr><tr><td>Date of birth</td><td><span>02 January 1974</span></td></tr></tbody></table></div>"},"extension":[{"url":"http://hl7.org/fhir/us/core/StructureDefinition/us-core-race","extension":[{"url":"ombCategory","valueCoding":{"system":"urn:oid:2.16.840.1.113883.6.238","code":"1002-5","display":"American Indian or Alaska Native","userSelected":true}},{"url":"text","valueString":"American Indian or Alaska Native"}]},{"url":"http://hl7.org/fhir/us/core/StructureDefinition/us-core-ethnicity","extension":[{"url":"ombCategory","valueCoding":{"system":"urn:oid:2.16.840.1.113883.6.238","code":"2135-2","display":"Hispanic or Latino","userSelected":true}},{"url":"text","valueString":"Hispanic or Latino"}]}],"identifier":[{"type":{"coding":[{"system":"http://terminology.hl7.org/CodeSystem/v2-0203","code":"MR"}]},"system":"https://bonnie-fhir.healthit.gov/","value":"612e6b5002c62a011f2ed433"}],"active":true,"name":[{"use":"usual","family":"NUMERPass","given":["PtRefMOWarfEDendTimeEQEncStartTime"]}],"gender":"male","birthDate":"1975-01-02"},"request":{"method":"PUT","url":"Patient/1701c7fe-de21-4bb9-8404-92cb1ef4e638"}},{"fullUrl":"https://madie.cms.gov/Encounter/a9015c00-ab18-41a9-9762-2ace8ab1c8a5","resource":{"resourceType":"Encounter","id":"a9015c00-ab18-41a9-9762-2ace8ab1c8a5","meta":{"profile":["http://hl7.org/fhir/us/qicore/StructureDefinition/qicore-encounter"]},"status":"finished","class":{"system":"http://terminology.hl7.org/CodeSystem/v3-ActCode","code":"EMER","display":"emergency"},"type":[{"coding":[{"system":"http://snomed.info/sct","code":"4525004"}]}],"subject":{"reference":"Patient/1701c7fe-de21-4bb9-8404-92cb1ef4e638"},"period":{"start":"2026-10-31T05:00:00.000+00:00","end":"2026-11-01T08:00:00.000+00:00"},"length":{"value":1,"unit":"days"}},"request":{"method":"PUT","url":"Encounter/a9015c00-ab18-41a9-9762-2ace8ab1c8a5"}},{"fullUrl":"https://madie.cms.gov/Encounter/c98511fd-3e7a-4b8e-b7cd-bb22a7b40980","resource":{"resourceType":"Encounter","id":"c98511fd-3e7a-4b8e-b7cd-bb22a7b40980","meta":{"profile":["http://hl7.org/fhir/us/qicore/StructureDefinition/qicore-encounter"]},"status":"finished","class":{"system":"http://terminology.hl7.org/CodeSystem/v3-ActCode","code":"IMP","display":"inpatient encounter"},"type":[{"coding":[{"system":"http://snomed.info/sct","code":"8715000"}]}],"subject":{"reference":"Patient/1701c7fe-de21-4bb9-8404-92cb1ef4e638"},"period":{"start":"2026-11-01T08:00:00.000+00:00","end":"2026-11-26T08:15:00.000+00:00"},"length":{"value":25,"unit":"days"}},"request":{"method":"PUT","url":"Encounter/c98511fd-3e7a-4b8e-b7cd-bb22a7b40980"}},{"fullUrl":"https://madie.cms.gov/Coverage/e3960697-2191-44ad-aa99-aa0d44ed6375","resource":{"resourceType":"Coverage","id":"e3960697-2191-44ad-aa99-aa0d44ed6375","status":"active","beneficiary":{"reference":"Patient/1701c7fe-de21-4bb9-8404-92cb1ef4e638"},"period":{"start":"1975-01-02T08:00:00.000+00:00"},"payor":[{"reference":"Organization/95ba57b1-b32a-4107-91db-a215b2affe86"}]},"request":{"method":"PUT","url":"Coverage/e3960697-2191-44ad-aa99-aa0d44ed6375"}},{"fullUrl":"https://madie.cms.gov/MedicationRequest/4d2794fa-fb3c-4a41-b3da-d980a2ab6d4e","resource":{"resourceType":"MedicationRequest","id":"4d2794fa-fb3c-4a41-b3da-d980a2ab6d4e","meta":{"profile":["http://hl7.org/fhir/us/qicore/StructureDefinition/qicore-medicationnotrequested"]},"status":"completed","intent":"order","category":[{"coding":[{"system":"http://terminology.hl7.org/CodeSystem/medicationrequest-category","code":"community"}]}],"doNotPerform":true,"medicationCodeableConcept":{"coding":[{"system":"http://www.nlm.nih.gov/research/umls/rxnorm","code":"855288"}]},"subject":{"reference":"Patient/1701c7fe-de21-4bb9-8404-92cb1ef4e638"},"authoredOn":"2026-11-01T07:00:00.000+00:00","requester":{"reference":"Practitioner/123456"},"reasonCode":[{"coding":[{"system":"http://snomed.info/sct","code":"443390004","display":"Refusal of treatment by patient (situation)","userSelected":true}]}],"dosageInstruction":[{"timing":{"repeat":{"boundsPeriod":{"start":"2026-11-03T09:00:00.000+00:00"}}}}]},"request":{"method":"PUT","url":"MedicationRequest/4d2794fa-fb3c-4a41-b3da-d980a2ab6d4e"}},{"fullUrl":"https://madie.cms.gov/Organization/95ba57b1-b32a-4107-91db-a215b2affe86","resource":{"resourceType":"Organization","id":"95ba57b1-b32a-4107-91db-a215b2affe86","meta":{"profile":["http://hl7.org/fhir/us/qicore/StructureDefinition/qicore-organization"]},"identifier":[{"use":"temp","system":"urn:oid:2.16.840.1.113883.4.4","value":"21-3259825"}],"active":true,"type":[{"coding":[{"system":"http://terminology.hl7.org/CodeSystem/organization-type","code":"pay","display":"Payer"}]}],"name":"Blue Cross Blue Shield of Texas","telecom":[{"system":"phone","value":"(+1) 972-766-6900"}],"address":[{"use":"billing","type":"postal","line":["P.O. Box 660044"],"city":"Dallas","state":"TX","postalCode":"75266-0044","country":"USA"}]},"request":{"method":"PUT","url":"Organization/95ba57b1-b32a-4107-91db-a215b2affe86"}},{"fullUrl":"https://madie.cms.gov/Practitioner/50c5a579-f321-4123-847e-d8f91f8105ac","resource":{"resourceType":"Practitioner","id":"50c5a579-f321-4123-847e-d8f91f8105ac","identifier":[{"system":"http://hl7.org/fhir/sid/us-npi","value":"123456"}],"name":[{"family":"Evil","prefix":["Dr"]}]},"request":{"method":"PUT","url":"Practitioner/50c5a579-f321-4123-847e-d8f91f8105ac"}},{"fullUrl":"https://madie.cms.gov/MeasureReport/367da814-1faa-49bb-a9ee-77cccd134fac","resource":{"resourceType":"MeasureReport","id":"367da814-1faa-49bb-a9ee-77cccd134fac","meta":{"profile":["http://hl7.org/fhir/us/cqfmeasures/StructureDefinition/test-case-cqfm"]},"contained":[{"resourceType":"Parameters","id":"43f15be9-6c73-446d-a69c-69b241299dd7-parameters","parameter":[{"name":"subject","valueString":"1701c7fe-de21-4bb9-8404-92cb1ef4e638"}]}],"extension":[{"url":"http://hl7.org/fhir/StructureDefinition/cqf-inputParameters","valueReference":{"reference":"#43f15be9-6c73-446d-a69c-69b241299dd7-parameters"}},{"url":"http://hl7.org/fhir/us/cqfmeasures/StructureDefinition/cqfm-testCaseDescription","valueMarkdown":"\">18, ED visits before encounter, medication not order(Warfarin ), patient refused during the ED encounter.  ED endTime concurrent w EncInp startTime.\n\"\n"}],"modifierExtension":[{"url":"http://hl7.org/fhir/us/cqfmeasures/StructureDefinition/cqfm-isTestCase","valueBoolean":true}],"status":"complete","type":"individual","measure":"https://madie.cms.gov/Measure/CMS108FHIRVTEProphylaxis","period":{"start":"2026-01-01","end":"2026-12-31"},"group":[{"id":"Group_1","population":[{"id":"InitialPopulation_1","code":{"coding":[{"system":"http://terminology.hl7.org/CodeSystem/measure-population","code":"initial-population","display":"Initial Population"}]},"count":1},{"id":"Denominator_1","code":{"coding":[{"system":"http://terminology.hl7.org/CodeSystem/measure-population","code":"denominator","display":"Denominator"}]},"count":1},{"id":"DenominatorExclusion_1","code":{"coding":[{"system":"http://terminology.hl7.org/CodeSystem/measure-population","code":"denominator-exclusion","display":"Denominator Exclusion"}]},"count":0},{"id":"Numerator_1","code":{"coding":[{"system":"http://terminology.hl7.org/CodeSystem/measure-population","code":"numerator","display":"Numerator"}]},"count":1}],"measureScore":{"value":0.0}}],"evaluatedResource":[{"reference":"Patient/1701c7fe-de21-4bb9-8404-92cb1ef4e638"},{"reference":"Encounter/a9015c00-ab18-41a9-9762-2ace8ab1c8a5"},{"reference":"Encounter/c98511fd-3e7a-4b8e-b7cd-bb22a7b40980"},{"reference":"Coverage/e3960697-2191-44ad-aa99-aa0d44ed6375"},{"reference":"MedicationRequest/4d2794fa-fb3c-4a41-b3da-d980a2ab6d4e"},{"reference":"Organization/95ba57b1-b32a-4107-91db-a215b2affe86"},{"reference":"Practitioner/50c5a579-f321-4123-847e-d8f91f8105ac"}]},"request":{"method":"PUT","url":"MeasureReport/367da814-1faa-49bb-a9ee-77cccd134fac"}}]},"request":{"method":"PUT","url":"Bundle/tests-1701c7fe-de21-4bb9-8404-92cb1ef4e638-bundle"}}]}