{"resourceType":"Bundle","id":"tests-a7a685d8-d95a-489a-a3ae-a461d945bcb3-bundle","type":"transaction","entry":[{"fullUrl":"Bundle/tests-a7a685d8-d95a-489a-a3ae-a461d945bcb3-bundle","resource":{"resourceType":"Bundle","id":"tests-a7a685d8-d95a-489a-a3ae-a461d945bcb3-bundle","type":"transaction","entry":[{"fullUrl":"https://madie.cms.gov/Patient/a7a685d8-d95a-489a-a3ae-a461d945bcb3","resource":{"resourceType":"Patient","id":"a7a685d8-d95a-489a-a3ae-a461d945bcb3","meta":{"profile":["http://hl7.org/fhir/us/qicore/StructureDefinition/qicore-patient"]},"text":{"status":"generated","div":"<div xmlns=\"http://www.w3.org/1999/xhtml\"><div class=\"hapiHeaderText\">EncEndsAfterMP <b>IPPFAIL </b></div><table class=\"hapiPropertyTable\"><tbody><tr><td>Identifier</td><td>3f7ac674da24e00d267fc86596c4ed0e</td></tr><tr><td>Date of birth</td><td><span>01 January 2003</span></td></tr></tbody></table></div>"},"extension":[{"url":"http://hl7.org/fhir/us/core/StructureDefinition/us-core-race","extension":[{"url":"ombCategory","valueCoding":{"system":"urn:oid:2.16.840.1.113883.6.238","code":"1002-5","display":"American Indian or Alaska Native","userSelected":true}},{"url":"text","valueString":"American Indian or Alaska Native"}]},{"url":"http://hl7.org/fhir/us/core/StructureDefinition/us-core-ethnicity","extension":[{"url":"ombCategory","valueCoding":{"system":"urn:oid:2.16.840.1.113883.6.238","code":"2135-2","display":"Hispanic or Latino","userSelected":true}},{"url":"text","valueString":"Hispanic or Latino"}]}],"identifier":[{"type":{"coding":[{"system":"http://terminology.hl7.org/CodeSystem/v2-0203","code":"MR"}]},"system":"https://bonnie-fhir.healthit.gov/","value":"612e6b6802c62a011f2eda22"}],"active":true,"name":[{"use":"usual","family":"IPPFail","given":["EncEndsAfterMP"]}],"gender":"male","birthDate":"2004-01-01"},"request":{"method":"PUT","url":"Patient/a7a685d8-d95a-489a-a3ae-a461d945bcb3"}},{"fullUrl":"https://madie.cms.gov/Encounter/2763755c-2cbc-45ef-bdc2-46ed12dba16c","resource":{"resourceType":"Encounter","id":"2763755c-2cbc-45ef-bdc2-46ed12dba16c","meta":{"profile":["http://hl7.org/fhir/us/qicore/StructureDefinition/qicore-encounter"]},"status":"finished","class":{"system":"http://terminology.hl7.org/CodeSystem/v3-ActCode","code":"IMP","display":"inpatient encounter"},"type":[{"coding":[{"system":"http://snomed.info/sct","code":"8715000"}]}],"subject":{"reference":"Patient/a7a685d8-d95a-489a-a3ae-a461d945bcb3"},"period":{"start":"2026-12-01T00:00:00.000+00:00","end":"2027-01-01T00:00:00.000+00:00"},"length":{"value":31.0,"unit":"days"}},"request":{"method":"PUT","url":"Encounter/2763755c-2cbc-45ef-bdc2-46ed12dba16c"}},{"fullUrl":"https://madie.cms.gov/Coverage/28805e29-bdce-4fb9-9c5f-82fe2e725bf6","resource":{"resourceType":"Coverage","id":"28805e29-bdce-4fb9-9c5f-82fe2e725bf6","status":"active","beneficiary":{"reference":"Patient/a7a685d8-d95a-489a-a3ae-a461d945bcb3"},"period":{"start":"2004-01-01T08:00:00.000+00:00"},"payor":[{"reference":"Organization/ced470f1-eeef-4c1d-9543-79dc5797c7ab"}]},"request":{"method":"PUT","url":"Coverage/28805e29-bdce-4fb9-9c5f-82fe2e725bf6"}},{"fullUrl":"https://madie.cms.gov/Organization/ced470f1-eeef-4c1d-9543-79dc5797c7ab","resource":{"resourceType":"Organization","id":"ced470f1-eeef-4c1d-9543-79dc5797c7ab","meta":{"profile":["http://hl7.org/fhir/us/qicore/StructureDefinition/qicore-organization"]},"identifier":[{"use":"temp","system":"urn:oid:2.16.840.1.113883.4.4","value":"21-3259825"}],"active":true,"type":[{"coding":[{"system":"http://terminology.hl7.org/CodeSystem/organization-type","code":"pay","display":"Payer"}]}],"name":"Blue Cross Blue Shield of Texas","telecom":[{"system":"phone","value":"(+1) 972-766-6900"}],"address":[{"use":"billing","type":"postal","line":["P.O. Box 660044"],"city":"Dallas","state":"TX","postalCode":"75266-0044","country":"USA"}]},"request":{"method":"PUT","url":"Organization/ced470f1-eeef-4c1d-9543-79dc5797c7ab"}},{"fullUrl":"https://madie.cms.gov/Practitioner/9e011952-ed3e-423f-8c6e-c3c0a30813c4","resource":{"resourceType":"Practitioner","id":"9e011952-ed3e-423f-8c6e-c3c0a30813c4","identifier":[{"system":"http://hl7.org/fhir/sid/us-npi","value":"123456"}],"name":[{"family":"Evil","prefix":["Dr"]}]},"request":{"method":"PUT","url":"Practitioner/9e011952-ed3e-423f-8c6e-c3c0a30813c4"}},{"fullUrl":"https://madie.cms.gov/MeasureReport/1e3c6b0a-4412-4350-bbf2-16b035c1d0dd","resource":{"resourceType":"MeasureReport","id":"1e3c6b0a-4412-4350-bbf2-16b035c1d0dd","meta":{"profile":["http://hl7.org/fhir/us/cqfmeasures/StructureDefinition/test-case-cqfm"]},"contained":[{"resourceType":"Parameters","id":"2e21a684-3e68-4e7e-9950-a685fe581e0c-parameters","parameter":[{"name":"subject","valueString":"a7a685d8-d95a-489a-a3ae-a461d945bcb3"}]}],"extension":[{"url":"http://hl7.org/fhir/StructureDefinition/cqf-inputParameters","valueReference":{"reference":"#2e21a684-3e68-4e7e-9950-a685fe581e0c-parameters"}},{"url":"http://hl7.org/fhir/us/cqfmeasures/StructureDefinition/cqfm-testCaseDescription","valueMarkdown":"Inp.end 1 min after MP.end\n"}],"modifierExtension":[{"url":"http://hl7.org/fhir/us/cqfmeasures/StructureDefinition/cqfm-isTestCase","valueBoolean":true}],"status":"complete","type":"individual","measure":"https://madie.cms.gov/Measure/CMS108FHIRVTEProphylaxis","period":{"start":"2026-01-01","end":"2026-12-31"},"group":[{"id":"Group_1","population":[{"id":"InitialPopulation_1","code":{"coding":[{"system":"http://terminology.hl7.org/CodeSystem/measure-population","code":"initial-population","display":"Initial Population"}]},"count":0},{"id":"Denominator_1","code":{"coding":[{"system":"http://terminology.hl7.org/CodeSystem/measure-population","code":"denominator","display":"Denominator"}]},"count":0},{"id":"DenominatorExclusion_1","code":{"coding":[{"system":"http://terminology.hl7.org/CodeSystem/measure-population","code":"denominator-exclusion","display":"Denominator Exclusion"}]},"count":0},{"id":"Numerator_1","code":{"coding":[{"system":"http://terminology.hl7.org/CodeSystem/measure-population","code":"numerator","display":"Numerator"}]},"count":0}],"measureScore":{"value":0.0}}],"evaluatedResource":[{"reference":"Patient/a7a685d8-d95a-489a-a3ae-a461d945bcb3"},{"reference":"Encounter/2763755c-2cbc-45ef-bdc2-46ed12dba16c"},{"reference":"Coverage/28805e29-bdce-4fb9-9c5f-82fe2e725bf6"},{"reference":"Organization/ced470f1-eeef-4c1d-9543-79dc5797c7ab"},{"reference":"Practitioner/9e011952-ed3e-423f-8c6e-c3c0a30813c4"}]},"request":{"method":"PUT","url":"MeasureReport/1e3c6b0a-4412-4350-bbf2-16b035c1d0dd"}}]},"request":{"method":"PUT","url":"Bundle/tests-a7a685d8-d95a-489a-a3ae-a461d945bcb3-bundle"}}]}