{"resourceType":"Bundle","id":"tests-898693f7-3efa-4240-bc7f-cfe7019a594b-bundle","type":"transaction","entry":[{"fullUrl":"Bundle/tests-898693f7-3efa-4240-bc7f-cfe7019a594b-bundle","resource":{"resourceType":"Bundle","id":"tests-898693f7-3efa-4240-bc7f-cfe7019a594b-bundle","type":"transaction","entry":[{"fullUrl":"https://madie.cms.gov/Patient/898693f7-3efa-4240-bc7f-cfe7019a594b","resource":{"resourceType":"Patient","id":"898693f7-3efa-4240-bc7f-cfe7019a594b","meta":{"profile":["http://hl7.org/fhir/us/qicore/StructureDefinition/qicore-patient"]},"text":{"status":"generated","div":"<div xmlns=\"http://www.w3.org/1999/xhtml\"><div class=\"hapiHeaderText\">ICU3DaysAfterAdmit <b>DENEXFAIL </b></div><table class=\"hapiPropertyTable\"><tbody><tr><td>Identifier</td><td>e27e5563554c3f0106e7e2711362df0d</td></tr><tr><td>Date of birth</td><td><span>02 January 1974</span></td></tr></tbody></table></div>"},"extension":[{"url":"http://hl7.org/fhir/us/core/StructureDefinition/us-core-race","extension":[{"url":"ombCategory","valueCoding":{"system":"urn:oid:2.16.840.1.113883.6.238","code":"1002-5","display":"American Indian or Alaska Native","userSelected":true}},{"url":"text","valueString":"American Indian or Alaska Native"}]},{"url":"http://hl7.org/fhir/us/core/StructureDefinition/us-core-ethnicity","extension":[{"url":"ombCategory","valueCoding":{"system":"urn:oid:2.16.840.1.113883.6.238","code":"2135-2","display":"Hispanic or Latino","userSelected":true}},{"url":"text","valueString":"Hispanic or Latino"}]}],"identifier":[{"type":{"coding":[{"system":"http://terminology.hl7.org/CodeSystem/v2-0203","code":"MR"}]},"system":"https://bonnie-fhir.healthit.gov/","value":"612e6b3f02c62a011f2ed070"}],"active":true,"name":[{"use":"usual","family":"DENEXFail","given":["ICU3DaysAfterAdmit"]}],"gender":"male","birthDate":"1975-01-02"},"request":{"method":"PUT","url":"Patient/898693f7-3efa-4240-bc7f-cfe7019a594b"}},{"fullUrl":"https://madie.cms.gov/Encounter/8d6d0019-ceec-47a6-b4c7-71956eaa80c7","resource":{"resourceType":"Encounter","id":"8d6d0019-ceec-47a6-b4c7-71956eaa80c7","meta":{"profile":["http://hl7.org/fhir/us/qicore/StructureDefinition/qicore-encounter"]},"status":"finished","class":{"system":"http://terminology.hl7.org/CodeSystem/v3-ActCode","code":"IMP","display":"inpatient encounter"},"type":[{"coding":[{"system":"http://snomed.info/sct","code":"8715000"}]}],"subject":{"reference":"Patient/898693f7-3efa-4240-bc7f-cfe7019a594b"},"period":{"start":"2026-11-01T08:00:00.000+00:00","end":"2026-11-26T08:15:00.000+00:00"},"length":{"value":25.0,"unit":"days"},"location":[{"location":{"reference":"Location/c26c78d2-2cb2-49f0-a250-c60537dbcf3d"},"period":{"start":"2026-11-03T11:00:00.000+00:00","end":"2026-11-05T00:15:00.000+00:00"}}]},"request":{"method":"PUT","url":"Encounter/8d6d0019-ceec-47a6-b4c7-71956eaa80c7"}},{"fullUrl":"https://madie.cms.gov/Coverage/362e21b8-fadb-44d1-ac0f-5a228a4166d4","resource":{"resourceType":"Coverage","id":"362e21b8-fadb-44d1-ac0f-5a228a4166d4","status":"active","beneficiary":{"reference":"Patient/898693f7-3efa-4240-bc7f-cfe7019a594b"},"period":{"start":"1975-01-02T08:00:00.000+00:00"},"payor":[{"reference":"Organization/cf2881f5-3fdb-407b-b79f-7a751d40d41e"}]},"request":{"method":"PUT","url":"Coverage/362e21b8-fadb-44d1-ac0f-5a228a4166d4"}},{"fullUrl":"https://madie.cms.gov/Location/c26c78d2-2cb2-49f0-a250-c60537dbcf3d","resource":{"resourceType":"Location","id":"c26c78d2-2cb2-49f0-a250-c60537dbcf3d","meta":{"profile":["http://hl7.org/fhir/us/qicore/StructureDefinition/qicore-location"]},"identifier":[{"use":"usual","system":"http://exampleoflocation.com","value":"B1-S.F2"}],"name":"Medical Surgical East, first floor","type":[{"coding":[{"system":"http://cts.nlm.nih.gov/fhir/cs/hsloc","version":"2020","code":"1025-6","display":"Trauma Critical Care","userSelected":true}]}]},"request":{"method":"PUT","url":"Location/c26c78d2-2cb2-49f0-a250-c60537dbcf3d"}},{"fullUrl":"https://madie.cms.gov/Organization/cf2881f5-3fdb-407b-b79f-7a751d40d41e","resource":{"resourceType":"Organization","id":"cf2881f5-3fdb-407b-b79f-7a751d40d41e","meta":{"profile":["http://hl7.org/fhir/us/qicore/StructureDefinition/qicore-organization"]},"identifier":[{"use":"temp","system":"urn:oid:2.16.840.1.113883.4.4","value":"21-3259825"}],"active":true,"type":[{"coding":[{"system":"http://terminology.hl7.org/CodeSystem/organization-type","code":"pay","display":"Payer"}]}],"name":"Blue Cross Blue Shield of Texas","telecom":[{"system":"phone","value":"(+1) 972-766-6900"}],"address":[{"use":"billing","type":"postal","line":["P.O. Box 660044"],"city":"Dallas","state":"TX","postalCode":"75266-0044","country":"USA"}]},"request":{"method":"PUT","url":"Organization/cf2881f5-3fdb-407b-b79f-7a751d40d41e"}},{"fullUrl":"https://madie.cms.gov/Practitioner/0583a9b7-340c-4aeb-ba95-b8e64d81a5a4","resource":{"resourceType":"Practitioner","id":"0583a9b7-340c-4aeb-ba95-b8e64d81a5a4","identifier":[{"system":"http://hl7.org/fhir/sid/us-npi","value":"123456"}],"name":[{"family":"Evil","prefix":["Dr"]}]},"request":{"method":"PUT","url":"Practitioner/0583a9b7-340c-4aeb-ba95-b8e64d81a5a4"}},{"fullUrl":"https://madie.cms.gov/MeasureReport/9f005b5d-75cd-4312-a4a8-491661d83a0e","resource":{"resourceType":"MeasureReport","id":"9f005b5d-75cd-4312-a4a8-491661d83a0e","meta":{"profile":["http://hl7.org/fhir/us/cqfmeasures/StructureDefinition/test-case-cqfm"]},"contained":[{"resourceType":"Parameters","id":"c159d431-b540-4aaa-bde8-c0b637437c84-parameters","parameter":[{"name":"subject","valueString":"898693f7-3efa-4240-bc7f-cfe7019a594b"}]}],"extension":[{"url":"http://hl7.org/fhir/StructureDefinition/cqf-inputParameters","valueReference":{"reference":"#c159d431-b540-4aaa-bde8-c0b637437c84-parameters"}},{"url":"http://hl7.org/fhir/us/cqfmeasures/StructureDefinition/cqfm-testCaseDescription","valueMarkdown":"ICU admission > 1 day after start of IP encounter\n"}],"modifierExtension":[{"url":"http://hl7.org/fhir/us/cqfmeasures/StructureDefinition/cqfm-isTestCase","valueBoolean":true}],"status":"complete","type":"individual","measure":"https://madie.cms.gov/Measure/CMS108FHIRVTEProphylaxis","period":{"start":"2026-01-01","end":"2026-12-31"},"group":[{"id":"Group_1","population":[{"id":"InitialPopulation_1","code":{"coding":[{"system":"http://terminology.hl7.org/CodeSystem/measure-population","code":"initial-population","display":"Initial Population"}]},"count":1},{"id":"Denominator_1","code":{"coding":[{"system":"http://terminology.hl7.org/CodeSystem/measure-population","code":"denominator","display":"Denominator"}]},"count":1},{"id":"DenominatorExclusion_1","code":{"coding":[{"system":"http://terminology.hl7.org/CodeSystem/measure-population","code":"denominator-exclusion","display":"Denominator Exclusion"}]},"count":0},{"id":"Numerator_1","code":{"coding":[{"system":"http://terminology.hl7.org/CodeSystem/measure-population","code":"numerator","display":"Numerator"}]},"count":0}],"measureScore":{"value":0.0}}],"evaluatedResource":[{"reference":"Patient/898693f7-3efa-4240-bc7f-cfe7019a594b"},{"reference":"Encounter/8d6d0019-ceec-47a6-b4c7-71956eaa80c7"},{"reference":"Coverage/362e21b8-fadb-44d1-ac0f-5a228a4166d4"},{"reference":"Location/c26c78d2-2cb2-49f0-a250-c60537dbcf3d"},{"reference":"Organization/cf2881f5-3fdb-407b-b79f-7a751d40d41e"},{"reference":"Practitioner/0583a9b7-340c-4aeb-ba95-b8e64d81a5a4"}]},"request":{"method":"PUT","url":"MeasureReport/9f005b5d-75cd-4312-a4a8-491661d83a0e"}}]},"request":{"method":"PUT","url":"Bundle/tests-898693f7-3efa-4240-bc7f-cfe7019a594b-bundle"}}]}