{"resourceType":"Bundle","id":"tests-33d162ce-3bc7-4b0a-8c04-fec0a42a6263-bundle","type":"transaction","entry":[{"fullUrl":"Bundle/tests-33d162ce-3bc7-4b0a-8c04-fec0a42a6263-bundle","resource":{"resourceType":"Bundle","id":"tests-33d162ce-3bc7-4b0a-8c04-fec0a42a6263-bundle","type":"transaction","entry":[{"fullUrl":"https://madie.cms.gov/Patient/33d162ce-3bc7-4b0a-8c04-fec0a42a6263","resource":{"resourceType":"Patient","id":"33d162ce-3bc7-4b0a-8c04-fec0a42a6263","meta":{"profile":["http://hl7.org/fhir/us/qicore/StructureDefinition/qicore-patient"]},"text":{"status":"generated","div":"<div xmlns=\"http://www.w3.org/1999/xhtml\"><div class=\"hapiHeaderText\">DxVTEB4EncStartWMA_OralXa <b>NUMERPASS </b></div><table class=\"hapiPropertyTable\"><tbody><tr><td>Identifier</td><td>53ba7bfa81859444ffcb221a690f5daf</td></tr><tr><td>Date of birth</td><td><span>02 January 1974</span></td></tr></tbody></table></div>"},"extension":[{"url":"http://hl7.org/fhir/us/core/StructureDefinition/us-core-race","extension":[{"url":"ombCategory","valueCoding":{"system":"urn:oid:2.16.840.1.113883.6.238","code":"1002-5","display":"American Indian or Alaska Native","userSelected":true}},{"url":"text","valueString":"American Indian or Alaska Native"}]},{"url":"http://hl7.org/fhir/us/core/StructureDefinition/us-core-ethnicity","extension":[{"url":"ombCategory","valueCoding":{"system":"urn:oid:2.16.840.1.113883.6.238","code":"2135-2","display":"Hispanic or Latino","userSelected":true}},{"url":"text","valueString":"Hispanic or Latino"}]}],"identifier":[{"type":{"coding":[{"system":"http://terminology.hl7.org/CodeSystem/v2-0203","code":"MR"}]},"system":"https://bonnie-fhir.healthit.gov/","value":"612e6b5702c62a011f2ed65b"}],"active":true,"name":[{"use":"usual","family":"NUMERPass","given":["DxVTEB4EncStartWMAOralXa"]}],"gender":"male","birthDate":"1975-01-02"},"request":{"method":"PUT","url":"Patient/33d162ce-3bc7-4b0a-8c04-fec0a42a6263"}},{"fullUrl":"https://madie.cms.gov/Encounter/7a78a857-76e5-4f0e-8b74-236e2d4f6faf","resource":{"resourceType":"Encounter","id":"7a78a857-76e5-4f0e-8b74-236e2d4f6faf","meta":{"profile":["http://hl7.org/fhir/us/qicore/StructureDefinition/qicore-encounter"]},"status":"finished","class":{"system":"http://terminology.hl7.org/CodeSystem/v3-ActCode","code":"IMP","display":"inpatient encounter"},"type":[{"coding":[{"system":"http://snomed.info/sct","code":"8715000"}]}],"subject":{"reference":"Patient/33d162ce-3bc7-4b0a-8c04-fec0a42a6263"},"period":{"start":"2026-11-01T08:00:00.000+00:00","end":"2026-11-26T08:15:00.000+00:00"},"length":{"value":25,"unit":"days"}},"request":{"method":"PUT","url":"Encounter/7a78a857-76e5-4f0e-8b74-236e2d4f6faf"}},{"fullUrl":"https://madie.cms.gov/Coverage/6eb18d3e-1168-4c48-a875-fbd8a8676431","resource":{"resourceType":"Coverage","id":"6eb18d3e-1168-4c48-a875-fbd8a8676431","status":"active","beneficiary":{"reference":"Patient/33d162ce-3bc7-4b0a-8c04-fec0a42a6263"},"period":{"start":"1975-01-02T08:00:00.000+00:00"},"payor":[{"reference":"Organization/ac40584d-5251-484a-a98f-5a659c01d8e9"}]},"request":{"method":"PUT","url":"Coverage/6eb18d3e-1168-4c48-a875-fbd8a8676431"}},{"fullUrl":"https://madie.cms.gov/Condition/e1d0c719-2cea-4316-9b51-bb1d8d647125","resource":{"resourceType":"Condition","id":"e1d0c719-2cea-4316-9b51-bb1d8d647125","meta":{"profile":["http://hl7.org/fhir/us/qicore/StructureDefinition/qicore-condition-problems-health-concerns"]},"clinicalStatus":{"coding":[{"system":"http://terminology.hl7.org/CodeSystem/condition-clinical","code":"inactive","display":"inactive","userSelected":true}]},"verificationStatus":{"coding":[{"system":"http://terminology.hl7.org/CodeSystem/condition-ver-status","code":"confirmed","display":"confirmed","userSelected":true}]},"category":[{"coding":[{"system":"http://terminology.hl7.org/CodeSystem/condition-category","code":"problem-list-item","display":"Problem List Item"}]}],"code":{"coding":[{"system":"http://snomed.info/sct","code":"1001000119102","display":"Pulmonary embolism with pulmonary"}]},"subject":{"reference":"Patient/33d162ce-3bc7-4b0a-8c04-fec0a42a6263"},"onsetPeriod":{"start":"2026-10-09T08:00:00.000+00:00","end":"2026-10-09T08:15:00.000+00:00"}},"request":{"method":"PUT","url":"Condition/e1d0c719-2cea-4316-9b51-bb1d8d647125"}},{"fullUrl":"https://madie.cms.gov/MedicationAdministration/07a793d9-3f30-4274-b15d-870de650b343","resource":{"resourceType":"MedicationAdministration","id":"07a793d9-3f30-4274-b15d-870de650b343","meta":{"profile":["http://hl7.org/fhir/us/qicore/StructureDefinition/qicore-medicationadministration"]},"status":"completed","medicationCodeableConcept":{"coding":[{"system":"http://www.nlm.nih.gov/research/umls/rxnorm","code":"1599543","display":"edoxaban 15 MG Oral Tablet"}]},"subject":{"reference":"Patient/33d162ce-3bc7-4b0a-8c04-fec0a42a6263"},"effectivePeriod":{"start":"2026-11-01T11:00:00.000+00:00","end":"2026-11-01T11:05:00.000+00:00"}},"request":{"method":"PUT","url":"MedicationAdministration/07a793d9-3f30-4274-b15d-870de650b343"}},{"fullUrl":"https://madie.cms.gov/Organization/ac40584d-5251-484a-a98f-5a659c01d8e9","resource":{"resourceType":"Organization","id":"ac40584d-5251-484a-a98f-5a659c01d8e9","meta":{"profile":["http://hl7.org/fhir/us/qicore/StructureDefinition/qicore-organization"]},"identifier":[{"use":"temp","system":"urn:oid:2.16.840.1.113883.4.4","value":"21-3259825"}],"active":true,"type":[{"coding":[{"system":"http://terminology.hl7.org/CodeSystem/organization-type","code":"pay","display":"Payer"}]}],"name":"Blue Cross Blue Shield of Texas","telecom":[{"system":"phone","value":"(+1) 972-766-6900"}],"address":[{"use":"billing","type":"postal","line":["P.O. Box 660044"],"city":"Dallas","state":"TX","postalCode":"75266-0044","country":"USA"}]},"request":{"method":"PUT","url":"Organization/ac40584d-5251-484a-a98f-5a659c01d8e9"}},{"fullUrl":"https://madie.cms.gov/MeasureReport/755bb818-5a75-48d2-b344-e7558fa99898","resource":{"resourceType":"MeasureReport","id":"755bb818-5a75-48d2-b344-e7558fa99898","meta":{"profile":["http://hl7.org/fhir/us/cqfmeasures/StructureDefinition/test-case-cqfm"]},"contained":[{"resourceType":"Parameters","id":"9585251f-9133-49a7-9521-2b08e4f5bc18-parameters","parameter":[{"name":"subject","valueString":"33d162ce-3bc7-4b0a-8c04-fec0a42a6263"}]}],"extension":[{"url":"http://hl7.org/fhir/StructureDefinition/cqf-inputParameters","valueReference":{"reference":"#9585251f-9133-49a7-9521-2b08e4f5bc18-parameters"}},{"url":"http://hl7.org/fhir/us/cqfmeasures/StructureDefinition/cqfm-testCaseDescription","valueMarkdown":">18, LOS<120 day. Medication, Administered: Oral Factor Xa Inhibitor for VTE Prophylaxis with diagnosis of  VTE starts before the encounter.\n"}],"modifierExtension":[{"url":"http://hl7.org/fhir/us/cqfmeasures/StructureDefinition/cqfm-isTestCase","valueBoolean":true}],"status":"complete","type":"individual","measure":"https://madie.cms.gov/Measure/CMS108FHIRVTEProphylaxis","period":{"start":"2026-01-01","end":"2026-12-31"},"group":[{"id":"Group_1","population":[{"id":"InitialPopulation_1","code":{"coding":[{"system":"http://terminology.hl7.org/CodeSystem/measure-population","code":"initial-population","display":"Initial Population"}]},"count":1},{"id":"Denominator_1","code":{"coding":[{"system":"http://terminology.hl7.org/CodeSystem/measure-population","code":"denominator","display":"Denominator"}]},"count":1},{"id":"DenominatorExclusion_1","code":{"coding":[{"system":"http://terminology.hl7.org/CodeSystem/measure-population","code":"denominator-exclusion","display":"Denominator Exclusion"}]},"count":0},{"id":"Numerator_1","code":{"coding":[{"system":"http://terminology.hl7.org/CodeSystem/measure-population","code":"numerator","display":"Numerator"}]},"count":1}],"measureScore":{"value":0.0}}],"evaluatedResource":[{"reference":"Patient/33d162ce-3bc7-4b0a-8c04-fec0a42a6263"},{"reference":"Encounter/7a78a857-76e5-4f0e-8b74-236e2d4f6faf"},{"reference":"Coverage/6eb18d3e-1168-4c48-a875-fbd8a8676431"},{"reference":"Condition/e1d0c719-2cea-4316-9b51-bb1d8d647125"},{"reference":"MedicationAdministration/07a793d9-3f30-4274-b15d-870de650b343"},{"reference":"Organization/ac40584d-5251-484a-a98f-5a659c01d8e9"}]},"request":{"method":"PUT","url":"MeasureReport/755bb818-5a75-48d2-b344-e7558fa99898"}}]},"request":{"method":"PUT","url":"Bundle/tests-33d162ce-3bc7-4b0a-8c04-fec0a42a6263-bundle"}}]}