{"resourceType":"Bundle","id":"tests-b7783b8c-ba46-4509-a75e-203659abab3d-bundle","type":"transaction","entry":[{"fullUrl":"Bundle/tests-b7783b8c-ba46-4509-a75e-203659abab3d-bundle","resource":{"resourceType":"Bundle","id":"tests-b7783b8c-ba46-4509-a75e-203659abab3d-bundle","type":"transaction","entry":[{"fullUrl":"https://madie.cms.gov/Patient/b7783b8c-ba46-4509-a75e-203659abab3d","resource":{"resourceType":"Patient","id":"b7783b8c-ba46-4509-a75e-203659abab3d","meta":{"profile":["http://hl7.org/fhir/us/qicore/StructureDefinition/qicore-patient"]},"text":{"status":"generated","div":"<div xmlns=\"http://www.w3.org/1999/xhtml\"><div class=\"hapiHeaderText\">PtRef_DA_VFP_IPEnc <b>NUMERPASS </b></div><table class=\"hapiPropertyTable\"><tbody><tr><td>Identifier</td><td>5f7ad5e9fc357bf072546722e2c19e60</td></tr><tr><td>Date of birth</td><td><span>02 January 1974</span></td></tr></tbody></table></div>"},"extension":[{"url":"http://hl7.org/fhir/us/core/StructureDefinition/us-core-race","extension":[{"url":"ombCategory","valueCoding":{"system":"urn:oid:2.16.840.1.113883.6.238","code":"1002-5","display":"American Indian or Alaska Native","userSelected":true}},{"url":"text","valueString":"American Indian or Alaska Native"}]},{"url":"http://hl7.org/fhir/us/core/StructureDefinition/us-core-ethnicity","extension":[{"url":"ombCategory","valueCoding":{"system":"urn:oid:2.16.840.1.113883.6.238","code":"2135-2","display":"Hispanic or Latino","userSelected":true}},{"url":"text","valueString":"Hispanic or Latino"}]}],"identifier":[{"type":{"coding":[{"system":"http://terminology.hl7.org/CodeSystem/v2-0203","code":"MR"}]},"system":"https://bonnie-fhir.healthit.gov/","value":"612e6ab302c62a011f2eafaf"}],"active":true,"name":[{"use":"usual","family":"NUMERPass","given":["PtRefDAVFPIPEnc"]}],"gender":"male","birthDate":"1975-01-02"},"request":{"method":"PUT","url":"Patient/b7783b8c-ba46-4509-a75e-203659abab3d"}},{"fullUrl":"https://madie.cms.gov/Encounter/6bbb762c-a797-4f23-9929-9bc582556ca4","resource":{"resourceType":"Encounter","id":"6bbb762c-a797-4f23-9929-9bc582556ca4","meta":{"profile":["http://hl7.org/fhir/us/qicore/StructureDefinition/qicore-encounter"]},"status":"finished","class":{"system":"http://terminology.hl7.org/CodeSystem/v3-ActCode","code":"EMER","display":"emergency"},"type":[{"coding":[{"system":"http://snomed.info/sct","code":"4525004"}]}],"subject":{"reference":"Patient/b7783b8c-ba46-4509-a75e-203659abab3d"},"period":{"start":"2026-10-31T05:00:00.000+00:00","end":"2026-11-01T07:15:00.000+00:00"},"length":{"value":1,"unit":"days"}},"request":{"method":"PUT","url":"Encounter/6bbb762c-a797-4f23-9929-9bc582556ca4"}},{"fullUrl":"https://madie.cms.gov/Encounter/20e4d472-800a-41c7-acb6-f53037c896b9","resource":{"resourceType":"Encounter","id":"20e4d472-800a-41c7-acb6-f53037c896b9","meta":{"profile":["http://hl7.org/fhir/us/qicore/StructureDefinition/qicore-encounter"]},"status":"finished","class":{"system":"http://terminology.hl7.org/CodeSystem/v3-ActCode","code":"IMP","display":"inpatient encounter"},"type":[{"coding":[{"system":"http://snomed.info/sct","code":"8715000"}]}],"subject":{"reference":"Patient/b7783b8c-ba46-4509-a75e-203659abab3d"},"period":{"start":"2026-11-01T08:00:00.000+00:00","end":"2026-11-26T08:15:00.000+00:00"},"length":{"value":25,"unit":"days"}},"request":{"method":"PUT","url":"Encounter/20e4d472-800a-41c7-acb6-f53037c896b9"}},{"fullUrl":"https://madie.cms.gov/Coverage/ced11525-999f-4a5c-a209-b7b074b84b84","resource":{"resourceType":"Coverage","id":"ced11525-999f-4a5c-a209-b7b074b84b84","status":"active","beneficiary":{"reference":"Patient/b7783b8c-ba46-4509-a75e-203659abab3d"},"period":{"start":"1975-01-02T08:00:00.000+00:00"},"payor":[{"reference":"Organization/78fbd973-9686-4870-be41-6d8c9c00e9a7"}]},"request":{"method":"PUT","url":"Coverage/ced11525-999f-4a5c-a209-b7b074b84b84"}},{"fullUrl":"https://madie.cms.gov/Procedure/37cd55c3-0be9-4d30-bd2b-6d8205196fd7","resource":{"resourceType":"Procedure","id":"37cd55c3-0be9-4d30-bd2b-6d8205196fd7","meta":{"profile":["http://hl7.org/fhir/us/qicore/StructureDefinition/qicore-procedurenotdone"]},"extension":[{"url":"http://hl7.org/fhir/us/qicore/StructureDefinition/qicore-recorded","valueDateTime":"2026-11-01T13:35:00.000+00:00"}],"status":"not-done","statusReason":{"coding":[{"system":"http://snomed.info/sct","code":"443390004","display":"Refusal of treatment by patient (situation)","userSelected":true}]},"code":{"coding":[{"system":"http://snomed.info/sct","version":"2025-03","code":"442410008","display":"Application of venous foot pump (procedure)","userSelected":true}]},"subject":{"reference":"Patient/b7783b8c-ba46-4509-a75e-203659abab3d"},"_performedDateTime":{"extension":[{"url":"http://hl7.org/fhir/StructureDefinition/data-absent-reason","valueCode":"not-performed"}]}},"request":{"method":"PUT","url":"Procedure/37cd55c3-0be9-4d30-bd2b-6d8205196fd7"}},{"fullUrl":"https://madie.cms.gov/Organization/78fbd973-9686-4870-be41-6d8c9c00e9a7","resource":{"resourceType":"Organization","id":"78fbd973-9686-4870-be41-6d8c9c00e9a7","meta":{"profile":["http://hl7.org/fhir/us/qicore/StructureDefinition/qicore-organization"]},"identifier":[{"use":"temp","system":"urn:oid:2.16.840.1.113883.4.4","value":"21-3259825"}],"active":true,"type":[{"coding":[{"system":"http://terminology.hl7.org/CodeSystem/organization-type","code":"pay","display":"Payer"}]}],"name":"Blue Cross Blue Shield of Texas","telecom":[{"system":"phone","value":"(+1) 972-766-6900"}],"address":[{"use":"billing","type":"postal","line":["P.O. Box 660044"],"city":"Dallas","state":"TX","postalCode":"75266-0044","country":"USA"}]},"request":{"method":"PUT","url":"Organization/78fbd973-9686-4870-be41-6d8c9c00e9a7"}},{"fullUrl":"https://madie.cms.gov/Practitioner/2e49b5a5-8f39-4491-8505-c94846b2dea7","resource":{"resourceType":"Practitioner","id":"2e49b5a5-8f39-4491-8505-c94846b2dea7","identifier":[{"system":"http://hl7.org/fhir/sid/us-npi","value":"123456"}],"name":[{"family":"Evil","prefix":["Dr"]}]},"request":{"method":"PUT","url":"Practitioner/2e49b5a5-8f39-4491-8505-c94846b2dea7"}},{"fullUrl":"https://madie.cms.gov/MeasureReport/06be7978-0554-4cb9-b861-3e487d58563e","resource":{"resourceType":"MeasureReport","id":"06be7978-0554-4cb9-b861-3e487d58563e","meta":{"profile":["http://hl7.org/fhir/us/cqfmeasures/StructureDefinition/test-case-cqfm"]},"contained":[{"resourceType":"Parameters","id":"d6d8cf37-171d-4efe-aa19-2bbe02706bfb-parameters","parameter":[{"name":"subject","valueString":"b7783b8c-ba46-4509-a75e-203659abab3d"}]}],"extension":[{"url":"http://hl7.org/fhir/StructureDefinition/cqf-inputParameters","valueReference":{"reference":"#d6d8cf37-171d-4efe-aa19-2bbe02706bfb-parameters"}},{"url":"http://hl7.org/fhir/us/cqfmeasures/StructureDefinition/cqfm-testCaseDescription","valueMarkdown":"VFP refused in day of inpatient encounter\n"}],"modifierExtension":[{"url":"http://hl7.org/fhir/us/cqfmeasures/StructureDefinition/cqfm-isTestCase","valueBoolean":true}],"status":"complete","type":"individual","measure":"https://madie.cms.gov/Measure/CMS108FHIRVTEProphylaxis","period":{"start":"2026-01-01","end":"2026-12-31"},"group":[{"id":"Group_1","population":[{"id":"InitialPopulation_1","code":{"coding":[{"system":"http://terminology.hl7.org/CodeSystem/measure-population","code":"initial-population","display":"Initial Population"}]},"count":1},{"id":"Denominator_1","code":{"coding":[{"system":"http://terminology.hl7.org/CodeSystem/measure-population","code":"denominator","display":"Denominator"}]},"count":1},{"id":"DenominatorExclusion_1","code":{"coding":[{"system":"http://terminology.hl7.org/CodeSystem/measure-population","code":"denominator-exclusion","display":"Denominator Exclusion"}]},"count":0},{"id":"Numerator_1","code":{"coding":[{"system":"http://terminology.hl7.org/CodeSystem/measure-population","code":"numerator","display":"Numerator"}]},"count":1}],"measureScore":{"value":0.0}}],"evaluatedResource":[{"reference":"Patient/b7783b8c-ba46-4509-a75e-203659abab3d"},{"reference":"Encounter/6bbb762c-a797-4f23-9929-9bc582556ca4"},{"reference":"Encounter/20e4d472-800a-41c7-acb6-f53037c896b9"},{"reference":"Coverage/ced11525-999f-4a5c-a209-b7b074b84b84"},{"reference":"Procedure/37cd55c3-0be9-4d30-bd2b-6d8205196fd7"},{"reference":"Organization/78fbd973-9686-4870-be41-6d8c9c00e9a7"},{"reference":"Practitioner/2e49b5a5-8f39-4491-8505-c94846b2dea7"}]},"request":{"method":"PUT","url":"MeasureReport/06be7978-0554-4cb9-b861-3e487d58563e"}}]},"request":{"method":"PUT","url":"Bundle/tests-b7783b8c-ba46-4509-a75e-203659abab3d-bundle"}}]}