{"resourceType":"Bundle","id":"tests-575f2da0-c890-47a3-b17f-f9e134a1096e-bundle","type":"transaction","entry":[{"fullUrl":"Bundle/tests-575f2da0-c890-47a3-b17f-f9e134a1096e-bundle","resource":{"resourceType":"Bundle","id":"tests-575f2da0-c890-47a3-b17f-f9e134a1096e-bundle","type":"transaction","entry":[{"fullUrl":"https://madie.cms.gov/Patient/575f2da0-c890-47a3-b17f-f9e134a1096e","resource":{"resourceType":"Patient","id":"575f2da0-c890-47a3-b17f-f9e134a1096e","meta":{"profile":["http://hl7.org/fhir/us/qicore/StructureDefinition/qicore-patient"]},"text":{"status":"generated","div":"<div xmlns=\"http://www.w3.org/1999/xhtml\"><div class=\"hapiHeaderText\">PtRef_DA_GCS_DuringED <b>NUMERPASS </b></div><table class=\"hapiPropertyTable\"><tbody><tr><td>Identifier</td><td>5f7ad5e9fc357bf072546722e2c19e60</td></tr><tr><td>Date of birth</td><td><span>02 January 1974</span></td></tr></tbody></table></div>"},"extension":[{"url":"http://hl7.org/fhir/us/core/StructureDefinition/us-core-race","extension":[{"url":"ombCategory","valueCoding":{"system":"urn:oid:2.16.840.1.113883.6.238","code":"1002-5","display":"American Indian or Alaska Native","userSelected":true}},{"url":"text","valueString":"American Indian or Alaska Native"}]},{"url":"http://hl7.org/fhir/us/core/StructureDefinition/us-core-ethnicity","extension":[{"url":"ombCategory","valueCoding":{"system":"urn:oid:2.16.840.1.113883.6.238","code":"2135-2","display":"Hispanic or Latino","userSelected":true}},{"url":"text","valueString":"Hispanic or Latino"}]}],"identifier":[{"type":{"coding":[{"system":"http://terminology.hl7.org/CodeSystem/v2-0203","code":"MR"}]},"system":"https://bonnie-fhir.healthit.gov/","value":"612e6ab302c62a011f2eafaf"}],"active":true,"name":[{"use":"usual","family":"NUMERPass","given":["PtRefDAGCSDuringED"]}],"gender":"male","birthDate":"1975-01-02"},"request":{"method":"PUT","url":"Patient/575f2da0-c890-47a3-b17f-f9e134a1096e"}},{"fullUrl":"https://madie.cms.gov/Encounter/aa3c4e98-3cf5-4ec5-acf5-be2fb5bca260","resource":{"resourceType":"Encounter","id":"aa3c4e98-3cf5-4ec5-acf5-be2fb5bca260","meta":{"profile":["http://hl7.org/fhir/us/qicore/StructureDefinition/qicore-encounter"]},"status":"finished","class":{"system":"http://terminology.hl7.org/CodeSystem/v3-ActCode","code":"EMER","display":"emergency"},"type":[{"coding":[{"system":"http://snomed.info/sct","code":"4525004"}]}],"subject":{"reference":"Patient/575f2da0-c890-47a3-b17f-f9e134a1096e"},"period":{"start":"2026-10-31T05:00:00.000+00:00","end":"2026-11-01T07:15:00.000+00:00"},"length":{"value":1,"unit":"days"}},"request":{"method":"PUT","url":"Encounter/aa3c4e98-3cf5-4ec5-acf5-be2fb5bca260"}},{"fullUrl":"https://madie.cms.gov/Encounter/375bdb60-b3ef-4107-932d-57eed190065e","resource":{"resourceType":"Encounter","id":"375bdb60-b3ef-4107-932d-57eed190065e","meta":{"profile":["http://hl7.org/fhir/us/qicore/StructureDefinition/qicore-encounter"]},"status":"finished","class":{"system":"http://terminology.hl7.org/CodeSystem/v3-ActCode","code":"IMP","display":"inpatient encounter"},"type":[{"coding":[{"system":"http://snomed.info/sct","code":"8715000"}]}],"subject":{"reference":"Patient/575f2da0-c890-47a3-b17f-f9e134a1096e"},"period":{"start":"2026-11-01T08:00:00.000+00:00","end":"2026-11-26T08:15:00.000+00:00"},"length":{"value":25,"unit":"days"}},"request":{"method":"PUT","url":"Encounter/375bdb60-b3ef-4107-932d-57eed190065e"}},{"fullUrl":"https://madie.cms.gov/Coverage/529b9ac8-02f5-4d2a-8e18-a1a936b3c785","resource":{"resourceType":"Coverage","id":"529b9ac8-02f5-4d2a-8e18-a1a936b3c785","status":"active","beneficiary":{"reference":"Patient/575f2da0-c890-47a3-b17f-f9e134a1096e"},"period":{"start":"1975-01-02T08:00:00.000+00:00"},"payor":[{"reference":"Organization/c43629bd-2792-453f-b357-51e4be0b4d8f"}]},"request":{"method":"PUT","url":"Coverage/529b9ac8-02f5-4d2a-8e18-a1a936b3c785"}},{"fullUrl":"https://madie.cms.gov/Procedure/4a575a64-9fa0-4d24-ba6e-db848c9b201c","resource":{"resourceType":"Procedure","id":"4a575a64-9fa0-4d24-ba6e-db848c9b201c","meta":{"profile":["http://hl7.org/fhir/us/qicore/StructureDefinition/qicore-procedurenotdone"]},"extension":[{"url":"http://hl7.org/fhir/us/qicore/StructureDefinition/qicore-recorded","valueDateTime":"2026-10-31T21:35:00.000+00:00"}],"status":"not-done","statusReason":{"coding":[{"system":"http://snomed.info/sct","code":"443390004","display":"Refused (qualifier value)","userSelected":true}]},"code":{"coding":[{"system":"http://snomed.info/sct","version":"2025-03","code":"229511001","display":"Application of graduated compression garment (procedure)","userSelected":true}]},"subject":{"reference":"Patient/575f2da0-c890-47a3-b17f-f9e134a1096e"},"_performedDateTime":{"extension":[{"url":"http://hl7.org/fhir/StructureDefinition/data-absent-reason","valueCode":"not-performed"}]}},"request":{"method":"PUT","url":"Procedure/4a575a64-9fa0-4d24-ba6e-db848c9b201c"}},{"fullUrl":"https://madie.cms.gov/Organization/c43629bd-2792-453f-b357-51e4be0b4d8f","resource":{"resourceType":"Organization","id":"c43629bd-2792-453f-b357-51e4be0b4d8f","meta":{"profile":["http://hl7.org/fhir/us/qicore/StructureDefinition/qicore-organization"]},"identifier":[{"use":"temp","system":"urn:oid:2.16.840.1.113883.4.4","value":"21-3259825"}],"active":true,"type":[{"coding":[{"system":"http://terminology.hl7.org/CodeSystem/organization-type","code":"pay","display":"Payer"}]}],"name":"Blue Cross Blue Shield of Texas","telecom":[{"system":"phone","value":"(+1) 972-766-6900"}],"address":[{"use":"billing","type":"postal","line":["P.O. Box 660044"],"city":"Dallas","state":"TX","postalCode":"75266-0044","country":"USA"}]},"request":{"method":"PUT","url":"Organization/c43629bd-2792-453f-b357-51e4be0b4d8f"}},{"fullUrl":"https://madie.cms.gov/Practitioner/1cf91c24-c624-4b39-ac45-385e35d82247","resource":{"resourceType":"Practitioner","id":"1cf91c24-c624-4b39-ac45-385e35d82247","identifier":[{"system":"http://hl7.org/fhir/sid/us-npi","value":"123456"}],"name":[{"family":"Evil","prefix":["Dr"]}]},"request":{"method":"PUT","url":"Practitioner/1cf91c24-c624-4b39-ac45-385e35d82247"}},{"fullUrl":"https://madie.cms.gov/MeasureReport/206c879a-0e67-41e4-8362-fd66db00b753","resource":{"resourceType":"MeasureReport","id":"206c879a-0e67-41e4-8362-fd66db00b753","meta":{"profile":["http://hl7.org/fhir/us/cqfmeasures/StructureDefinition/test-case-cqfm"]},"contained":[{"resourceType":"Parameters","id":"bacf5225-9294-4abe-a27e-6ea4637d0299-parameters","parameter":[{"name":"subject","valueString":"575f2da0-c890-47a3-b17f-f9e134a1096e"}]}],"extension":[{"url":"http://hl7.org/fhir/StructureDefinition/cqf-inputParameters","valueReference":{"reference":"#bacf5225-9294-4abe-a27e-6ea4637d0299-parameters"}},{"url":"http://hl7.org/fhir/us/cqfmeasures/StructureDefinition/cqfm-testCaseDescription","valueMarkdown":"GCS refused in ED \n"}],"modifierExtension":[{"url":"http://hl7.org/fhir/us/cqfmeasures/StructureDefinition/cqfm-isTestCase","valueBoolean":true}],"status":"complete","type":"individual","measure":"https://madie.cms.gov/Measure/CMS108FHIRVTEProphylaxis","period":{"start":"2026-01-01","end":"2026-12-31"},"group":[{"id":"Group_1","population":[{"id":"InitialPopulation_1","code":{"coding":[{"system":"http://terminology.hl7.org/CodeSystem/measure-population","code":"initial-population","display":"Initial Population"}]},"count":1},{"id":"Denominator_1","code":{"coding":[{"system":"http://terminology.hl7.org/CodeSystem/measure-population","code":"denominator","display":"Denominator"}]},"count":1},{"id":"DenominatorExclusion_1","code":{"coding":[{"system":"http://terminology.hl7.org/CodeSystem/measure-population","code":"denominator-exclusion","display":"Denominator Exclusion"}]},"count":0},{"id":"Numerator_1","code":{"coding":[{"system":"http://terminology.hl7.org/CodeSystem/measure-population","code":"numerator","display":"Numerator"}]},"count":1}],"measureScore":{"value":0.0}}],"evaluatedResource":[{"reference":"Patient/575f2da0-c890-47a3-b17f-f9e134a1096e"},{"reference":"Encounter/aa3c4e98-3cf5-4ec5-acf5-be2fb5bca260"},{"reference":"Encounter/375bdb60-b3ef-4107-932d-57eed190065e"},{"reference":"Coverage/529b9ac8-02f5-4d2a-8e18-a1a936b3c785"},{"reference":"Procedure/4a575a64-9fa0-4d24-ba6e-db848c9b201c"},{"reference":"Organization/c43629bd-2792-453f-b357-51e4be0b4d8f"},{"reference":"Practitioner/1cf91c24-c624-4b39-ac45-385e35d82247"}]},"request":{"method":"PUT","url":"MeasureReport/206c879a-0e67-41e4-8362-fd66db00b753"}}]},"request":{"method":"PUT","url":"Bundle/tests-575f2da0-c890-47a3-b17f-f9e134a1096e-bundle"}}]}