{"resourceType":"Bundle","id":"tests-3db5c5a1-2eec-4e01-8e59-ac389a0a2179-bundle","type":"transaction","entry":[{"fullUrl":"Bundle/tests-3db5c5a1-2eec-4e01-8e59-ac389a0a2179-bundle","resource":{"resourceType":"Bundle","id":"tests-3db5c5a1-2eec-4e01-8e59-ac389a0a2179-bundle","type":"transaction","entry":[{"fullUrl":"https://madie.cms.gov/Patient/3db5c5a1-2eec-4e01-8e59-ac389a0a2179","resource":{"resourceType":"Patient","id":"3db5c5a1-2eec-4e01-8e59-ac389a0a2179","meta":{"profile":["http://hl7.org/fhir/us/qicore/StructureDefinition/qicore-patient"]},"text":{"status":"generated","div":"<div xmlns=\"http://www.w3.org/1999/xhtml\"><div class=\"hapiHeaderText\">INRGT3_ED <b>NUMERPASS </b></div><table class=\"hapiPropertyTable\"><tbody><tr><td>Identifier</td><td>2e3da27d77f7d9771e3739059c1b88a9</td></tr><tr><td>Date of birth</td><td><span>02 January 1974</span></td></tr></tbody></table></div>"},"extension":[{"url":"http://hl7.org/fhir/us/core/StructureDefinition/us-core-race","extension":[{"url":"ombCategory","valueCoding":{"system":"urn:oid:2.16.840.1.113883.6.238","code":"1002-5","display":"American Indian or Alaska Native","userSelected":true}},{"url":"text","valueString":"American Indian or Alaska Native"}]},{"url":"http://hl7.org/fhir/us/core/StructureDefinition/us-core-ethnicity","extension":[{"url":"ombCategory","valueCoding":{"system":"urn:oid:2.16.840.1.113883.6.238","code":"2135-2","display":"Hispanic or Latino","userSelected":true}},{"url":"text","valueString":"Hispanic or Latino"}]}],"identifier":[{"type":{"coding":[{"system":"http://terminology.hl7.org/CodeSystem/v2-0203","code":"MR"}]},"system":"https://bonnie-fhir.healthit.gov/","value":"612e6b5b02c62a011f2ed76a"}],"active":true,"name":[{"use":"usual","family":"NUMERPass","given":["INRGT3ED"]}],"gender":"male","birthDate":"1975-01-02"},"request":{"method":"PUT","url":"Patient/3db5c5a1-2eec-4e01-8e59-ac389a0a2179"}},{"fullUrl":"https://madie.cms.gov/Encounter/5cb6eae5-b96b-427b-a5d6-d86ea767d76f","resource":{"resourceType":"Encounter","id":"5cb6eae5-b96b-427b-a5d6-d86ea767d76f","meta":{"profile":["http://hl7.org/fhir/us/qicore/StructureDefinition/qicore-encounter"]},"status":"finished","class":{"system":"http://terminology.hl7.org/CodeSystem/v3-ActCode","code":"EMER","display":"emergency"},"type":[{"coding":[{"system":"http://snomed.info/sct","code":"4525004"}]}],"subject":{"reference":"Patient/3db5c5a1-2eec-4e01-8e59-ac389a0a2179"},"period":{"start":"2026-11-01T02:00:00.000+00:00","end":"2026-11-02T07:40:00.000+00:00"},"length":{"value":0,"unit":"days"}},"request":{"method":"PUT","url":"Encounter/5cb6eae5-b96b-427b-a5d6-d86ea767d76f"}},{"fullUrl":"https://madie.cms.gov/Encounter/c9bb34f7-d58c-4f2f-aa53-6e58ae030801","resource":{"resourceType":"Encounter","id":"c9bb34f7-d58c-4f2f-aa53-6e58ae030801","meta":{"profile":["http://hl7.org/fhir/us/qicore/StructureDefinition/qicore-encounter"]},"status":"finished","class":{"system":"http://terminology.hl7.org/CodeSystem/v3-ActCode","code":"IMP","display":"inpatient encounter"},"type":[{"coding":[{"system":"http://snomed.info/sct","code":"8715000"}]}],"subject":{"reference":"Patient/3db5c5a1-2eec-4e01-8e59-ac389a0a2179"},"period":{"start":"2026-11-02T08:00:00.000+00:00","end":"2026-11-26T08:15:00.000+00:00"},"length":{"value":24,"unit":"days"}},"request":{"method":"PUT","url":"Encounter/c9bb34f7-d58c-4f2f-aa53-6e58ae030801"}},{"fullUrl":"https://madie.cms.gov/Coverage/a22bcddd-6a9a-4ae7-899d-f5cc0000f836","resource":{"resourceType":"Coverage","id":"a22bcddd-6a9a-4ae7-899d-f5cc0000f836","status":"active","beneficiary":{"reference":"Patient/3db5c5a1-2eec-4e01-8e59-ac389a0a2179"},"period":{"start":"1975-01-02T08:00:00.000+00:00"},"payor":[{"reference":"Organization/ebecc444-2bfd-46c9-b809-37b019b14cae"}]},"request":{"method":"PUT","url":"Coverage/a22bcddd-6a9a-4ae7-899d-f5cc0000f836"}},{"fullUrl":"https://madie.cms.gov/Observation/bbc0a369-e549-4c9f-ac07-0b9fe06de7dd","resource":{"resourceType":"Observation","id":"bbc0a369-e549-4c9f-ac07-0b9fe06de7dd","meta":{"profile":["http://hl7.org/fhir/us/qicore/StructureDefinition/qicore-observation-lab"]},"status":"final","category":[{"coding":[{"system":"http://terminology.hl7.org/CodeSystem/observation-category","code":"laboratory","display":"Laboratory"}]}],"code":{"coding":[{"system":"http://loinc.org","code":"34714-6"}]},"subject":{"reference":"Patient/3db5c5a1-2eec-4e01-8e59-ac389a0a2179"},"effectiveDateTime":"2026-11-01T06:00:00.000+00:00","issued":"2026-11-01T06:00:00.000+00:00","valueQuantity":{"value":3.5,"unit":"{INR}"}},"request":{"method":"PUT","url":"Observation/bbc0a369-e549-4c9f-ac07-0b9fe06de7dd"}},{"fullUrl":"https://madie.cms.gov/Organization/ebecc444-2bfd-46c9-b809-37b019b14cae","resource":{"resourceType":"Organization","id":"ebecc444-2bfd-46c9-b809-37b019b14cae","meta":{"profile":["http://hl7.org/fhir/us/qicore/StructureDefinition/qicore-organization"]},"identifier":[{"use":"temp","system":"urn:oid:2.16.840.1.113883.4.4","value":"21-3259825"}],"active":true,"type":[{"coding":[{"system":"http://terminology.hl7.org/CodeSystem/organization-type","code":"pay","display":"Payer"}]}],"name":"Blue Cross Blue Shield of Texas","telecom":[{"system":"phone","value":"(+1) 972-766-6900"}],"address":[{"use":"billing","type":"postal","line":["P.O. Box 660044"],"city":"Dallas","state":"TX","postalCode":"75266-0044","country":"USA"}]},"request":{"method":"PUT","url":"Organization/ebecc444-2bfd-46c9-b809-37b019b14cae"}},{"fullUrl":"https://madie.cms.gov/Practitioner/3c9afed3-5457-4ec3-b16a-34858586af32","resource":{"resourceType":"Practitioner","id":"3c9afed3-5457-4ec3-b16a-34858586af32","identifier":[{"system":"http://hl7.org/fhir/sid/us-npi","value":"123456"}],"name":[{"family":"Evil","prefix":["Dr"]}]},"request":{"method":"PUT","url":"Practitioner/3c9afed3-5457-4ec3-b16a-34858586af32"}},{"fullUrl":"https://madie.cms.gov/MeasureReport/12918cc7-4bab-493f-b3d5-b9721e0d445e","resource":{"resourceType":"MeasureReport","id":"12918cc7-4bab-493f-b3d5-b9721e0d445e","meta":{"profile":["http://hl7.org/fhir/us/cqfmeasures/StructureDefinition/test-case-cqfm"]},"contained":[{"resourceType":"Parameters","id":"b8d9dd28-ec0e-4888-acce-56cb3e7f1da2-parameters","parameter":[{"name":"subject","valueString":"3db5c5a1-2eec-4e01-8e59-ac389a0a2179"}]}],"extension":[{"url":"http://hl7.org/fhir/StructureDefinition/cqf-inputParameters","valueReference":{"reference":"#b8d9dd28-ec0e-4888-acce-56cb3e7f1da2-parameters"}},{"url":"http://hl7.org/fhir/us/cqfmeasures/StructureDefinition/cqfm-testCaseDescription","valueMarkdown":">18, LOS<120 day.Lab INR>3 during ED\n"}],"modifierExtension":[{"url":"http://hl7.org/fhir/us/cqfmeasures/StructureDefinition/cqfm-isTestCase","valueBoolean":true}],"status":"complete","type":"individual","measure":"https://madie.cms.gov/Measure/CMS108FHIRVTEProphylaxis","period":{"start":"2026-01-01","end":"2026-12-31"},"group":[{"id":"Group_1","population":[{"id":"InitialPopulation_1","code":{"coding":[{"system":"http://terminology.hl7.org/CodeSystem/measure-population","code":"initial-population","display":"Initial Population"}]},"count":1},{"id":"Denominator_1","code":{"coding":[{"system":"http://terminology.hl7.org/CodeSystem/measure-population","code":"denominator","display":"Denominator"}]},"count":1},{"id":"DenominatorExclusion_1","code":{"coding":[{"system":"http://terminology.hl7.org/CodeSystem/measure-population","code":"denominator-exclusion","display":"Denominator Exclusion"}]},"count":0},{"id":"Numerator_1","code":{"coding":[{"system":"http://terminology.hl7.org/CodeSystem/measure-population","code":"numerator","display":"Numerator"}]},"count":1}],"measureScore":{"value":0.0}}],"evaluatedResource":[{"reference":"Patient/3db5c5a1-2eec-4e01-8e59-ac389a0a2179"},{"reference":"Encounter/5cb6eae5-b96b-427b-a5d6-d86ea767d76f"},{"reference":"Encounter/c9bb34f7-d58c-4f2f-aa53-6e58ae030801"},{"reference":"Coverage/a22bcddd-6a9a-4ae7-899d-f5cc0000f836"},{"reference":"Observation/bbc0a369-e549-4c9f-ac07-0b9fe06de7dd"},{"reference":"Organization/ebecc444-2bfd-46c9-b809-37b019b14cae"},{"reference":"Practitioner/3c9afed3-5457-4ec3-b16a-34858586af32"}]},"request":{"method":"PUT","url":"MeasureReport/12918cc7-4bab-493f-b3d5-b9721e0d445e"}}]},"request":{"method":"PUT","url":"Bundle/tests-3db5c5a1-2eec-4e01-8e59-ac389a0a2179-bundle"}}]}