{"resourceType":"Bundle","id":"tests-5e4231e6-dc8e-423e-9107-003da9d26548-bundle","type":"transaction","entry":[{"fullUrl":"Bundle/tests-5e4231e6-dc8e-423e-9107-003da9d26548-bundle","resource":{"resourceType":"Bundle","id":"tests-5e4231e6-dc8e-423e-9107-003da9d26548-bundle","type":"transaction","entry":[{"fullUrl":"https://madie.cms.gov/Patient/5e4231e6-dc8e-423e-9107-003da9d26548","resource":{"resourceType":"Patient","id":"5e4231e6-dc8e-423e-9107-003da9d26548","meta":{"profile":["http://hl7.org/fhir/us/qicore/StructureDefinition/qicore-patient"]},"text":{"status":"generated","div":"<div xmlns=\"http://www.w3.org/1999/xhtml\"><div class=\"hapiHeaderText\">MedReason_MA_LMWH_DO_GCS_IPEnc <b>NUMERPASS </b></div><table class=\"hapiPropertyTable\"><tbody><tr><td>Identifier</td><td>57c53fc7391e680566116a818dec99f8</td></tr><tr><td>Date of birth</td><td><span>02 January 1974</span></td></tr></tbody></table></div>"},"extension":[{"url":"http://hl7.org/fhir/us/core/StructureDefinition/us-core-race","extension":[{"url":"ombCategory","valueCoding":{"system":"urn:oid:2.16.840.1.113883.6.238","code":"1002-5","display":"American Indian or Alaska Native","userSelected":true}},{"url":"text","valueString":"American Indian or Alaska Native"}]},{"url":"http://hl7.org/fhir/us/core/StructureDefinition/us-core-ethnicity","extension":[{"url":"ombCategory","valueCoding":{"system":"urn:oid:2.16.840.1.113883.6.238","code":"2135-2","display":"Hispanic or Latino","userSelected":true}},{"url":"text","valueString":"Hispanic or Latino"}]}],"identifier":[{"type":{"coding":[{"system":"http://terminology.hl7.org/CodeSystem/v2-0203","code":"MR"}]},"system":"https://bonnie-fhir.healthit.gov/","value":"612e6a8802c62a011f2ea423"}],"active":true,"name":[{"use":"usual","family":"NUMERPass","given":["MedReasonMALMWHDOGCSIPEnc"]}],"gender":"male","birthDate":"1975-01-02"},"request":{"method":"PUT","url":"Patient/5e4231e6-dc8e-423e-9107-003da9d26548"}},{"fullUrl":"https://madie.cms.gov/Encounter/b7198c72-ed9e-4daf-84a8-5be6f55cb68e","resource":{"resourceType":"Encounter","id":"b7198c72-ed9e-4daf-84a8-5be6f55cb68e","meta":{"profile":["http://hl7.org/fhir/us/qicore/StructureDefinition/qicore-encounter"]},"status":"finished","class":{"system":"http://terminology.hl7.org/CodeSystem/v3-ActCode","code":"IMP","display":"inpatient encounter"},"type":[{"coding":[{"system":"http://snomed.info/sct","code":"8715000"}]}],"subject":{"reference":"Patient/5e4231e6-dc8e-423e-9107-003da9d26548"},"period":{"start":"2026-11-01T08:00:00.000+00:00","end":"2026-11-26T08:15:00.000+00:00"},"length":{"value":25,"unit":"days"}},"request":{"method":"PUT","url":"Encounter/b7198c72-ed9e-4daf-84a8-5be6f55cb68e"}},{"fullUrl":"https://madie.cms.gov/Coverage/7406e09f-aa26-486d-9629-130cf4ca1071","resource":{"resourceType":"Coverage","id":"7406e09f-aa26-486d-9629-130cf4ca1071","status":"active","beneficiary":{"reference":"Patient/5e4231e6-dc8e-423e-9107-003da9d26548"},"period":{"start":"1975-01-02T08:00:00.000+00:00"},"payor":[{"reference":"Organization/84d624e0-1d4f-447a-bcd0-8c1a63859661"}]},"request":{"method":"PUT","url":"Coverage/7406e09f-aa26-486d-9629-130cf4ca1071"}},{"fullUrl":"https://madie.cms.gov/MedicationAdministration/7f50e472-0f8b-4878-8a2b-69a7011fe250","resource":{"resourceType":"MedicationAdministration","id":"7f50e472-0f8b-4878-8a2b-69a7011fe250","meta":{"profile":["http://hl7.org/fhir/us/qicore/StructureDefinition/qicore-medicationadministrationnotdone"]},"extension":[{"url":"http://hl7.org/fhir/us/qicore/StructureDefinition/qicore-recorded","valueDateTime":"2026-11-02T09:00:00.000+00:00"}],"status":"not-done","statusReason":[{"coding":[{"system":"http://snomed.info/sct","code":"183932001","display":"Procedure contraindicated (situation)"}]}],"medicationCodeableConcept":{"coding":[{"system":"http://www.nlm.nih.gov/research/umls/rxnorm","code":"854228"}]},"subject":{"reference":"Patient/5e4231e6-dc8e-423e-9107-003da9d26548"},"effectivePeriod":{"start":"2026-11-02T09:00:00.000+00:00"}},"request":{"method":"PUT","url":"MedicationAdministration/7f50e472-0f8b-4878-8a2b-69a7011fe250"}},{"fullUrl":"https://madie.cms.gov/ServiceRequest/9bd20d32-95ed-4494-a838-96203d0f2633","resource":{"resourceType":"ServiceRequest","id":"9bd20d32-95ed-4494-a838-96203d0f2633","meta":{"profile":["http://hl7.org/fhir/us/qicore/StructureDefinition/qicore-servicenotrequested"]},"extension":[{"url":"http://hl7.org/fhir/us/qicore/StructureDefinition/qicore-doNotPerformReason","valueCodeableConcept":{"coding":[{"system":"http://snomed.info/sct","code":"183932001","display":"Procedure contraindicated (situation)"}]}}],"status":"completed","intent":"order","doNotPerform":true,"code":{"coding":[{"system":"http://snomed.info/sct","version":"2025-03","code":"348681001","display":"Graduated compression elastic hosiery (physical object)","userSelected":true}]},"subject":{"reference":"Patient/5e4231e6-dc8e-423e-9107-003da9d26548"},"authoredOn":"2026-11-02T09:00:00.000+00:00","reasonCode":[{"coding":[{"system":"http://snomed.info/sct","code":"183932001","display":"Procedure contraindicated (situation)","userSelected":true}]}]},"request":{"method":"PUT","url":"ServiceRequest/9bd20d32-95ed-4494-a838-96203d0f2633"}},{"fullUrl":"https://madie.cms.gov/Organization/84d624e0-1d4f-447a-bcd0-8c1a63859661","resource":{"resourceType":"Organization","id":"84d624e0-1d4f-447a-bcd0-8c1a63859661","meta":{"profile":["http://hl7.org/fhir/us/qicore/StructureDefinition/qicore-organization"]},"identifier":[{"use":"temp","system":"urn:oid:2.16.840.1.113883.4.4","value":"21-3259825"}],"active":true,"type":[{"coding":[{"system":"http://terminology.hl7.org/CodeSystem/organization-type","code":"pay","display":"Payer"}]}],"name":"Blue Cross Blue Shield of Texas","telecom":[{"system":"phone","value":"(+1) 972-766-6900"}],"address":[{"use":"billing","type":"postal","line":["P.O. Box 660044"],"city":"Dallas","state":"TX","postalCode":"75266-0044","country":"USA"}]},"request":{"method":"PUT","url":"Organization/84d624e0-1d4f-447a-bcd0-8c1a63859661"}},{"fullUrl":"https://madie.cms.gov/Practitioner/d3f19440-fe9c-478d-8725-ab9aa629a7f9","resource":{"resourceType":"Practitioner","id":"d3f19440-fe9c-478d-8725-ab9aa629a7f9","identifier":[{"system":"http://hl7.org/fhir/sid/us-npi","value":"123456"}],"name":[{"family":"Evil","prefix":["Dr"]}]},"request":{"method":"PUT","url":"Practitioner/d3f19440-fe9c-478d-8725-ab9aa629a7f9"}},{"fullUrl":"https://madie.cms.gov/MeasureReport/cb1a5fb2-3d0b-4d83-a55f-6d35167501c1","resource":{"resourceType":"MeasureReport","id":"cb1a5fb2-3d0b-4d83-a55f-6d35167501c1","meta":{"profile":["http://hl7.org/fhir/us/cqfmeasures/StructureDefinition/test-case-cqfm"]},"contained":[{"resourceType":"Parameters","id":"8fa5a34a-3d4a-46b3-b218-d82079d0dc5b-parameters","parameter":[{"name":"subject","valueString":"5e4231e6-dc8e-423e-9107-003da9d26548"}]}],"extension":[{"url":"http://hl7.org/fhir/StructureDefinition/cqf-inputParameters","valueReference":{"reference":"#8fa5a34a-3d4a-46b3-b218-d82079d0dc5b-parameters"}},{"url":"http://hl7.org/fhir/us/cqfmeasures/StructureDefinition/cqfm-testCaseDescription","valueMarkdown":"GCS not ordered and LMWH not adm due to medical reason <= 1 day after start of IP encounter\n"}],"modifierExtension":[{"url":"http://hl7.org/fhir/us/cqfmeasures/StructureDefinition/cqfm-isTestCase","valueBoolean":true}],"status":"complete","type":"individual","measure":"https://madie.cms.gov/Measure/CMS108FHIRVTEProphylaxis","period":{"start":"2026-01-01","end":"2026-12-31"},"group":[{"id":"Group_1","population":[{"id":"InitialPopulation_1","code":{"coding":[{"system":"http://terminology.hl7.org/CodeSystem/measure-population","code":"initial-population","display":"Initial Population"}]},"count":1},{"id":"Denominator_1","code":{"coding":[{"system":"http://terminology.hl7.org/CodeSystem/measure-population","code":"denominator","display":"Denominator"}]},"count":1},{"id":"DenominatorExclusion_1","code":{"coding":[{"system":"http://terminology.hl7.org/CodeSystem/measure-population","code":"denominator-exclusion","display":"Denominator Exclusion"}]},"count":0},{"id":"Numerator_1","code":{"coding":[{"system":"http://terminology.hl7.org/CodeSystem/measure-population","code":"numerator","display":"Numerator"}]},"count":1}],"measureScore":{"value":0.0}}],"evaluatedResource":[{"reference":"Patient/5e4231e6-dc8e-423e-9107-003da9d26548"},{"reference":"Encounter/b7198c72-ed9e-4daf-84a8-5be6f55cb68e"},{"reference":"Coverage/7406e09f-aa26-486d-9629-130cf4ca1071"},{"reference":"MedicationAdministration/7f50e472-0f8b-4878-8a2b-69a7011fe250"},{"reference":"ServiceRequest/9bd20d32-95ed-4494-a838-96203d0f2633"},{"reference":"Organization/84d624e0-1d4f-447a-bcd0-8c1a63859661"},{"reference":"Practitioner/d3f19440-fe9c-478d-8725-ab9aa629a7f9"}]},"request":{"method":"PUT","url":"MeasureReport/cb1a5fb2-3d0b-4d83-a55f-6d35167501c1"}}]},"request":{"method":"PUT","url":"Bundle/tests-5e4231e6-dc8e-423e-9107-003da9d26548-bundle"}}]}