{"resourceType":"Bundle","id":"tests-fb5c51ec-7a7f-4085-9782-97cf438f7247-bundle","type":"transaction","entry":[{"fullUrl":"Bundle/tests-fb5c51ec-7a7f-4085-9782-97cf438f7247-bundle","resource":{"resourceType":"Bundle","id":"tests-fb5c51ec-7a7f-4085-9782-97cf438f7247-bundle","type":"transaction","entry":[{"fullUrl":"https://madie.cms.gov/Patient/fb5c51ec-7a7f-4085-9782-97cf438f7247","resource":{"resourceType":"Patient","id":"fb5c51ec-7a7f-4085-9782-97cf438f7247","meta":{"profile":["http://hl7.org/fhir/us/qicore/StructureDefinition/qicore-patient"]},"text":{"status":"generated","div":"<div xmlns=\"http://www.w3.org/1999/xhtml\"><div class=\"hapiHeaderText\">CMO_EDvisit_EDendsOnEncStart <b>DENEXPASS </b></div><table class=\"hapiPropertyTable\"><tbody><tr><td>Identifier</td><td>560c2962ef197875484c3db716725045</td></tr><tr><td>Date of birth</td><td><span>02 January 1974</span></td></tr></tbody></table></div>"},"extension":[{"url":"http://hl7.org/fhir/us/core/StructureDefinition/us-core-race","extension":[{"url":"ombCategory","valueCoding":{"system":"urn:oid:2.16.840.1.113883.6.238","code":"1002-5","display":"American Indian or Alaska Native","userSelected":true}},{"url":"text","valueString":"American Indian or Alaska Native"}]},{"url":"http://hl7.org/fhir/us/core/StructureDefinition/us-core-ethnicity","extension":[{"url":"ombCategory","valueCoding":{"system":"urn:oid:2.16.840.1.113883.6.238","code":"2135-2","display":"Hispanic or Latino","userSelected":true}},{"url":"text","valueString":"Hispanic or Latino"}]}],"identifier":[{"type":{"coding":[{"system":"http://terminology.hl7.org/CodeSystem/v2-0203","code":"MR"}]},"system":"https://bonnie-fhir.healthit.gov/","value":"612e6abd02c62a011f2eb1c3"}],"active":true,"name":[{"use":"usual","family":"DENEXPass","given":["CMOEDvisitEDendsOnEncStart"]}],"gender":"male","birthDate":"1975-01-02"},"request":{"method":"PUT","url":"Patient/fb5c51ec-7a7f-4085-9782-97cf438f7247"}},{"fullUrl":"https://madie.cms.gov/Encounter/035a0564-2481-42e7-9e3c-8d58a4af1a4e","resource":{"resourceType":"Encounter","id":"035a0564-2481-42e7-9e3c-8d58a4af1a4e","meta":{"profile":["http://hl7.org/fhir/us/qicore/StructureDefinition/qicore-encounter"]},"status":"finished","class":{"system":"http://terminology.hl7.org/CodeSystem/v3-ActCode","code":"EMER","display":"emergency"},"type":[{"coding":[{"system":"http://snomed.info/sct","code":"4525004"}]}],"subject":{"reference":"Patient/fb5c51ec-7a7f-4085-9782-97cf438f7247"},"period":{"start":"2026-10-31T05:00:00.000+00:00","end":"2026-11-01T08:00:00.000+00:00"},"length":{"value":1,"unit":"days"}},"request":{"method":"PUT","url":"Encounter/035a0564-2481-42e7-9e3c-8d58a4af1a4e"}},{"fullUrl":"https://madie.cms.gov/Encounter/7c423f59-8b4a-4f6c-af68-76ca614db3f5","resource":{"resourceType":"Encounter","id":"7c423f59-8b4a-4f6c-af68-76ca614db3f5","meta":{"profile":["http://hl7.org/fhir/us/qicore/StructureDefinition/qicore-encounter"]},"status":"finished","class":{"system":"http://terminology.hl7.org/CodeSystem/v3-ActCode","code":"IMP","display":"inpatient encounter"},"type":[{"coding":[{"system":"http://snomed.info/sct","code":"8715000"}]}],"subject":{"reference":"Patient/fb5c51ec-7a7f-4085-9782-97cf438f7247"},"period":{"start":"2026-11-01T08:00:00.000+00:00","end":"2026-11-26T08:15:00.000+00:00"},"length":{"value":25,"unit":"days"}},"request":{"method":"PUT","url":"Encounter/7c423f59-8b4a-4f6c-af68-76ca614db3f5"}},{"fullUrl":"https://madie.cms.gov/ServiceRequest/1d5afab4-a6e0-4ff7-af83-fefdb764fb90","resource":{"resourceType":"ServiceRequest","id":"1d5afab4-a6e0-4ff7-af83-fefdb764fb90","meta":{"profile":["http://hl7.org/fhir/us/qicore/StructureDefinition/qicore-servicerequest"]},"status":"completed","intent":"order","code":{"coding":[{"system":"http://snomed.info/sct","code":"133918004"}]},"subject":{"reference":"Patient/fb5c51ec-7a7f-4085-9782-97cf438f7247"},"authoredOn":"2026-10-31T07:00:00.000+00:00"},"request":{"method":"PUT","url":"ServiceRequest/1d5afab4-a6e0-4ff7-af83-fefdb764fb90"}},{"fullUrl":"https://madie.cms.gov/Coverage/f4259db1-4c67-4874-a984-1e9d9f4a1cae","resource":{"resourceType":"Coverage","id":"f4259db1-4c67-4874-a984-1e9d9f4a1cae","status":"active","beneficiary":{"reference":"Patient/fb5c51ec-7a7f-4085-9782-97cf438f7247"},"period":{"start":"1975-01-02T08:00:00.000+00:00"},"payor":[{"reference":"Organization/1ed1f337-baeb-4232-984e-069146ee7c15"}]},"request":{"method":"PUT","url":"Coverage/f4259db1-4c67-4874-a984-1e9d9f4a1cae"}},{"fullUrl":"https://madie.cms.gov/Organization/1ed1f337-baeb-4232-984e-069146ee7c15","resource":{"resourceType":"Organization","id":"1ed1f337-baeb-4232-984e-069146ee7c15","meta":{"profile":["http://hl7.org/fhir/us/qicore/StructureDefinition/qicore-organization"]},"identifier":[{"use":"temp","system":"urn:oid:2.16.840.1.113883.4.4","value":"21-3259825"}],"active":true,"type":[{"coding":[{"system":"http://terminology.hl7.org/CodeSystem/organization-type","code":"pay","display":"Payer"}]}],"name":"Blue Cross Blue Shield of Texas","telecom":[{"system":"phone","value":"(+1) 972-766-6900"}],"address":[{"use":"billing","type":"postal","line":["P.O. Box 660044"],"city":"Dallas","state":"TX","postalCode":"75266-0044","country":"USA"}]},"request":{"method":"PUT","url":"Organization/1ed1f337-baeb-4232-984e-069146ee7c15"}},{"fullUrl":"https://madie.cms.gov/Practitioner/bf581aa9-7573-4180-80c7-d66426419d21","resource":{"resourceType":"Practitioner","id":"bf581aa9-7573-4180-80c7-d66426419d21","identifier":[{"system":"http://hl7.org/fhir/sid/us-npi","value":"123456"}],"name":[{"family":"Evil","prefix":["Dr"]}]},"request":{"method":"PUT","url":"Practitioner/bf581aa9-7573-4180-80c7-d66426419d21"}},{"fullUrl":"https://madie.cms.gov/MeasureReport/5cee81d5-3baa-4786-a33b-f7583a67747c","resource":{"resourceType":"MeasureReport","id":"5cee81d5-3baa-4786-a33b-f7583a67747c","meta":{"profile":["http://hl7.org/fhir/us/cqfmeasures/StructureDefinition/test-case-cqfm"]},"contained":[{"resourceType":"Parameters","id":"145ac9ba-1277-45e2-9155-8172ddfb3ead-parameters","parameter":[{"name":"subject","valueString":"fb5c51ec-7a7f-4085-9782-97cf438f7247"}]}],"extension":[{"url":"http://hl7.org/fhir/StructureDefinition/cqf-inputParameters","valueReference":{"reference":"#145ac9ba-1277-45e2-9155-8172ddfb3ead-parameters"}},{"url":"http://hl7.org/fhir/us/cqfmeasures/StructureDefinition/cqfm-testCaseDescription","valueMarkdown":"Comfort Measures Intervention Order - during ED and ED end time is concurrent with EncInp start time.\n"}],"modifierExtension":[{"url":"http://hl7.org/fhir/us/cqfmeasures/StructureDefinition/cqfm-isTestCase","valueBoolean":true}],"status":"complete","type":"individual","measure":"https://madie.cms.gov/Measure/CMS108FHIRVTEProphylaxis","period":{"start":"2026-01-01","end":"2026-12-31"},"group":[{"id":"Group_1","population":[{"id":"InitialPopulation_1","code":{"coding":[{"system":"http://terminology.hl7.org/CodeSystem/measure-population","code":"initial-population","display":"Initial Population"}]},"count":1},{"id":"Denominator_1","code":{"coding":[{"system":"http://terminology.hl7.org/CodeSystem/measure-population","code":"denominator","display":"Denominator"}]},"count":1},{"id":"DenominatorExclusion_1","code":{"coding":[{"system":"http://terminology.hl7.org/CodeSystem/measure-population","code":"denominator-exclusion","display":"Denominator Exclusion"}]},"count":1},{"id":"Numerator_1","code":{"coding":[{"system":"http://terminology.hl7.org/CodeSystem/measure-population","code":"numerator","display":"Numerator"}]},"count":0}],"measureScore":{"value":0.0}}],"evaluatedResource":[{"reference":"Patient/fb5c51ec-7a7f-4085-9782-97cf438f7247"},{"reference":"Encounter/035a0564-2481-42e7-9e3c-8d58a4af1a4e"},{"reference":"Encounter/7c423f59-8b4a-4f6c-af68-76ca614db3f5"},{"reference":"ServiceRequest/1d5afab4-a6e0-4ff7-af83-fefdb764fb90"},{"reference":"Coverage/f4259db1-4c67-4874-a984-1e9d9f4a1cae"},{"reference":"Organization/1ed1f337-baeb-4232-984e-069146ee7c15"},{"reference":"Practitioner/bf581aa9-7573-4180-80c7-d66426419d21"}]},"request":{"method":"PUT","url":"MeasureReport/5cee81d5-3baa-4786-a33b-f7583a67747c"}}]},"request":{"method":"PUT","url":"Bundle/tests-fb5c51ec-7a7f-4085-9782-97cf438f7247-bundle"}}]}