{"resourceType":"Bundle","id":"tests-9b105e54-ec6c-4235-a051-ee4da0ee4a40-bundle","type":"transaction","entry":[{"fullUrl":"Bundle/tests-9b105e54-ec6c-4235-a051-ee4da0ee4a40-bundle","resource":{"resourceType":"Bundle","id":"tests-9b105e54-ec6c-4235-a051-ee4da0ee4a40-bundle","type":"transaction","entry":[{"fullUrl":"https://madie.cms.gov/Patient/9b105e54-ec6c-4235-a051-ee4da0ee4a40","resource":{"resourceType":"Patient","id":"9b105e54-ec6c-4235-a051-ee4da0ee4a40","meta":{"profile":["http://hl7.org/fhir/us/qicore/StructureDefinition/qicore-patient"]},"text":{"status":"generated","div":"<div xmlns=\"http://www.w3.org/1999/xhtml\"><div class=\"hapiHeaderText\">DA_VFP_DayOfAdm_BfAdmDT <b>NUMERPASS </b></div><table class=\"hapiPropertyTable\"><tbody><tr><td>Identifier</td><td>af7fb96c408ff8f32d85ce64a563f18b</td></tr><tr><td>Date of birth</td><td><span>02 January 1974</span></td></tr></tbody></table></div>"},"extension":[{"url":"http://hl7.org/fhir/us/core/StructureDefinition/us-core-race","extension":[{"url":"ombCategory","valueCoding":{"system":"urn:oid:2.16.840.1.113883.6.238","code":"1002-5","display":"American Indian or Alaska Native","userSelected":true}},{"url":"text","valueString":"American Indian or Alaska Native"}]},{"url":"http://hl7.org/fhir/us/core/StructureDefinition/us-core-ethnicity","extension":[{"url":"ombCategory","valueCoding":{"system":"urn:oid:2.16.840.1.113883.6.238","code":"2135-2","display":"Hispanic or Latino","userSelected":true}},{"url":"text","valueString":"Hispanic or Latino"}]}],"identifier":[{"type":{"coding":[{"system":"http://terminology.hl7.org/CodeSystem/v2-0203","code":"MR"}]},"system":"https://bonnie-fhir.healthit.gov/","value":"612e6a9002c62a011f2ea5f6"}],"active":true,"name":[{"use":"usual","family":"NUMERPass","given":["DAVFPDayOfAdmBfAdmDT"]}],"gender":"male","birthDate":"1975-01-02"},"request":{"method":"PUT","url":"Patient/9b105e54-ec6c-4235-a051-ee4da0ee4a40"}},{"fullUrl":"https://madie.cms.gov/Encounter/970829f8-cdf5-48a0-bc19-d1a4774675b3","resource":{"resourceType":"Encounter","id":"970829f8-cdf5-48a0-bc19-d1a4774675b3","meta":{"profile":["http://hl7.org/fhir/us/qicore/StructureDefinition/qicore-encounter"]},"status":"finished","class":{"system":"http://terminology.hl7.org/CodeSystem/v3-ActCode","code":"IMP","display":"inpatient encounter"},"type":[{"coding":[{"system":"http://snomed.info/sct","code":"8715000"}]}],"subject":{"reference":"Patient/9b105e54-ec6c-4235-a051-ee4da0ee4a40"},"period":{"start":"2026-11-01T08:00:00.000+00:00","end":"2026-11-26T08:15:00.000+00:00"},"length":{"value":25,"unit":"days"}},"request":{"method":"PUT","url":"Encounter/970829f8-cdf5-48a0-bc19-d1a4774675b3"}},{"fullUrl":"https://madie.cms.gov/Coverage/a355ddbb-1a03-46ee-b308-34e5cfb9886f","resource":{"resourceType":"Coverage","id":"a355ddbb-1a03-46ee-b308-34e5cfb9886f","status":"active","beneficiary":{"reference":"Patient/9b105e54-ec6c-4235-a051-ee4da0ee4a40"},"period":{"start":"1975-01-02T08:00:00.000+00:00"},"payor":[{"reference":"Organization/cc5f32d8-c6d5-4584-884c-60977a34d18b"}]},"request":{"method":"PUT","url":"Coverage/a355ddbb-1a03-46ee-b308-34e5cfb9886f"}},{"fullUrl":"https://madie.cms.gov/Procedure/fb6daef5-d5b3-4629-a379-a66570214f80","resource":{"resourceType":"Procedure","id":"fb6daef5-d5b3-4629-a379-a66570214f80","meta":{"profile":["http://hl7.org/fhir/us/qicore/StructureDefinition/qicore-procedure"]},"extension":[{"url":"http://hl7.org/fhir/us/qicore/StructureDefinition/qicore-recorded","valueDateTime":"2013-11-19T13:35:00.000+00:00"}],"status":"completed","code":{"coding":[{"system":"http://snomed.info/sct","code":"18946005"}]},"subject":{"reference":"Patient/9b105e54-ec6c-4235-a051-ee4da0ee4a40"},"performedPeriod":{"start":"2026-11-01T09:00:00.000+00:00","end":"2026-11-01T09:15:00.000+00:00"}},"request":{"method":"PUT","url":"Procedure/fb6daef5-d5b3-4629-a379-a66570214f80"}},{"fullUrl":"https://madie.cms.gov/Procedure/174b7826-303d-4abc-b6ec-a818e9272f2b","resource":{"resourceType":"Procedure","id":"174b7826-303d-4abc-b6ec-a818e9272f2b","meta":{"profile":["http://hl7.org/fhir/us/qicore/StructureDefinition/qicore-procedure"]},"extension":[{"url":"http://hl7.org/fhir/us/qicore/StructureDefinition/qicore-recorded","valueDateTime":"2013-11-01T13:35:00.000+00:00"}],"status":"completed","code":{"coding":[{"system":"http://snomed.info/sct","code":"442410008","display":"Application of venous foot pump (procedure)"}]},"subject":{"reference":"Patient/9b105e54-ec6c-4235-a051-ee4da0ee4a40"},"performedDateTime":"2026-11-02T07:00:00.000+00:00","usedCode":[{"coding":[{"system":"http://snomed.info/sct","code":"442023007","display":"Venous foot pump, device (physical object)","userSelected":true}]}]},"request":{"method":"PUT","url":"Procedure/174b7826-303d-4abc-b6ec-a818e9272f2b"}},{"fullUrl":"https://madie.cms.gov/Organization/cc5f32d8-c6d5-4584-884c-60977a34d18b","resource":{"resourceType":"Organization","id":"cc5f32d8-c6d5-4584-884c-60977a34d18b","meta":{"profile":["http://hl7.org/fhir/us/qicore/StructureDefinition/qicore-organization"]},"identifier":[{"use":"temp","system":"urn:oid:2.16.840.1.113883.4.4","value":"21-3259825"}],"active":true,"type":[{"coding":[{"system":"http://terminology.hl7.org/CodeSystem/organization-type","code":"pay","display":"Payer"}]}],"name":"Blue Cross Blue Shield of Texas","telecom":[{"system":"phone","value":"(+1) 972-766-6900"}],"address":[{"use":"billing","type":"postal","line":["P.O. Box 660044"],"city":"Dallas","state":"TX","postalCode":"75266-0044","country":"USA"}]},"request":{"method":"PUT","url":"Organization/cc5f32d8-c6d5-4584-884c-60977a34d18b"}},{"fullUrl":"https://madie.cms.gov/Practitioner/4e940ace-cdc7-4e4d-8227-77cc6dd48e0d","resource":{"resourceType":"Practitioner","id":"4e940ace-cdc7-4e4d-8227-77cc6dd48e0d","identifier":[{"system":"http://hl7.org/fhir/sid/us-npi","value":"123456"}],"name":[{"family":"Evil","prefix":["Dr"]}]},"request":{"method":"PUT","url":"Practitioner/4e940ace-cdc7-4e4d-8227-77cc6dd48e0d"}},{"fullUrl":"https://madie.cms.gov/MeasureReport/4e5a705c-2bde-4a8f-8535-66ec01d058a2","resource":{"resourceType":"MeasureReport","id":"4e5a705c-2bde-4a8f-8535-66ec01d058a2","meta":{"profile":["http://hl7.org/fhir/us/cqfmeasures/StructureDefinition/test-case-cqfm"]},"contained":[{"resourceType":"Parameters","id":"b19d53d1-6aba-4fa8-8fe2-12788e9d204d-parameters","parameter":[{"name":"subject","valueString":"9b105e54-ec6c-4235-a051-ee4da0ee4a40"}]}],"extension":[{"url":"http://hl7.org/fhir/StructureDefinition/cqf-inputParameters","valueReference":{"reference":"#b19d53d1-6aba-4fa8-8fe2-12788e9d204d-parameters"}},{"url":"http://hl7.org/fhir/us/cqfmeasures/StructureDefinition/cqfm-testCaseDescription","valueMarkdown":"vfp applied on the same day of admission date but it was before adm time"}],"modifierExtension":[{"url":"http://hl7.org/fhir/us/cqfmeasures/StructureDefinition/cqfm-isTestCase","valueBoolean":true}],"status":"complete","type":"individual","measure":"https://madie.cms.gov/Measure/CMS108FHIRVTEProphylaxis","period":{"start":"2026-01-01","end":"2026-12-31"},"group":[{"id":"Group_1","population":[{"id":"InitialPopulation_1","code":{"coding":[{"system":"http://terminology.hl7.org/CodeSystem/measure-population","code":"initial-population","display":"Initial Population"}]},"count":1},{"id":"Denominator_1","code":{"coding":[{"system":"http://terminology.hl7.org/CodeSystem/measure-population","code":"denominator","display":"Denominator"}]},"count":1},{"id":"DenominatorExclusion_1","code":{"coding":[{"system":"http://terminology.hl7.org/CodeSystem/measure-population","code":"denominator-exclusion","display":"Denominator Exclusion"}]},"count":0},{"id":"Numerator_1","code":{"coding":[{"system":"http://terminology.hl7.org/CodeSystem/measure-population","code":"numerator","display":"Numerator"}]},"count":1}],"measureScore":{"value":0.0}}],"evaluatedResource":[{"reference":"Patient/9b105e54-ec6c-4235-a051-ee4da0ee4a40"},{"reference":"Encounter/970829f8-cdf5-48a0-bc19-d1a4774675b3"},{"reference":"Coverage/a355ddbb-1a03-46ee-b308-34e5cfb9886f"},{"reference":"Procedure/fb6daef5-d5b3-4629-a379-a66570214f80"},{"reference":"Procedure/174b7826-303d-4abc-b6ec-a818e9272f2b"},{"reference":"Organization/cc5f32d8-c6d5-4584-884c-60977a34d18b"},{"reference":"Practitioner/4e940ace-cdc7-4e4d-8227-77cc6dd48e0d"}]},"request":{"method":"PUT","url":"MeasureReport/4e5a705c-2bde-4a8f-8535-66ec01d058a2"}}]},"request":{"method":"PUT","url":"Bundle/tests-9b105e54-ec6c-4235-a051-ee4da0ee4a40-bundle"}}]}