{"resourceType":"Bundle","id":"tests-e193ed34-00f9-4da1-b347-20d720b30517-bundle","type":"transaction","entry":[{"fullUrl":"Bundle/tests-e193ed34-00f9-4da1-b347-20d720b30517-bundle","resource":{"resourceType":"Bundle","id":"tests-e193ed34-00f9-4da1-b347-20d720b30517-bundle","type":"transaction","entry":[{"fullUrl":"https://madie.cms.gov/Patient/e193ed34-00f9-4da1-b347-20d720b30517","resource":{"resourceType":"Patient","id":"e193ed34-00f9-4da1-b347-20d720b30517","meta":{"profile":["http://hl7.org/fhir/us/qicore/StructureDefinition/qicore-patient"]},"text":{"status":"generated","div":"<div xmlns=\"http://www.w3.org/1999/xhtml\"><div class=\"hapiHeaderText\">ICUDayAfterAdmit <b>DENEXPASS </b></div><table class=\"hapiPropertyTable\"><tbody><tr><td>Identifier</td><td>11bb5362fa7c7b63061d0c716b7b8ddb</td></tr><tr><td>Date of birth</td><td><span>02 January 1974</span></td></tr></tbody></table></div>"},"extension":[{"url":"http://hl7.org/fhir/us/core/StructureDefinition/us-core-race","extension":[{"url":"ombCategory","valueCoding":{"system":"urn:oid:2.16.840.1.113883.6.238","code":"1002-5","display":"American Indian or Alaska Native","userSelected":true}},{"url":"text","valueString":"American Indian or Alaska Native"}]},{"url":"http://hl7.org/fhir/us/core/StructureDefinition/us-core-ethnicity","extension":[{"url":"ombCategory","valueCoding":{"system":"urn:oid:2.16.840.1.113883.6.238","code":"2135-2","display":"Hispanic or Latino","userSelected":true}},{"url":"text","valueString":"Hispanic or Latino"}]}],"identifier":[{"type":{"coding":[{"system":"http://terminology.hl7.org/CodeSystem/v2-0203","code":"MR"}]},"system":"https://bonnie-fhir.healthit.gov/","value":"612e6b3a02c62a011f2ecf6d"}],"active":true,"name":[{"use":"usual","family":"DENEXPass","given":["ICUDayAfterAdmit"]}],"gender":"male","birthDate":"1975-01-02"},"request":{"method":"PUT","url":"Patient/e193ed34-00f9-4da1-b347-20d720b30517"}},{"fullUrl":"https://madie.cms.gov/Encounter/8916ec5e-9e14-4834-a42f-f778b7fd3856","resource":{"resourceType":"Encounter","id":"8916ec5e-9e14-4834-a42f-f778b7fd3856","meta":{"profile":["http://hl7.org/fhir/us/qicore/StructureDefinition/qicore-encounter"]},"status":"finished","class":{"system":"http://terminology.hl7.org/CodeSystem/v3-ActCode","code":"IMP","display":"inpatient encounter"},"type":[{"coding":[{"system":"http://snomed.info/sct","code":"8715000"}]}],"subject":{"reference":"Patient/e193ed34-00f9-4da1-b347-20d720b30517"},"period":{"start":"2026-11-01T08:00:00.000+00:00","end":"2026-11-26T08:15:00.000+00:00"},"length":{"value":25.0,"unit":"days"},"location":[{"location":{"reference":"Location/78959b86-c0d0-4df5-ab84-a3ca9358ef52"},"period":{"start":"2026-11-02T08:30:00.000+00:00","end":"2026-11-03T18:15:00.000+00:00"}}]},"request":{"method":"PUT","url":"Encounter/8916ec5e-9e14-4834-a42f-f778b7fd3856"}},{"fullUrl":"https://madie.cms.gov/Coverage/7cab7b17-07dd-45bf-8ad3-50f41d3f554c","resource":{"resourceType":"Coverage","id":"7cab7b17-07dd-45bf-8ad3-50f41d3f554c","status":"active","beneficiary":{"reference":"Patient/e193ed34-00f9-4da1-b347-20d720b30517"},"period":{"start":"1975-01-02T08:00:00.000+00:00"},"payor":[{"reference":"Organization/136650aa-93a6-4f6f-a42e-50bdb5c0c5da"}]},"request":{"method":"PUT","url":"Coverage/7cab7b17-07dd-45bf-8ad3-50f41d3f554c"}},{"fullUrl":"https://madie.cms.gov/Location/78959b86-c0d0-4df5-ab84-a3ca9358ef52","resource":{"resourceType":"Location","id":"78959b86-c0d0-4df5-ab84-a3ca9358ef52","meta":{"profile":["http://hl7.org/fhir/us/qicore/StructureDefinition/qicore-location"]},"identifier":[{"use":"usual","system":"http://exampleoflocation.com","value":"B1-S.F2"}],"name":"Medical Surgical East, first floor","type":[{"coding":[{"system":"https://www.cdc.gov/nhsn/cdaportal/terminology/codesystem/hsloc.html","version":"2020","code":"1025-6","display":"Trauma Critical Care","userSelected":true}]}]},"request":{"method":"PUT","url":"Location/78959b86-c0d0-4df5-ab84-a3ca9358ef52"}},{"fullUrl":"https://madie.cms.gov/Organization/136650aa-93a6-4f6f-a42e-50bdb5c0c5da","resource":{"resourceType":"Organization","id":"136650aa-93a6-4f6f-a42e-50bdb5c0c5da","meta":{"profile":["http://hl7.org/fhir/us/qicore/StructureDefinition/qicore-organization"]},"identifier":[{"use":"temp","system":"urn:oid:2.16.840.1.113883.4.4","value":"21-3259825"}],"active":true,"type":[{"coding":[{"system":"http://terminology.hl7.org/CodeSystem/organization-type","code":"pay","display":"Payer"}]}],"name":"Blue Cross Blue Shield of Texas","telecom":[{"system":"phone","value":"(+1) 972-766-6900"}],"address":[{"use":"billing","type":"postal","line":["P.O. Box 660044"],"city":"Dallas","state":"TX","postalCode":"75266-0044","country":"USA"}]},"request":{"method":"PUT","url":"Organization/136650aa-93a6-4f6f-a42e-50bdb5c0c5da"}},{"fullUrl":"https://madie.cms.gov/Practitioner/bae74a79-425f-481b-9d8e-e683586d1929","resource":{"resourceType":"Practitioner","id":"bae74a79-425f-481b-9d8e-e683586d1929","identifier":[{"system":"http://hl7.org/fhir/sid/us-npi","value":"123456"}],"name":[{"family":"Evil","prefix":["Dr"]}]},"request":{"method":"PUT","url":"Practitioner/bae74a79-425f-481b-9d8e-e683586d1929"}},{"fullUrl":"https://madie.cms.gov/MeasureReport/a212b0b4-a0f5-41a3-9399-e200371270cf","resource":{"resourceType":"MeasureReport","id":"a212b0b4-a0f5-41a3-9399-e200371270cf","meta":{"profile":["http://hl7.org/fhir/us/cqfmeasures/StructureDefinition/test-case-cqfm"]},"contained":[{"resourceType":"Parameters","id":"9210f0ac-9ad3-4db7-ab02-b275eca9ec89-parameters","parameter":[{"name":"subject","valueString":"e193ed34-00f9-4da1-b347-20d720b30517"}]}],"extension":[{"url":"http://hl7.org/fhir/StructureDefinition/cqf-inputParameters","valueReference":{"reference":"#9210f0ac-9ad3-4db7-ab02-b275eca9ec89-parameters"}},{"url":"http://hl7.org/fhir/us/cqfmeasures/StructureDefinition/cqfm-testCaseDescription","valueMarkdown":"ICU admission with LOS >= 1 day; = 1 day starts after or concurrent with start of IP encounter\n"}],"modifierExtension":[{"url":"http://hl7.org/fhir/us/cqfmeasures/StructureDefinition/cqfm-isTestCase","valueBoolean":true}],"status":"complete","type":"individual","measure":"https://madie.cms.gov/Measure/CMS108FHIRVTEProphylaxis","period":{"start":"2026-01-01","end":"2026-12-31"},"group":[{"id":"Group_1","population":[{"id":"InitialPopulation_1","code":{"coding":[{"system":"http://terminology.hl7.org/CodeSystem/measure-population","code":"initial-population","display":"Initial Population"}]},"count":1},{"id":"Denominator_1","code":{"coding":[{"system":"http://terminology.hl7.org/CodeSystem/measure-population","code":"denominator","display":"Denominator"}]},"count":1},{"id":"DenominatorExclusion_1","code":{"coding":[{"system":"http://terminology.hl7.org/CodeSystem/measure-population","code":"denominator-exclusion","display":"Denominator Exclusion"}]},"count":1},{"id":"Numerator_1","code":{"coding":[{"system":"http://terminology.hl7.org/CodeSystem/measure-population","code":"numerator","display":"Numerator"}]},"count":0}],"measureScore":{"value":0.0}}],"evaluatedResource":[{"reference":"Patient/e193ed34-00f9-4da1-b347-20d720b30517"},{"reference":"Encounter/8916ec5e-9e14-4834-a42f-f778b7fd3856"},{"reference":"Coverage/7cab7b17-07dd-45bf-8ad3-50f41d3f554c"},{"reference":"Location/78959b86-c0d0-4df5-ab84-a3ca9358ef52"},{"reference":"Organization/136650aa-93a6-4f6f-a42e-50bdb5c0c5da"},{"reference":"Practitioner/bae74a79-425f-481b-9d8e-e683586d1929"}]},"request":{"method":"PUT","url":"MeasureReport/a212b0b4-a0f5-41a3-9399-e200371270cf"}}]},"request":{"method":"PUT","url":"Bundle/tests-e193ed34-00f9-4da1-b347-20d720b30517-bundle"}}]}