{"resourceType":"Bundle","id":"tests-ce7eb418-e867-4474-af7b-b185145e6abe-bundle","type":"transaction","entry":[{"fullUrl":"Bundle/tests-ce7eb418-e867-4474-af7b-b185145e6abe-bundle","resource":{"resourceType":"Bundle","id":"tests-ce7eb418-e867-4474-af7b-b185145e6abe-bundle","type":"transaction","entry":[{"fullUrl":"https://madie.cms.gov/Patient/ce7eb418-e867-4474-af7b-b185145e6abe","resource":{"resourceType":"Patient","id":"ce7eb418-e867-4474-af7b-b185145e6abe","meta":{"profile":["http://hl7.org/fhir/us/qicore/StructureDefinition/qicore-patient"]},"text":{"status":"generated","div":"<div xmlns=\"http://www.w3.org/1999/xhtml\"><div class=\"hapiHeaderText\">MA_ThrombDT23HrAfterAnes <b>NUMERPASS </b></div><table class=\"hapiPropertyTable\"><tbody><tr><td>Identifier</td><td>949829b80a2718d749070ce8b95b6a8d</td></tr><tr><td>Date of birth</td><td><span>02 January 1974</span></td></tr></tbody></table></div>"},"extension":[{"url":"http://hl7.org/fhir/us/core/StructureDefinition/us-core-race","extension":[{"url":"ombCategory","valueCoding":{"system":"urn:oid:2.16.840.1.113883.6.238","code":"1002-5","display":"American Indian or Alaska Native","userSelected":true}},{"url":"text","valueString":"American Indian or Alaska Native"}]},{"url":"http://hl7.org/fhir/us/core/StructureDefinition/us-core-ethnicity","extension":[{"url":"ombCategory","valueCoding":{"system":"urn:oid:2.16.840.1.113883.6.238","code":"2135-2","display":"Hispanic or Latino","userSelected":true}},{"url":"text","valueString":"Hispanic or Latino"}]}],"identifier":[{"type":{"coding":[{"system":"http://terminology.hl7.org/CodeSystem/v2-0203","code":"MR"}]},"system":"https://bonnie-fhir.healthit.gov/","value":"612e6a9b02c62a011f2ea8e2"}],"active":true,"name":[{"use":"usual","family":"NUMERPass","given":["MAThrombDT23HrAfterAnes"]}],"gender":"male","birthDate":"1975-01-02"},"request":{"method":"PUT","url":"Patient/ce7eb418-e867-4474-af7b-b185145e6abe"}},{"fullUrl":"https://madie.cms.gov/Encounter/1096fa83-8a7e-4271-83ab-19901108787a","resource":{"resourceType":"Encounter","id":"1096fa83-8a7e-4271-83ab-19901108787a","meta":{"profile":["http://hl7.org/fhir/us/qicore/StructureDefinition/qicore-encounter"]},"status":"finished","class":{"system":"http://terminology.hl7.org/CodeSystem/v3-ActCode","code":"IMP","display":"inpatient encounter"},"type":[{"coding":[{"system":"http://snomed.info/sct","code":"8715000"}]}],"subject":{"reference":"Patient/ce7eb418-e867-4474-af7b-b185145e6abe"},"period":{"start":"2026-11-01T08:00:00.000+00:00","end":"2026-11-26T08:15:00.000+00:00"},"length":{"value":25,"unit":"days"}},"request":{"method":"PUT","url":"Encounter/1096fa83-8a7e-4271-83ab-19901108787a"}},{"fullUrl":"https://madie.cms.gov/Coverage/4da165e0-7edf-439d-a7f8-dc3b2f13a774","resource":{"resourceType":"Coverage","id":"4da165e0-7edf-439d-a7f8-dc3b2f13a774","status":"active","beneficiary":{"reference":"Patient/ce7eb418-e867-4474-af7b-b185145e6abe"},"period":{"start":"1975-01-02T08:00:00.000+00:00"},"payor":[{"reference":"Organization/6e12d5b0-6ea3-46f9-b998-ad9ab0363866"}]},"request":{"method":"PUT","url":"Coverage/4da165e0-7edf-439d-a7f8-dc3b2f13a774"}},{"fullUrl":"https://madie.cms.gov/MedicationAdministration/c257ceb5-9500-4017-befd-208eda9946b1","resource":{"resourceType":"MedicationAdministration","id":"c257ceb5-9500-4017-befd-208eda9946b1","meta":{"profile":["http://hl7.org/fhir/us/qicore/StructureDefinition/qicore-medicationadministration"]},"status":"completed","medicationCodeableConcept":{"coding":[{"system":"http://www.nlm.nih.gov/research/umls/rxnorm","code":"308351"}]},"subject":{"reference":"Patient/ce7eb418-e867-4474-af7b-b185145e6abe"},"effectiveDateTime":"2026-11-03T09:00:00.000+00:00"},"request":{"method":"PUT","url":"MedicationAdministration/c257ceb5-9500-4017-befd-208eda9946b1"}},{"fullUrl":"https://madie.cms.gov/Procedure/a2815286-96fd-40b7-83dd-35ceff276723","resource":{"resourceType":"Procedure","id":"a2815286-96fd-40b7-83dd-35ceff276723","meta":{"profile":["http://hl7.org/fhir/us/qicore/StructureDefinition/qicore-procedure"]},"extension":[{"url":"http://hl7.org/fhir/us/qicore/StructureDefinition/qicore-recorded","valueDateTime":"2013-11-03T13:35:00.000+00:00"}],"status":"completed","code":{"coding":[{"system":"http://snomed.info/sct","code":"18946005"}]},"subject":{"reference":"Patient/ce7eb418-e867-4474-af7b-b185145e6abe"},"performedPeriod":{"start":"2026-11-02T09:00:00.000+00:00","end":"2026-11-02T10:15:00.000+00:00"}},"request":{"method":"PUT","url":"Procedure/a2815286-96fd-40b7-83dd-35ceff276723"}},{"fullUrl":"https://madie.cms.gov/Organization/6e12d5b0-6ea3-46f9-b998-ad9ab0363866","resource":{"resourceType":"Organization","id":"6e12d5b0-6ea3-46f9-b998-ad9ab0363866","meta":{"profile":["http://hl7.org/fhir/us/qicore/StructureDefinition/qicore-organization"]},"identifier":[{"use":"temp","system":"urn:oid:2.16.840.1.113883.4.4","value":"21-3259825"}],"active":true,"type":[{"coding":[{"system":"http://terminology.hl7.org/CodeSystem/organization-type","code":"pay","display":"Payer"}]}],"name":"Blue Cross Blue Shield of Texas","telecom":[{"system":"phone","value":"(+1) 972-766-6900"}],"address":[{"use":"billing","type":"postal","line":["P.O. Box 660044"],"city":"Dallas","state":"TX","postalCode":"75266-0044","country":"USA"}]},"request":{"method":"PUT","url":"Organization/6e12d5b0-6ea3-46f9-b998-ad9ab0363866"}},{"fullUrl":"https://madie.cms.gov/Practitioner/36710682-d6fd-4f69-8d9a-1a38660b53b0","resource":{"resourceType":"Practitioner","id":"36710682-d6fd-4f69-8d9a-1a38660b53b0","identifier":[{"system":"http://hl7.org/fhir/sid/us-npi","value":"123456"}],"name":[{"family":"Evil","prefix":["Dr"]}]},"request":{"method":"PUT","url":"Practitioner/36710682-d6fd-4f69-8d9a-1a38660b53b0"}},{"fullUrl":"https://madie.cms.gov/MeasureReport/f74276d2-2e54-44f0-bdfa-9be8e6a5ed2e","resource":{"resourceType":"MeasureReport","id":"f74276d2-2e54-44f0-bdfa-9be8e6a5ed2e","meta":{"profile":["http://hl7.org/fhir/us/cqfmeasures/StructureDefinition/test-case-cqfm"]},"contained":[{"resourceType":"Parameters","id":"74797899-9206-454c-b9d2-5972dc1eaf71-parameters","parameter":[{"name":"subject","valueString":"ce7eb418-e867-4474-af7b-b185145e6abe"}]}],"extension":[{"url":"http://hl7.org/fhir/StructureDefinition/cqf-inputParameters","valueReference":{"reference":"#74797899-9206-454c-b9d2-5972dc1eaf71-parameters"}},{"url":"http://hl7.org/fhir/us/cqfmeasures/StructureDefinition/cqfm-testCaseDescription","valueMarkdown":"direct thrombin inhibitor administered = 1 day after end of anesthesia\n"}],"modifierExtension":[{"url":"http://hl7.org/fhir/us/cqfmeasures/StructureDefinition/cqfm-isTestCase","valueBoolean":true}],"status":"complete","type":"individual","measure":"https://madie.cms.gov/Measure/CMS108FHIRVTEProphylaxis","period":{"start":"2026-01-01","end":"2026-12-31"},"group":[{"id":"Group_1","population":[{"id":"InitialPopulation_1","code":{"coding":[{"system":"http://terminology.hl7.org/CodeSystem/measure-population","code":"initial-population","display":"Initial Population"}]},"count":1},{"id":"Denominator_1","code":{"coding":[{"system":"http://terminology.hl7.org/CodeSystem/measure-population","code":"denominator","display":"Denominator"}]},"count":1},{"id":"DenominatorExclusion_1","code":{"coding":[{"system":"http://terminology.hl7.org/CodeSystem/measure-population","code":"denominator-exclusion","display":"Denominator Exclusion"}]},"count":0},{"id":"Numerator_1","code":{"coding":[{"system":"http://terminology.hl7.org/CodeSystem/measure-population","code":"numerator","display":"Numerator"}]},"count":1}],"measureScore":{"value":0.0}}],"evaluatedResource":[{"reference":"Patient/ce7eb418-e867-4474-af7b-b185145e6abe"},{"reference":"Encounter/1096fa83-8a7e-4271-83ab-19901108787a"},{"reference":"Coverage/4da165e0-7edf-439d-a7f8-dc3b2f13a774"},{"reference":"MedicationAdministration/c257ceb5-9500-4017-befd-208eda9946b1"},{"reference":"Procedure/a2815286-96fd-40b7-83dd-35ceff276723"},{"reference":"Organization/6e12d5b0-6ea3-46f9-b998-ad9ab0363866"},{"reference":"Practitioner/36710682-d6fd-4f69-8d9a-1a38660b53b0"}]},"request":{"method":"PUT","url":"MeasureReport/f74276d2-2e54-44f0-bdfa-9be8e6a5ed2e"}}]},"request":{"method":"PUT","url":"Bundle/tests-ce7eb418-e867-4474-af7b-b185145e6abe-bundle"}}]}