{"resourceType":"Bundle","id":"tests-4e39ae5f-5b8a-4bc2-a550-002d1ba16c33-bundle","type":"transaction","entry":[{"fullUrl":"Bundle/tests-4e39ae5f-5b8a-4bc2-a550-002d1ba16c33-bundle","resource":{"resourceType":"Bundle","id":"tests-4e39ae5f-5b8a-4bc2-a550-002d1ba16c33-bundle","type":"transaction","entry":[{"fullUrl":"https://madie.cms.gov/Patient/4e39ae5f-5b8a-4bc2-a550-002d1ba16c33","resource":{"resourceType":"Patient","id":"4e39ae5f-5b8a-4bc2-a550-002d1ba16c33","meta":{"profile":["http://hl7.org/fhir/us/qicore/StructureDefinition/qicore-patient"]},"text":{"status":"generated","div":"<div xmlns=\"http://www.w3.org/1999/xhtml\"><div class=\"hapiHeaderText\">SCIP_HipFxRank2 <b>DENEXPASS </b></div><table class=\"hapiPropertyTable\"><tbody><tr><td>Identifier</td><td>66c70c125db369967b4b164e75338304</td></tr><tr><td>Date of birth</td><td><span>01 September 2000</span></td></tr></tbody></table></div>"},"extension":[{"url":"http://hl7.org/fhir/us/core/StructureDefinition/us-core-race","extension":[{"url":"ombCategory","valueCoding":{"system":"urn:oid:2.16.840.1.113883.6.238","code":"1002-5","display":"American Indian or Alaska Native","userSelected":true}},{"url":"text","valueString":"American Indian or Alaska Native"}]},{"url":"http://hl7.org/fhir/us/core/StructureDefinition/us-core-ethnicity","extension":[{"url":"ombCategory","valueCoding":{"system":"urn:oid:2.16.840.1.113883.6.238","code":"2135-2","display":"Hispanic or Latino","userSelected":true}},{"url":"text","valueString":"Hispanic or Latino"}]}],"identifier":[{"type":{"coding":[{"system":"http://terminology.hl7.org/CodeSystem/v2-0203","code":"MR"}]},"system":"https://bonnie-fhir.healthit.gov/","value":"612e6b0202c62a011f2ec156"}],"active":true,"name":[{"use":"usual","family":"DENEXPass ","given":["SCIP_HipFxRank2"]}],"gender":"male","birthDate":"2001-09-01"},"request":{"method":"PUT","url":"Patient/4e39ae5f-5b8a-4bc2-a550-002d1ba16c33"}},{"fullUrl":"https://madie.cms.gov/Encounter/f38a49f9-58a0-4674-b23d-f7406a512718","resource":{"resourceType":"Encounter","id":"f38a49f9-58a0-4674-b23d-f7406a512718","meta":{"profile":["http://hl7.org/fhir/us/qicore/StructureDefinition/qicore-encounter"]},"extension":[{"url":"http://hl7.org/fhir/us/qicore/StructureDefinition/qicore-encounter-procedure","extension":[{"url":"type","valueCodeableConcept":{"coding":[{"system":"http://www.cms.gov/Medicare/Coding/ICD10","code":"0SQ90ZZ"}]}},{"url":"rank","valuePositiveInt":2},{"url":"procedure","valueReference":{"reference":"Procedure/efd1a445-5efb-4c7e-80a2-7318128e0dae"}}]}],"status":"finished","class":{"system":"http://terminology.hl7.org/CodeSystem/v3-ActCode","code":"IMP","display":"inpatient encounter"},"type":[{"coding":[{"system":"http://snomed.info/sct","code":"183452005"}]}],"subject":{"reference":"Patient/4e39ae5f-5b8a-4bc2-a550-002d1ba16c33"},"period":{"start":"2026-09-02T06:00:00.000+00:00","end":"2026-12-31T12:59:00.000+00:00"},"length":{"value":120,"unit":"days"}},"request":{"method":"PUT","url":"Encounter/f38a49f9-58a0-4674-b23d-f7406a512718"}},{"fullUrl":"https://madie.cms.gov/Coverage/220cfaa1-f927-4e02-867a-029dc2efd8da","resource":{"resourceType":"Coverage","id":"220cfaa1-f927-4e02-867a-029dc2efd8da","status":"active","beneficiary":{"reference":"Patient/4e39ae5f-5b8a-4bc2-a550-002d1ba16c33"},"period":{"start":"2001-09-01T08:00:00.000+00:00"},"payor":[{"reference":"Organization/a0b88818-73e2-499c-b364-4f0c76ab2b5b"}]},"request":{"method":"PUT","url":"Coverage/220cfaa1-f927-4e02-867a-029dc2efd8da"}},{"fullUrl":"https://madie.cms.gov/Procedure/efd1a445-5efb-4c7e-80a2-7318128e0dae","resource":{"resourceType":"Procedure","id":"efd1a445-5efb-4c7e-80a2-7318128e0dae","meta":{"profile":["http://hl7.org/fhir/us/qicore/StructureDefinition/qicore-procedure"]},"status":"completed","code":{"coding":[{"system":"http://www.cms.gov/Medicare/Coding/ICD10","code":"0SQ90ZZ"}]},"subject":{"reference":"Patient/4e39ae5f-5b8a-4bc2-a550-002d1ba16c33"},"performedPeriod":{"start":"2026-09-02T09:00:00.000+00:00","end":"2026-09-02T12:59:00.000+00:00"}},"request":{"method":"PUT","url":"Procedure/efd1a445-5efb-4c7e-80a2-7318128e0dae"}},{"fullUrl":"https://madie.cms.gov/claim/5ca62962b8484628b8de1ec5","resource":{"resourceType":"Claim","id":"5ca62962b8484628b8de1ec5","meta":{"profile":["http://hl7.org/fhir/us/qicore/StructureDefinition/qicore-claim"]},"status":"active","type":{"coding":[{"system":"http://terminology.hl7.org/CodeSystem/claim-type","code":"institutional"}]},"use":"claim","patient":{"reference":"Patient/4e39ae5f-5b8a-4bc2-a550-002d1ba16c33"},"created":"2026-12-01","provider":{"reference":"Practitioner/147db8e5-163f-4710-b47f-3c399f91161a"},"priority":{"coding":[{"system":"http://terminology.hl7.org/CodeSystem/processpriority","code":"normal"}]},"procedure":[{"sequence":1,"type":[{"coding":[{"system":"http://terminology.hl7.org/CodeSystem/ex-procedure-type","code":"secondary"}]}],"procedureCodeableConcept":{"coding":[{"system":"http://www.cms.gov/Medicare/Coding/ICD10","code":"0SQ90ZZ"}]}}],"insurance":[{"sequence":1,"focal":true,"coverage":{"reference":"Coverage/5fa041661c76ba66d995937"}}],"item":[{"sequence":1,"procedureSequence":[1],"productOrService":{"coding":[{"system":"http://terminology.hl7.org/CodeSystem/ex-USCLS","code":"99555"}]},"encounter":[{"reference":"Encounter/f38a49f9-58a0-4674-b23d-f7406a512718"}]}]},"request":{"method":"PUT","url":"Claim/5ca62962b8484628b8de1ec5"}},{"fullUrl":"https://madie.cms.gov/Organization/a0b88818-73e2-499c-b364-4f0c76ab2b5b","resource":{"resourceType":"Organization","id":"a0b88818-73e2-499c-b364-4f0c76ab2b5b","meta":{"profile":["http://hl7.org/fhir/us/qicore/StructureDefinition/qicore-organization"]},"identifier":[{"use":"temp","system":"urn:oid:2.16.840.1.113883.4.4","value":"21-3259825"}],"active":true,"type":[{"coding":[{"system":"http://terminology.hl7.org/CodeSystem/organization-type","code":"pay","display":"Payer"}]}],"name":"Blue Cross Blue Shield of Texas","telecom":[{"system":"phone","value":"(+1) 972-766-6900"}],"address":[{"use":"billing","type":"postal","line":["P.O. Box 660044"],"city":"Dallas","state":"TX","postalCode":"75266-0044","country":"USA"}]},"request":{"method":"PUT","url":"Organization/a0b88818-73e2-499c-b364-4f0c76ab2b5b"}},{"fullUrl":"https://madie.cms.gov/Practitioner/147db8e5-163f-4710-b47f-3c399f91161a","resource":{"resourceType":"Practitioner","id":"147db8e5-163f-4710-b47f-3c399f91161a","identifier":[{"system":"http://hl7.org/fhir/sid/us-npi","value":"123456"}],"name":[{"family":"Evil","prefix":["Dr"]}]},"request":{"method":"PUT","url":"Practitioner/147db8e5-163f-4710-b47f-3c399f91161a"}},{"fullUrl":"https://madie.cms.gov/MeasureReport/851254f2-a19c-40be-a721-2c82daab1d6f","resource":{"resourceType":"MeasureReport","id":"851254f2-a19c-40be-a721-2c82daab1d6f","meta":{"profile":["http://hl7.org/fhir/us/cqfmeasures/StructureDefinition/test-case-cqfm"]},"contained":[{"resourceType":"Parameters","id":"9dcc0a6e-862e-4f61-9516-f56055c473d3-parameters","parameter":[{"name":"subject","valueString":"4e39ae5f-5b8a-4bc2-a550-002d1ba16c33"}]}],"extension":[{"url":"http://hl7.org/fhir/StructureDefinition/cqf-inputParameters","valueReference":{"reference":"#9dcc0a6e-862e-4f61-9516-f56055c473d3-parameters"}},{"url":"http://hl7.org/fhir/us/cqfmeasures/StructureDefinition/cqfm-testCaseDescription","valueMarkdown":"Failed Exclusions for SCIP hipFx due to Rank=2"}],"modifierExtension":[{"url":"http://hl7.org/fhir/us/cqfmeasures/StructureDefinition/cqfm-isTestCase","valueBoolean":true}],"status":"complete","type":"individual","measure":"https://madie.cms.gov/Measure/CMS108FHIRVTEProphylaxis","period":{"start":"2026-01-01","end":"2026-12-31"},"group":[{"id":"Group_1","population":[{"id":"InitialPopulation_1","code":{"coding":[{"system":"http://terminology.hl7.org/CodeSystem/measure-population","code":"initial-population","display":"Initial Population"}]},"count":1},{"id":"Denominator_1","code":{"coding":[{"system":"http://terminology.hl7.org/CodeSystem/measure-population","code":"denominator","display":"Denominator"}]},"count":1},{"id":"DenominatorExclusion_1","code":{"coding":[{"system":"http://terminology.hl7.org/CodeSystem/measure-population","code":"denominator-exclusion","display":"Denominator Exclusion"}]},"count":0},{"id":"Numerator_1","code":{"coding":[{"system":"http://terminology.hl7.org/CodeSystem/measure-population","code":"numerator","display":"Numerator"}]},"count":0}],"measureScore":{"value":0.0}}],"evaluatedResource":[{"reference":"Patient/4e39ae5f-5b8a-4bc2-a550-002d1ba16c33"},{"reference":"Encounter/f38a49f9-58a0-4674-b23d-f7406a512718"},{"reference":"Coverage/220cfaa1-f927-4e02-867a-029dc2efd8da"},{"reference":"Procedure/efd1a445-5efb-4c7e-80a2-7318128e0dae"},{"reference":"Claim/5ca62962b8484628b8de1ec5"},{"reference":"Organization/a0b88818-73e2-499c-b364-4f0c76ab2b5b"},{"reference":"Practitioner/147db8e5-163f-4710-b47f-3c399f91161a"}]},"request":{"method":"PUT","url":"MeasureReport/851254f2-a19c-40be-a721-2c82daab1d6f"}}]},"request":{"method":"PUT","url":"Bundle/tests-4e39ae5f-5b8a-4bc2-a550-002d1ba16c33-bundle"}}]}