{"resourceType":"Bundle","id":"tests-2eff6dbd-f3a2-43ee-9ad3-aab4d3b84812-bundle","type":"transaction","entry":[{"fullUrl":"Bundle/tests-2eff6dbd-f3a2-43ee-9ad3-aab4d3b84812-bundle","resource":{"resourceType":"Bundle","id":"tests-2eff6dbd-f3a2-43ee-9ad3-aab4d3b84812-bundle","type":"transaction","entry":[{"fullUrl":"https://madie.cms.gov/Patient/2eff6dbd-f3a2-43ee-9ad3-aab4d3b84812","resource":{"resourceType":"Patient","id":"2eff6dbd-f3a2-43ee-9ad3-aab4d3b84812","meta":{"profile":["http://hl7.org/fhir/us/qicore/StructureDefinition/qicore-patient"]},"text":{"status":"generated","div":"<div xmlns=\"http://www.w3.org/1999/xhtml\"><div class=\"hapiHeaderText\">PtRefMOLMWHTaskReject <b>NUMERPASS </b></div><table class=\"hapiPropertyTable\"><tbody><tr><td>Identifier</td><td>bec2580a47ed4bf7691b191e0654b2de</td></tr><tr><td>Date of birth</td><td><span>02 January 1974</span></td></tr></tbody></table></div>"},"extension":[{"url":"http://hl7.org/fhir/us/core/StructureDefinition/us-core-race","extension":[{"url":"ombCategory","valueCoding":{"system":"urn:oid:2.16.840.1.113883.6.238","code":"1002-5","display":"American Indian or Alaska Native","userSelected":true}},{"url":"text","valueString":"American Indian or Alaska Native"}]},{"url":"http://hl7.org/fhir/us/core/StructureDefinition/us-core-ethnicity","extension":[{"url":"ombCategory","valueCoding":{"system":"urn:oid:2.16.840.1.113883.6.238","code":"2135-2","display":"Hispanic or Latino","userSelected":true}},{"url":"text","valueString":"Hispanic or Latino"}]}],"identifier":[{"type":{"coding":[{"system":"http://terminology.hl7.org/CodeSystem/v2-0203","code":"MR"}]},"system":"https://bonnie-fhir.healthit.gov/","value":"612e6b2e02c62a011f2ecc81"}],"active":true,"name":[{"use":"usual","family":"NUMERPass","given":["PtRefMOInjXaTaskReject"]}],"gender":"male","birthDate":"1975-01-02"},"request":{"method":"PUT","url":"Patient/2eff6dbd-f3a2-43ee-9ad3-aab4d3b84812"}},{"fullUrl":"https://madie.cms.gov/Encounter/2f3e06e9-9ff5-4edf-974b-e8c15020d4e3","resource":{"resourceType":"Encounter","id":"2f3e06e9-9ff5-4edf-974b-e8c15020d4e3","meta":{"profile":["http://hl7.org/fhir/us/qicore/StructureDefinition/qicore-encounter"]},"status":"finished","class":{"system":"http://terminology.hl7.org/CodeSystem/v3-ActCode","code":"IMP","display":"inpatient encounter"},"type":[{"coding":[{"system":"http://snomed.info/sct","code":"8715000"}]}],"subject":{"reference":"Patient/2eff6dbd-f3a2-43ee-9ad3-aab4d3b84812"},"period":{"start":"2026-11-01T08:00:00.000+00:00","end":"2026-11-26T08:15:00.000+00:00"},"length":{"value":25,"unit":"days"}},"request":{"method":"PUT","url":"Encounter/2f3e06e9-9ff5-4edf-974b-e8c15020d4e3"}},{"fullUrl":"https://madie.cms.gov/Coverage/12caed83-0996-4b85-a67b-639a23866745","resource":{"resourceType":"Coverage","id":"12caed83-0996-4b85-a67b-639a23866745","status":"active","beneficiary":{"reference":"Patient/2eff6dbd-f3a2-43ee-9ad3-aab4d3b84812"},"period":{"start":"1975-01-02T08:00:00.000+00:00"},"payor":[{"reference":"Organization/c26a90a8-41af-41b5-a281-23217c33258f"}]},"request":{"method":"PUT","url":"Coverage/12caed83-0996-4b85-a67b-639a23866745"}},{"fullUrl":"https://madie.cms.gov/MedicationRequest/bb0fe0d6-0ee6-4c8f-8a36-c300c651c14f","resource":{"resourceType":"MedicationRequest","id":"bb0fe0d6-0ee6-4c8f-8a36-c300c651c14f","meta":{"profile":["http://hl7.org/fhir/us/qicore/StructureDefinition/qicore-medicationrequest"]},"status":"active","intent":"order","category":[{"coding":[{"system":"http://terminology.hl7.org/CodeSystem/medicationrequest-category","code":"inpatient"}]}],"doNotPerform":false,"medicationCodeableConcept":{"coding":[{"system":"http://www.nlm.nih.gov/research/umls/rxnorm","code":"861365"}]},"subject":{"reference":"Patient/2eff6dbd-f3a2-43ee-9ad3-aab4d3b84812"},"authoredOn":"2026-11-01T08:00:00.000+00:00","requester":{"reference":"Practitioner/123456"},"dosageInstruction":[{"timing":{"repeat":{"boundsPeriod":{"start":"2026-11-03T09:00:00.000+00:00"}}}}]},"request":{"method":"PUT","url":"MedicationRequest/bb0fe0d6-0ee6-4c8f-8a36-c300c651c14f"}},{"fullUrl":"https://madie.cms.gov/Task/58365352-8e44-4a3b-9922-d308c1e28da6","resource":{"resourceType":"Task","id":"58365352-8e44-4a3b-9922-d308c1e28da6","meta":{"profile":["http://hl7.org/fhir/us/qicore/StructureDefinition/qicore-taskrejected"]},"status":"rejected","statusReason":{"coding":[{"system":"http://snomed.info/sct","code":"443390004","display":"Refusal of treatment by patient (situation)","userSelected":true}]},"code":{"coding":[{"system":"http://hl7.org/fhir/CodeSystem/task-code","code":"fulfill"}]},"focus":{"reference":"MedicationRequest/bb0fe0d6-0ee6-4c8f-8a36-c300c651c14f"},"executionPeriod":{"start":"2026-11-01T09:00:00.000+00:00","end":"2026-11-03T09:00:00.000+00:00"}},"request":{"method":"PUT","url":"Task/58365352-8e44-4a3b-9922-d308c1e28da6"}},{"fullUrl":"https://madie.cms.gov/Organization/c26a90a8-41af-41b5-a281-23217c33258f","resource":{"resourceType":"Organization","id":"c26a90a8-41af-41b5-a281-23217c33258f","meta":{"profile":["http://hl7.org/fhir/us/qicore/StructureDefinition/qicore-organization"]},"identifier":[{"use":"temp","system":"urn:oid:2.16.840.1.113883.4.4","value":"21-3259825"}],"active":true,"type":[{"coding":[{"system":"http://terminology.hl7.org/CodeSystem/organization-type","code":"pay","display":"Payer"}]}],"name":"Blue Cross Blue Shield of Texas","telecom":[{"system":"phone","value":"(+1) 972-766-6900"}],"address":[{"use":"billing","type":"postal","line":["P.O. Box 660044"],"city":"Dallas","state":"TX","postalCode":"75266-0044","country":"USA"}]},"request":{"method":"PUT","url":"Organization/c26a90a8-41af-41b5-a281-23217c33258f"}},{"fullUrl":"https://madie.cms.gov/Practitioner/c0fc330d-74f9-4424-8de5-051f900015ea","resource":{"resourceType":"Practitioner","id":"c0fc330d-74f9-4424-8de5-051f900015ea","identifier":[{"system":"http://hl7.org/fhir/sid/us-npi","value":"123456"}],"name":[{"family":"Evil","prefix":["Dr"]}]},"request":{"method":"PUT","url":"Practitioner/c0fc330d-74f9-4424-8de5-051f900015ea"}},{"fullUrl":"https://madie.cms.gov/MeasureReport/33037ebd-cee2-4d57-9574-3a7cae5ce9f3","resource":{"resourceType":"MeasureReport","id":"33037ebd-cee2-4d57-9574-3a7cae5ce9f3","meta":{"profile":["http://hl7.org/fhir/us/cqfmeasures/StructureDefinition/test-case-cqfm"]},"contained":[{"resourceType":"Parameters","id":"4b29d295-cd06-4b96-b16b-dd98bab85814-parameters","parameter":[{"name":"subject","valueString":"2eff6dbd-f3a2-43ee-9ad3-aab4d3b84812"}]}],"extension":[{"url":"http://hl7.org/fhir/StructureDefinition/cqf-inputParameters","valueReference":{"reference":"#4b29d295-cd06-4b96-b16b-dd98bab85814-parameters"}},{"url":"http://hl7.org/fhir/us/cqfmeasures/StructureDefinition/cqfm-testCaseDescription","valueMarkdown":"Injectable Factor Xa Inhibitor  refused with taskReject profile\n"}],"modifierExtension":[{"url":"http://hl7.org/fhir/us/cqfmeasures/StructureDefinition/cqfm-isTestCase","valueBoolean":true}],"status":"complete","type":"individual","measure":"https://madie.cms.gov/Measure/CMS108FHIRVTEProphylaxis","period":{"start":"2026-01-01","end":"2026-12-31"},"group":[{"id":"Group_1","population":[{"id":"InitialPopulation_1","code":{"coding":[{"system":"http://terminology.hl7.org/CodeSystem/measure-population","code":"initial-population","display":"Initial Population"}]},"count":1},{"id":"Denominator_1","code":{"coding":[{"system":"http://terminology.hl7.org/CodeSystem/measure-population","code":"denominator","display":"Denominator"}]},"count":1},{"id":"DenominatorExclusion_1","code":{"coding":[{"system":"http://terminology.hl7.org/CodeSystem/measure-population","code":"denominator-exclusion","display":"Denominator Exclusion"}]},"count":0},{"id":"Numerator_1","code":{"coding":[{"system":"http://terminology.hl7.org/CodeSystem/measure-population","code":"numerator","display":"Numerator"}]},"count":1}],"measureScore":{"value":0.0}}],"evaluatedResource":[{"reference":"Patient/2eff6dbd-f3a2-43ee-9ad3-aab4d3b84812"},{"reference":"Encounter/2f3e06e9-9ff5-4edf-974b-e8c15020d4e3"},{"reference":"Coverage/12caed83-0996-4b85-a67b-639a23866745"},{"reference":"MedicationRequest/bb0fe0d6-0ee6-4c8f-8a36-c300c651c14f"},{"reference":"Task/58365352-8e44-4a3b-9922-d308c1e28da6"},{"reference":"Organization/c26a90a8-41af-41b5-a281-23217c33258f"},{"reference":"Practitioner/c0fc330d-74f9-4424-8de5-051f900015ea"}]},"request":{"method":"PUT","url":"MeasureReport/33037ebd-cee2-4d57-9574-3a7cae5ce9f3"}}]},"request":{"method":"PUT","url":"Bundle/tests-2eff6dbd-f3a2-43ee-9ad3-aab4d3b84812-bundle"}}]}