{"resourceType":"Bundle","id":"tests-a97b19dd-82f7-4b7b-960b-3c8b1101caeb-bundle","type":"transaction","entry":[{"fullUrl":"Bundle/tests-a97b19dd-82f7-4b7b-960b-3c8b1101caeb-bundle","resource":{"resourceType":"Bundle","id":"tests-a97b19dd-82f7-4b7b-960b-3c8b1101caeb-bundle","type":"transaction","entry":[{"fullUrl":"https://madie.cms.gov/Patient/a97b19dd-82f7-4b7b-960b-3c8b1101caeb","resource":{"resourceType":"Patient","id":"a97b19dd-82f7-4b7b-960b-3c8b1101caeb","meta":{"profile":["http://hl7.org/fhir/us/qicore/StructureDefinition/qicore-patient"]},"text":{"status":"generated","div":"<div xmlns=\"http://www.w3.org/1999/xhtml\"><div class=\"hapiHeaderText\">VTE_RiskAssess_DayOfAnes <b>NUMERPASS </b></div><table class=\"hapiPropertyTable\"><tbody><tr><td>Identifier</td><td>c54dbc364ce913dfe300bd0f00b65409</td></tr><tr><td>Date of birth</td><td><span>02 January 1974</span></td></tr></tbody></table></div>"},"extension":[{"url":"http://hl7.org/fhir/us/core/StructureDefinition/us-core-race","extension":[{"url":"ombCategory","valueCoding":{"system":"urn:oid:2.16.840.1.113883.6.238","code":"1002-5","display":"American Indian or Alaska Native","userSelected":true}},{"url":"text","valueString":"American Indian or Alaska Native"}]},{"url":"http://hl7.org/fhir/us/core/StructureDefinition/us-core-ethnicity","extension":[{"url":"ombCategory","valueCoding":{"system":"urn:oid:2.16.840.1.113883.6.238","code":"2135-2","display":"Hispanic or Latino","userSelected":true}},{"url":"text","valueString":"Hispanic or Latino"}]}],"identifier":[{"type":{"coding":[{"system":"http://terminology.hl7.org/CodeSystem/v2-0203","code":"MR"}]},"system":"https://bonnie-fhir.healthit.gov/","value":"612e6a5f02c62a011f2e9d9d"}],"active":true,"name":[{"use":"usual","family":"NUMERPass","given":["VTERiskAssessDayOfAnes"]}],"gender":"male","birthDate":"1975-01-02"},"request":{"method":"PUT","url":"Patient/a97b19dd-82f7-4b7b-960b-3c8b1101caeb"}},{"fullUrl":"https://madie.cms.gov/Encounter/57490c14-e006-468f-8334-e15276971a30","resource":{"resourceType":"Encounter","id":"57490c14-e006-468f-8334-e15276971a30","meta":{"profile":["http://hl7.org/fhir/us/qicore/StructureDefinition/qicore-encounter"]},"status":"finished","class":{"system":"http://terminology.hl7.org/CodeSystem/v3-ActCode","code":"IMP","display":"inpatient encounter"},"type":[{"coding":[{"system":"http://snomed.info/sct","code":"8715000"}]}],"subject":{"reference":"Patient/a97b19dd-82f7-4b7b-960b-3c8b1101caeb"},"period":{"start":"2026-11-01T08:00:00.000+00:00","end":"2026-11-26T08:15:00.000+00:00"},"length":{"value":25,"unit":"days"}},"request":{"method":"PUT","url":"Encounter/57490c14-e006-468f-8334-e15276971a30"}},{"fullUrl":"https://madie.cms.gov/Observation/7316b859-e251-49da-93ca-4236159de309","resource":{"resourceType":"Observation","id":"7316b859-e251-49da-93ca-4236159de309","meta":{"profile":["http://hl7.org/fhir/us/qicore/StructureDefinition/qicore-simple-observation"]},"status":"corrected","category":[{"coding":[{"system":"http://terminology.hl7.org/CodeSystem/observation-category","code":"exam","display":"exam"}]}],"code":{"coding":[{"system":"http://loinc.org","code":"72136-5"}]},"subject":{"reference":"Patient/a97b19dd-82f7-4b7b-960b-3c8b1101caeb"},"effectivePeriod":{"start":"2026-11-02T11:00:00.000+00:00","end":"2026-11-02T11:05:00.000+00:00"},"valueCodeableConcept":{"coding":[{"system":"http://snomed.info/sct","code":"260362008","display":"Low Risk"}]}},"request":{"method":"PUT","url":"Observation/7316b859-e251-49da-93ca-4236159de309"}},{"fullUrl":"https://madie.cms.gov/Coverage/cd53cc99-65d7-47f4-b3ec-f3096291a6c0","resource":{"resourceType":"Coverage","id":"cd53cc99-65d7-47f4-b3ec-f3096291a6c0","status":"active","beneficiary":{"reference":"Patient/a97b19dd-82f7-4b7b-960b-3c8b1101caeb"},"period":{"start":"1975-01-02T08:00:00.000+00:00"},"payor":[{"reference":"Organization/6a5b873b-18eb-47ce-9622-f2d5d855e9f6"}]},"request":{"method":"PUT","url":"Coverage/cd53cc99-65d7-47f4-b3ec-f3096291a6c0"}},{"fullUrl":"https://madie.cms.gov/Procedure/3b77a7a0-7511-4236-a0ed-5799db7ef8a9","resource":{"resourceType":"Procedure","id":"3b77a7a0-7511-4236-a0ed-5799db7ef8a9","meta":{"profile":["http://hl7.org/fhir/us/qicore/StructureDefinition/qicore-procedure"]},"extension":[{"url":"http://hl7.org/fhir/us/qicore/StructureDefinition/qicore-recorded","valueDateTime":"2026-11-02T13:35:00.000+00:00"}],"status":"completed","code":{"coding":[{"system":"http://www.icd10data.com/icd10pcs","code":"3E030FZ"},{"system":"http://snomed.info/sct","code":"18946005"}]},"subject":{"reference":"Patient/a97b19dd-82f7-4b7b-960b-3c8b1101caeb"},"performedPeriod":{"start":"2026-11-02T09:00:00.000+00:00","end":"2026-11-02T09:15:00.000+00:00"}},"request":{"method":"PUT","url":"Procedure/3b77a7a0-7511-4236-a0ed-5799db7ef8a9"}},{"fullUrl":"https://madie.cms.gov/Organization/6a5b873b-18eb-47ce-9622-f2d5d855e9f6","resource":{"resourceType":"Organization","id":"6a5b873b-18eb-47ce-9622-f2d5d855e9f6","meta":{"profile":["http://hl7.org/fhir/us/qicore/StructureDefinition/qicore-organization"]},"identifier":[{"use":"temp","system":"urn:oid:2.16.840.1.113883.4.4","value":"21-3259825"}],"active":true,"type":[{"coding":[{"system":"http://terminology.hl7.org/CodeSystem/organization-type","code":"pay","display":"Payer"}]}],"name":"Blue Cross Blue Shield of Texas","telecom":[{"system":"phone","value":"(+1) 972-766-6900"}],"address":[{"use":"billing","type":"postal","line":["P.O. Box 660044"],"city":"Dallas","state":"TX","postalCode":"75266-0044","country":"USA"}]},"request":{"method":"PUT","url":"Organization/6a5b873b-18eb-47ce-9622-f2d5d855e9f6"}},{"fullUrl":"https://madie.cms.gov/Practitioner/ceadae8b-402f-4325-8040-7c6ddcab4099","resource":{"resourceType":"Practitioner","id":"ceadae8b-402f-4325-8040-7c6ddcab4099","identifier":[{"system":"http://hl7.org/fhir/sid/us-npi","value":"123456"}],"name":[{"family":"Evil","prefix":["Dr"]}]},"request":{"method":"PUT","url":"Practitioner/ceadae8b-402f-4325-8040-7c6ddcab4099"}},{"fullUrl":"https://madie.cms.gov/MeasureReport/42a4d63b-3433-40c6-adc2-9ed081fa0883","resource":{"resourceType":"MeasureReport","id":"42a4d63b-3433-40c6-adc2-9ed081fa0883","meta":{"profile":["http://hl7.org/fhir/us/cqfmeasures/StructureDefinition/test-case-cqfm"]},"contained":[{"resourceType":"Parameters","id":"c26d3e81-73ac-4d85-a70d-7ddf81f5e9f7-parameters","parameter":[{"name":"subject","valueString":"a97b19dd-82f7-4b7b-960b-3c8b1101caeb"}]}],"extension":[{"url":"http://hl7.org/fhir/StructureDefinition/cqf-inputParameters","valueReference":{"reference":"#c26d3e81-73ac-4d85-a70d-7ddf81f5e9f7-parameters"}},{"url":"http://hl7.org/fhir/us/cqfmeasures/StructureDefinition/cqfm-testCaseDescription","valueMarkdown":"risk assessment done on the day of end of anesthesia, result is low risk. Risk Assessment uses effectivePeriod\n"}],"modifierExtension":[{"url":"http://hl7.org/fhir/us/cqfmeasures/StructureDefinition/cqfm-isTestCase","valueBoolean":true}],"status":"complete","type":"individual","measure":"https://madie.cms.gov/Measure/CMS108FHIRVTEProphylaxis","period":{"start":"2026-01-01","end":"2026-12-31"},"group":[{"id":"Group_1","population":[{"id":"InitialPopulation_1","code":{"coding":[{"system":"http://terminology.hl7.org/CodeSystem/measure-population","code":"initial-population","display":"Initial Population"}]},"count":1},{"id":"Denominator_1","code":{"coding":[{"system":"http://terminology.hl7.org/CodeSystem/measure-population","code":"denominator","display":"Denominator"}]},"count":1},{"id":"DenominatorExclusion_1","code":{"coding":[{"system":"http://terminology.hl7.org/CodeSystem/measure-population","code":"denominator-exclusion","display":"Denominator Exclusion"}]},"count":0},{"id":"Numerator_1","code":{"coding":[{"system":"http://terminology.hl7.org/CodeSystem/measure-population","code":"numerator","display":"Numerator"}]},"count":1}],"measureScore":{"value":0.0}}],"evaluatedResource":[{"reference":"Patient/a97b19dd-82f7-4b7b-960b-3c8b1101caeb"},{"reference":"Encounter/57490c14-e006-468f-8334-e15276971a30"},{"reference":"Observation/7316b859-e251-49da-93ca-4236159de309"},{"reference":"Coverage/cd53cc99-65d7-47f4-b3ec-f3096291a6c0"},{"reference":"Procedure/3b77a7a0-7511-4236-a0ed-5799db7ef8a9"},{"reference":"Organization/6a5b873b-18eb-47ce-9622-f2d5d855e9f6"},{"reference":"Practitioner/ceadae8b-402f-4325-8040-7c6ddcab4099"}]},"request":{"method":"PUT","url":"MeasureReport/42a4d63b-3433-40c6-adc2-9ed081fa0883"}}]},"request":{"method":"PUT","url":"Bundle/tests-a97b19dd-82f7-4b7b-960b-3c8b1101caeb-bundle"}}]}