{"resourceType":"Bundle","id":"tests-d9b7ffa9-ed78-484c-8880-b4cbf2b4b6a1-bundle","type":"transaction","entry":[{"fullUrl":"Bundle/tests-d9b7ffa9-ed78-484c-8880-b4cbf2b4b6a1-bundle","resource":{"resourceType":"Bundle","id":"tests-d9b7ffa9-ed78-484c-8880-b4cbf2b4b6a1-bundle","type":"transaction","entry":[{"fullUrl":"https://madie.cms.gov/Patient/d9b7ffa9-ed78-484c-8880-b4cbf2b4b6a1","resource":{"resourceType":"Patient","id":"d9b7ffa9-ed78-484c-8880-b4cbf2b4b6a1","meta":{"profile":["http://hl7.org/fhir/us/qicore/StructureDefinition/qicore-patient"]},"text":{"status":"generated","div":"<div xmlns=\"http://www.w3.org/1999/xhtml\"><div class=\"hapiHeaderText\">DxVTEClinicalStatusResolved<b>NUMERPASS </b></div><table class=\"hapiPropertyTable\"><tbody><tr><td>Identifier</td><td>53ba7bfa81859444ffcb221a690f5daf</td></tr><tr><td>Date of birth</td><td><span>02 January 1974</span></td></tr></tbody></table></div>"},"extension":[{"url":"http://hl7.org/fhir/us/core/StructureDefinition/us-core-race","extension":[{"url":"ombCategory","valueCoding":{"system":"urn:oid:2.16.840.1.113883.6.238","code":"1002-5","display":"American Indian or Alaska Native","userSelected":true}},{"url":"text","valueString":"American Indian or Alaska Native"}]},{"url":"http://hl7.org/fhir/us/core/StructureDefinition/us-core-ethnicity","extension":[{"url":"ombCategory","valueCoding":{"system":"urn:oid:2.16.840.1.113883.6.238","code":"2135-2","display":"Hispanic or Latino","userSelected":true}},{"url":"text","valueString":"Hispanic or Latino"}]}],"identifier":[{"type":{"coding":[{"system":"http://terminology.hl7.org/CodeSystem/v2-0203","code":"MR"}]},"system":"https://bonnie-fhir.healthit.gov/","value":"612e6b5702c62a011f2ed65d"}],"active":true,"name":[{"use":"usual","family":"NUMERPass","given":["DxVTEClinicalStatusResolved"]}],"gender":"male","birthDate":"1975-01-02"},"request":{"method":"PUT","url":"Patient/d9b7ffa9-ed78-484c-8880-b4cbf2b4b6a1"}},{"fullUrl":"https://madie.cms.gov/Encounter/77dd6fb0-d24f-4d72-802e-0d6f1dc3101f","resource":{"resourceType":"Encounter","id":"77dd6fb0-d24f-4d72-802e-0d6f1dc3101f","meta":{"profile":["http://hl7.org/fhir/us/qicore/StructureDefinition/qicore-encounter"]},"status":"finished","class":{"system":"http://terminology.hl7.org/CodeSystem/v3-ActCode","code":"IMP","display":"inpatient encounter"},"type":[{"coding":[{"system":"http://snomed.info/sct","code":"8715000"}]}],"subject":{"reference":"Patient/d9b7ffa9-ed78-484c-8880-b4cbf2b4b6a1"},"period":{"start":"2026-11-01T08:00:00.000+00:00","end":"2026-11-26T08:15:00.000+00:00"},"length":{"value":25,"unit":"days"}},"request":{"method":"PUT","url":"Encounter/77dd6fb0-d24f-4d72-802e-0d6f1dc3101f"}},{"fullUrl":"https://madie.cms.gov/Coverage/19548fde-9f78-4f48-bc54-3fee6f82b837","resource":{"resourceType":"Coverage","id":"19548fde-9f78-4f48-bc54-3fee6f82b837","status":"active","beneficiary":{"reference":"Patient/d9b7ffa9-ed78-484c-8880-b4cbf2b4b6a1"},"period":{"start":"1975-01-02T08:00:00.000+00:00"},"payor":[{"reference":"Organization/fb6e81b3-267b-434c-854d-0990116bd85b"}]},"request":{"method":"PUT","url":"Coverage/19548fde-9f78-4f48-bc54-3fee6f82b837"}},{"fullUrl":"https://madie.cms.gov/Condition/85b22e62-9a1b-45dd-a8df-b67523f844f2","resource":{"resourceType":"Condition","id":"85b22e62-9a1b-45dd-a8df-b67523f844f2","meta":{"profile":["http://hl7.org/fhir/us/qicore/StructureDefinition/qicore-condition-problems-health-concerns"]},"clinicalStatus":{"coding":[{"system":"http://terminology.hl7.org/CodeSystem/condition-clinical","code":"resolved","display":"resolved","userSelected":true}]},"verificationStatus":{"coding":[{"system":"http://terminology.hl7.org/CodeSystem/condition-ver-status","code":"confirmed","display":"confirmed","userSelected":true}]},"category":[{"coding":[{"system":"http://terminology.hl7.org/CodeSystem/condition-category","code":"problem-list-item","display":"Problem List Item"}]}],"code":{"coding":[{"system":"http://snomed.info/sct","code":"1001000119102","display":"Pulmonary embolism with pulmonary"}]},"subject":{"reference":"Patient/d9b7ffa9-ed78-484c-8880-b4cbf2b4b6a1"},"onsetPeriod":{"start":"2026-10-09T08:00:00.000+00:00","end":"2026-10-09T08:15:00.000+00:00"}},"request":{"method":"PUT","url":"Condition/85b22e62-9a1b-45dd-a8df-b67523f844f2"}},{"fullUrl":"https://madie.cms.gov/MedicationAdministration/26d43f2f-ebbe-44b5-95dd-45c9b344e593","resource":{"resourceType":"MedicationAdministration","id":"26d43f2f-ebbe-44b5-95dd-45c9b344e593","meta":{"profile":["http://hl7.org/fhir/us/qicore/StructureDefinition/qicore-medicationadministration"]},"status":"completed","medicationCodeableConcept":{"coding":[{"system":"http://www.nlm.nih.gov/research/umls/rxnorm","code":"1599543","display":"edoxaban 15 MG Oral Tablet"}]},"subject":{"reference":"Patient/d9b7ffa9-ed78-484c-8880-b4cbf2b4b6a1"},"effectivePeriod":{"start":"2026-11-01T11:00:00.000+00:00","end":"2026-11-01T11:05:00.000+00:00"}},"request":{"method":"PUT","url":"MedicationAdministration/26d43f2f-ebbe-44b5-95dd-45c9b344e593"}},{"fullUrl":"https://madie.cms.gov/Organization/fb6e81b3-267b-434c-854d-0990116bd85b","resource":{"resourceType":"Organization","id":"fb6e81b3-267b-434c-854d-0990116bd85b","meta":{"profile":["http://hl7.org/fhir/us/qicore/StructureDefinition/qicore-organization"]},"identifier":[{"use":"temp","system":"urn:oid:2.16.840.1.113883.4.4","value":"21-3259825"}],"active":true,"type":[{"coding":[{"system":"http://terminology.hl7.org/CodeSystem/organization-type","code":"pay","display":"Payer"}]}],"name":"Blue Cross Blue Shield of Texas","telecom":[{"system":"phone","value":"(+1) 972-766-6900"}],"address":[{"use":"billing","type":"postal","line":["P.O. Box 660044"],"city":"Dallas","state":"TX","postalCode":"75266-0044","country":"USA"}]},"request":{"method":"PUT","url":"Organization/fb6e81b3-267b-434c-854d-0990116bd85b"}},{"fullUrl":"https://madie.cms.gov/MeasureReport/dcdd9c89-501d-4526-ad46-fd4deed128c3","resource":{"resourceType":"MeasureReport","id":"dcdd9c89-501d-4526-ad46-fd4deed128c3","meta":{"profile":["http://hl7.org/fhir/us/cqfmeasures/StructureDefinition/test-case-cqfm"]},"contained":[{"resourceType":"Parameters","id":"f2e7d8a0-b0aa-4da8-bdc9-554f53b165e6-parameters","parameter":[{"name":"subject","valueString":"d9b7ffa9-ed78-484c-8880-b4cbf2b4b6a1"}]}],"extension":[{"url":"http://hl7.org/fhir/StructureDefinition/cqf-inputParameters","valueReference":{"reference":"#f2e7d8a0-b0aa-4da8-bdc9-554f53b165e6-parameters"}},{"url":"http://hl7.org/fhir/us/cqfmeasures/StructureDefinition/cqfm-testCaseDescription","valueMarkdown":"To test and cover Condition. clinicalStatus  in resolved >18, LOS<120 day. Medication, Administered: Oral Factor Xa Inhibitor for VTE Prophylaxis with diagnosis of  VTE starts before the encounter."}],"modifierExtension":[{"url":"http://hl7.org/fhir/us/cqfmeasures/StructureDefinition/cqfm-isTestCase","valueBoolean":true}],"status":"complete","type":"individual","measure":"https://madie.cms.gov/Measure/CMS108FHIRVTEProphylaxis","period":{"start":"2026-01-01","end":"2026-12-31"},"group":[{"id":"Group_1","population":[{"id":"InitialPopulation_1","code":{"coding":[{"system":"http://terminology.hl7.org/CodeSystem/measure-population","code":"initial-population","display":"Initial Population"}]},"count":1},{"id":"Denominator_1","code":{"coding":[{"system":"http://terminology.hl7.org/CodeSystem/measure-population","code":"denominator","display":"Denominator"}]},"count":1},{"id":"DenominatorExclusion_1","code":{"coding":[{"system":"http://terminology.hl7.org/CodeSystem/measure-population","code":"denominator-exclusion","display":"Denominator Exclusion"}]},"count":0},{"id":"Numerator_1","code":{"coding":[{"system":"http://terminology.hl7.org/CodeSystem/measure-population","code":"numerator","display":"Numerator"}]},"count":1}],"measureScore":{"value":0.0}}],"evaluatedResource":[{"reference":"Patient/d9b7ffa9-ed78-484c-8880-b4cbf2b4b6a1"},{"reference":"Encounter/77dd6fb0-d24f-4d72-802e-0d6f1dc3101f"},{"reference":"Coverage/19548fde-9f78-4f48-bc54-3fee6f82b837"},{"reference":"Condition/85b22e62-9a1b-45dd-a8df-b67523f844f2"},{"reference":"MedicationAdministration/26d43f2f-ebbe-44b5-95dd-45c9b344e593"},{"reference":"Organization/fb6e81b3-267b-434c-854d-0990116bd85b"}]},"request":{"method":"PUT","url":"MeasureReport/dcdd9c89-501d-4526-ad46-fd4deed128c3"}}]},"request":{"method":"PUT","url":"Bundle/tests-d9b7ffa9-ed78-484c-8880-b4cbf2b4b6a1-bundle"}}]}