{"resourceType":"Bundle","id":"tests-c0ddfe7a-d2b7-43d2-a51f-7190870e39c5-bundle","type":"transaction","entry":[{"fullUrl":"Bundle/tests-c0ddfe7a-d2b7-43d2-a51f-7190870e39c5-bundle","resource":{"resourceType":"Bundle","id":"tests-c0ddfe7a-d2b7-43d2-a51f-7190870e39c5-bundle","type":"transaction","entry":[{"fullUrl":"https://madie.cms.gov/Patient/c0ddfe7a-d2b7-43d2-a51f-7190870e39c5","resource":{"resourceType":"Patient","id":"c0ddfe7a-d2b7-43d2-a51f-7190870e39c5","meta":{"profile":["http://hl7.org/fhir/us/qicore/StructureDefinition/qicore-patient"]},"text":{"status":"generated","div":"<div xmlns=\"http://www.w3.org/1999/xhtml\"><div class=\"hapiHeaderText\">LOSLT2Days <b>DENEXPASS </b></div><table class=\"hapiPropertyTable\"><tbody><tr><td>Identifier</td><td>26fb5d0b2c67d4a85fcb0701daa6142b</td></tr><tr><td>Date of birth</td><td><span>02 January 1974</span></td></tr></tbody></table></div>"},"extension":[{"url":"http://hl7.org/fhir/us/core/StructureDefinition/us-core-race","extension":[{"url":"ombCategory","valueCoding":{"system":"urn:oid:2.16.840.1.113883.6.238","code":"1002-5","display":"American Indian or Alaska Native","userSelected":true}},{"url":"text","valueString":"American Indian or Alaska Native"}]},{"url":"http://hl7.org/fhir/us/core/StructureDefinition/us-core-ethnicity","extension":[{"url":"ombCategory","valueCoding":{"system":"urn:oid:2.16.840.1.113883.6.238","code":"2135-2","display":"Hispanic or Latino","userSelected":true}},{"url":"text","valueString":"Hispanic or Latino"}]}],"identifier":[{"type":{"coding":[{"system":"http://terminology.hl7.org/CodeSystem/v2-0203","code":"MR"}]},"system":"https://bonnie-fhir.healthit.gov/","value":"612e6b3902c62a011f2ecf1f"}],"active":true,"name":[{"use":"usual","family":"DENEXPass","given":["LOSLT2Days"]}],"gender":"male","birthDate":"1975-01-02"},"request":{"method":"PUT","url":"Patient/c0ddfe7a-d2b7-43d2-a51f-7190870e39c5"}},{"fullUrl":"https://madie.cms.gov/Encounter/a4e30075-02ad-44f8-968a-7b7acb650b1d","resource":{"resourceType":"Encounter","id":"a4e30075-02ad-44f8-968a-7b7acb650b1d","meta":{"profile":["http://hl7.org/fhir/us/qicore/StructureDefinition/qicore-encounter"]},"status":"finished","class":{"system":"http://terminology.hl7.org/CodeSystem/v3-ActCode","code":"IMP","display":"inpatient encounter"},"type":[{"coding":[{"system":"http://snomed.info/sct","code":"8715000"}]}],"subject":{"reference":"Patient/c0ddfe7a-d2b7-43d2-a51f-7190870e39c5"},"period":{"start":"2026-11-01T00:00:00.000+00:00","end":"2026-11-02T23:59:00.000+00:00"},"length":{"value":1.0,"unit":"days"}},"request":{"method":"PUT","url":"Encounter/a4e30075-02ad-44f8-968a-7b7acb650b1d"}},{"fullUrl":"https://madie.cms.gov/Coverage/27295d9f-415e-4a4d-9dd6-239a13e3b81a","resource":{"resourceType":"Coverage","id":"27295d9f-415e-4a4d-9dd6-239a13e3b81a","status":"active","beneficiary":{"reference":"Patient/c0ddfe7a-d2b7-43d2-a51f-7190870e39c5"},"period":{"start":"1975-01-02T08:00:00.000+00:00"},"payor":[{"reference":"Organization/78fae00f-ec33-4cde-b5b4-912ee8eb7511"}]},"request":{"method":"PUT","url":"Coverage/27295d9f-415e-4a4d-9dd6-239a13e3b81a"}},{"fullUrl":"https://madie.cms.gov/Organization/78fae00f-ec33-4cde-b5b4-912ee8eb7511","resource":{"resourceType":"Organization","id":"78fae00f-ec33-4cde-b5b4-912ee8eb7511","meta":{"profile":["http://hl7.org/fhir/us/qicore/StructureDefinition/qicore-organization"]},"identifier":[{"use":"temp","system":"urn:oid:2.16.840.1.113883.4.4","value":"21-3259825"}],"active":true,"type":[{"coding":[{"system":"http://terminology.hl7.org/CodeSystem/organization-type","code":"pay","display":"Payer"}]}],"name":"Blue Cross Blue Shield of Texas","telecom":[{"system":"phone","value":"(+1) 972-766-6900"}],"address":[{"use":"billing","type":"postal","line":["P.O. Box 660044"],"city":"Dallas","state":"TX","postalCode":"75266-0044","country":"USA"}]},"request":{"method":"PUT","url":"Organization/78fae00f-ec33-4cde-b5b4-912ee8eb7511"}},{"fullUrl":"https://madie.cms.gov/Practitioner/86090526-6368-404e-b4df-0d2a72f07937","resource":{"resourceType":"Practitioner","id":"86090526-6368-404e-b4df-0d2a72f07937","identifier":[{"system":"http://hl7.org/fhir/sid/us-npi","value":"123456"}],"name":[{"family":"Evil","prefix":["Dr"]}]},"request":{"method":"PUT","url":"Practitioner/86090526-6368-404e-b4df-0d2a72f07937"}},{"fullUrl":"https://madie.cms.gov/MeasureReport/36f048ad-a1fd-4c89-887b-049f177ff467","resource":{"resourceType":"MeasureReport","id":"36f048ad-a1fd-4c89-887b-049f177ff467","meta":{"profile":["http://hl7.org/fhir/us/cqfmeasures/StructureDefinition/test-case-cqfm"]},"contained":[{"resourceType":"Parameters","id":"8969288f-8d16-4fda-8ac3-fe6219962b84-parameters","parameter":[{"name":"subject","valueString":"c0ddfe7a-d2b7-43d2-a51f-7190870e39c5"}]}],"extension":[{"url":"http://hl7.org/fhir/StructureDefinition/cqf-inputParameters","valueReference":{"reference":"#8969288f-8d16-4fda-8ac3-fe6219962b84-parameters"}},{"url":"http://hl7.org/fhir/us/cqfmeasures/StructureDefinition/cqfm-testCaseDescription","valueMarkdown":"LOS = 1 days\n"}],"modifierExtension":[{"url":"http://hl7.org/fhir/us/cqfmeasures/StructureDefinition/cqfm-isTestCase","valueBoolean":true}],"status":"complete","type":"individual","measure":"https://madie.cms.gov/Measure/CMS108FHIRVTEProphylaxis","period":{"start":"2026-01-01","end":"2026-12-31"},"group":[{"id":"Group_1","population":[{"id":"InitialPopulation_1","code":{"coding":[{"system":"http://terminology.hl7.org/CodeSystem/measure-population","code":"initial-population","display":"Initial Population"}]},"count":1},{"id":"Denominator_1","code":{"coding":[{"system":"http://terminology.hl7.org/CodeSystem/measure-population","code":"denominator","display":"Denominator"}]},"count":1},{"id":"DenominatorExclusion_1","code":{"coding":[{"system":"http://terminology.hl7.org/CodeSystem/measure-population","code":"denominator-exclusion","display":"Denominator Exclusion"}]},"count":1},{"id":"Numerator_1","code":{"coding":[{"system":"http://terminology.hl7.org/CodeSystem/measure-population","code":"numerator","display":"Numerator"}]},"count":0}],"measureScore":{"value":0.0}}],"evaluatedResource":[{"reference":"Patient/c0ddfe7a-d2b7-43d2-a51f-7190870e39c5"},{"reference":"Encounter/a4e30075-02ad-44f8-968a-7b7acb650b1d"},{"reference":"Coverage/27295d9f-415e-4a4d-9dd6-239a13e3b81a"},{"reference":"Organization/78fae00f-ec33-4cde-b5b4-912ee8eb7511"},{"reference":"Practitioner/86090526-6368-404e-b4df-0d2a72f07937"}]},"request":{"method":"PUT","url":"MeasureReport/36f048ad-a1fd-4c89-887b-049f177ff467"}}]},"request":{"method":"PUT","url":"Bundle/tests-c0ddfe7a-d2b7-43d2-a51f-7190870e39c5-bundle"}}]}