{"resourceType":"Bundle","id":"tests-dd5a1e46-1b99-45a3-b4d3-1fde205d8a11-bundle","type":"transaction","entry":[{"fullUrl":"Bundle/tests-dd5a1e46-1b99-45a3-b4d3-1fde205d8a11-bundle","resource":{"resourceType":"Bundle","id":"tests-dd5a1e46-1b99-45a3-b4d3-1fde205d8a11-bundle","type":"transaction","entry":[{"fullUrl":"https://madie.cms.gov/Patient/dd5a1e46-1b99-45a3-b4d3-1fde205d8a11","resource":{"resourceType":"Patient","id":"dd5a1e46-1b99-45a3-b4d3-1fde205d8a11","meta":{"profile":["http://hl7.org/fhir/us/qicore/StructureDefinition/qicore-patient"]},"text":{"status":"generated","div":"<div xmlns=\"http://www.w3.org/1999/xhtml\"><div class=\"hapiHeaderText\">DxVTEClinicalStatusRemission <b>NUMERPASS </b></div><table class=\"hapiPropertyTable\"><tbody><tr><td>Identifier</td><td>53ba7bfa81859444ffcb221a690f5daf</td></tr><tr><td>Date of birth</td><td><span>02 January 1974</span></td></tr></tbody></table></div>"},"extension":[{"url":"http://hl7.org/fhir/us/core/StructureDefinition/us-core-race","extension":[{"url":"ombCategory","valueCoding":{"system":"urn:oid:2.16.840.1.113883.6.238","code":"1002-5","display":"American Indian or Alaska Native","userSelected":true}},{"url":"text","valueString":"American Indian or Alaska Native"}]},{"url":"http://hl7.org/fhir/us/core/StructureDefinition/us-core-ethnicity","extension":[{"url":"ombCategory","valueCoding":{"system":"urn:oid:2.16.840.1.113883.6.238","code":"2135-2","display":"Hispanic or Latino","userSelected":true}},{"url":"text","valueString":"Hispanic or Latino"}]}],"identifier":[{"type":{"coding":[{"system":"http://terminology.hl7.org/CodeSystem/v2-0203","code":"MR"}]},"system":"https://bonnie-fhir.healthit.gov/","value":"612e6b5702c62a011f2ed65c"}],"active":true,"name":[{"use":"usual","family":"NUMERPass","given":["DxVTEClinicalStatusRemission"]}],"gender":"male","birthDate":"1975-01-02"},"request":{"method":"PUT","url":"Patient/dd5a1e46-1b99-45a3-b4d3-1fde205d8a11"}},{"fullUrl":"https://madie.cms.gov/Encounter/9d26d1af-8ccc-4bbf-b1f3-dd455ba70b45","resource":{"resourceType":"Encounter","id":"9d26d1af-8ccc-4bbf-b1f3-dd455ba70b45","meta":{"profile":["http://hl7.org/fhir/us/qicore/StructureDefinition/qicore-encounter"]},"status":"finished","class":{"system":"http://terminology.hl7.org/CodeSystem/v3-ActCode","code":"IMP","display":"inpatient encounter"},"type":[{"coding":[{"system":"http://snomed.info/sct","code":"8715000"}]}],"subject":{"reference":"Patient/dd5a1e46-1b99-45a3-b4d3-1fde205d8a11"},"period":{"start":"2026-11-01T08:00:00.000+00:00","end":"2026-11-26T08:15:00.000+00:00"},"length":{"value":25,"unit":"days"}},"request":{"method":"PUT","url":"Encounter/9d26d1af-8ccc-4bbf-b1f3-dd455ba70b45"}},{"fullUrl":"https://madie.cms.gov/Coverage/6c7d570e-673b-43d1-b815-cc12ce73da9a","resource":{"resourceType":"Coverage","id":"6c7d570e-673b-43d1-b815-cc12ce73da9a","status":"active","beneficiary":{"reference":"Patient/dd5a1e46-1b99-45a3-b4d3-1fde205d8a11"},"period":{"start":"1975-01-02T08:00:00.000+00:00"},"payor":[{"reference":"Organization/0b75d9d9-9be0-4b11-ae15-1f277cb9eb08"}]},"request":{"method":"PUT","url":"Coverage/6c7d570e-673b-43d1-b815-cc12ce73da9a"}},{"fullUrl":"https://madie.cms.gov/Condition/f811d371-e0af-4358-b6fd-e648fe513744","resource":{"resourceType":"Condition","id":"f811d371-e0af-4358-b6fd-e648fe513744","meta":{"profile":["http://hl7.org/fhir/us/qicore/StructureDefinition/qicore-condition-problems-health-concerns"]},"clinicalStatus":{"coding":[{"system":"http://terminology.hl7.org/CodeSystem/condition-clinical","code":"remission","display":"remission","userSelected":true}]},"verificationStatus":{"coding":[{"system":"http://terminology.hl7.org/CodeSystem/condition-ver-status","code":"confirmed","display":"confirmed","userSelected":true}]},"category":[{"coding":[{"system":"http://terminology.hl7.org/CodeSystem/condition-category","code":"problem-list-item","display":"Problem List Item"}]}],"code":{"coding":[{"system":"http://snomed.info/sct","code":"1001000119102","display":"Pulmonary embolism with pulmonary"}]},"subject":{"reference":"Patient/dd5a1e46-1b99-45a3-b4d3-1fde205d8a11"},"onsetPeriod":{"start":"2026-10-09T08:00:00.000+00:00","end":"2026-10-09T08:15:00.000+00:00"}},"request":{"method":"PUT","url":"Condition/f811d371-e0af-4358-b6fd-e648fe513744"}},{"fullUrl":"https://madie.cms.gov/MedicationAdministration/7d5a7e4f-f719-416c-96fa-306863672384","resource":{"resourceType":"MedicationAdministration","id":"7d5a7e4f-f719-416c-96fa-306863672384","meta":{"profile":["http://hl7.org/fhir/us/qicore/StructureDefinition/qicore-medicationadministration"]},"status":"completed","medicationCodeableConcept":{"coding":[{"system":"http://www.nlm.nih.gov/research/umls/rxnorm","code":"1599543","display":"edoxaban 15 MG Oral Tablet"}]},"subject":{"reference":"Patient/dd5a1e46-1b99-45a3-b4d3-1fde205d8a11"},"effectivePeriod":{"start":"2026-11-01T11:00:00.000+00:00","end":"2026-11-01T11:05:00.000+00:00"}},"request":{"method":"PUT","url":"MedicationAdministration/7d5a7e4f-f719-416c-96fa-306863672384"}},{"fullUrl":"https://madie.cms.gov/Organization/0b75d9d9-9be0-4b11-ae15-1f277cb9eb08","resource":{"resourceType":"Organization","id":"0b75d9d9-9be0-4b11-ae15-1f277cb9eb08","meta":{"profile":["http://hl7.org/fhir/us/qicore/StructureDefinition/qicore-organization"]},"identifier":[{"use":"temp","system":"urn:oid:2.16.840.1.113883.4.4","value":"21-3259825"}],"active":true,"type":[{"coding":[{"system":"http://terminology.hl7.org/CodeSystem/organization-type","code":"pay","display":"Payer"}]}],"name":"Blue Cross Blue Shield of Texas","telecom":[{"system":"phone","value":"(+1) 972-766-6900"}],"address":[{"use":"billing","type":"postal","line":["P.O. Box 660044"],"city":"Dallas","state":"TX","postalCode":"75266-0044","country":"USA"}]},"request":{"method":"PUT","url":"Organization/0b75d9d9-9be0-4b11-ae15-1f277cb9eb08"}},{"fullUrl":"https://madie.cms.gov/MeasureReport/69fd22e3-7484-45de-bf3e-323e225494e7","resource":{"resourceType":"MeasureReport","id":"69fd22e3-7484-45de-bf3e-323e225494e7","meta":{"profile":["http://hl7.org/fhir/us/cqfmeasures/StructureDefinition/test-case-cqfm"]},"contained":[{"resourceType":"Parameters","id":"e82e1aca-c978-4019-8675-b3464318f88e-parameters","parameter":[{"name":"subject","valueString":"dd5a1e46-1b99-45a3-b4d3-1fde205d8a11"}]}],"extension":[{"url":"http://hl7.org/fhir/StructureDefinition/cqf-inputParameters","valueReference":{"reference":"#e82e1aca-c978-4019-8675-b3464318f88e-parameters"}},{"url":"http://hl7.org/fhir/us/cqfmeasures/StructureDefinition/cqfm-testCaseDescription","valueMarkdown":"To test and cover Condition. clinicalStatus  in remission. >18, LOS<120 day. Medication, Administered: Oral Factor Xa Inhibitor for VTE Prophylaxis with diagnosis of  VTE starts before the encounter."}],"modifierExtension":[{"url":"http://hl7.org/fhir/us/cqfmeasures/StructureDefinition/cqfm-isTestCase","valueBoolean":true}],"status":"complete","type":"individual","measure":"https://madie.cms.gov/Measure/CMS108FHIRVTEProphylaxis","period":{"start":"2026-01-01","end":"2026-12-31"},"group":[{"id":"Group_1","population":[{"id":"InitialPopulation_1","code":{"coding":[{"system":"http://terminology.hl7.org/CodeSystem/measure-population","code":"initial-population","display":"Initial Population"}]},"count":1},{"id":"Denominator_1","code":{"coding":[{"system":"http://terminology.hl7.org/CodeSystem/measure-population","code":"denominator","display":"Denominator"}]},"count":1},{"id":"DenominatorExclusion_1","code":{"coding":[{"system":"http://terminology.hl7.org/CodeSystem/measure-population","code":"denominator-exclusion","display":"Denominator Exclusion"}]},"count":0},{"id":"Numerator_1","code":{"coding":[{"system":"http://terminology.hl7.org/CodeSystem/measure-population","code":"numerator","display":"Numerator"}]},"count":1}],"measureScore":{"value":0.0}}],"evaluatedResource":[{"reference":"Patient/dd5a1e46-1b99-45a3-b4d3-1fde205d8a11"},{"reference":"Encounter/9d26d1af-8ccc-4bbf-b1f3-dd455ba70b45"},{"reference":"Coverage/6c7d570e-673b-43d1-b815-cc12ce73da9a"},{"reference":"Condition/f811d371-e0af-4358-b6fd-e648fe513744"},{"reference":"MedicationAdministration/7d5a7e4f-f719-416c-96fa-306863672384"},{"reference":"Organization/0b75d9d9-9be0-4b11-ae15-1f277cb9eb08"}]},"request":{"method":"PUT","url":"MeasureReport/69fd22e3-7484-45de-bf3e-323e225494e7"}}]},"request":{"method":"PUT","url":"Bundle/tests-dd5a1e46-1b99-45a3-b4d3-1fde205d8a11-bundle"}}]}