{"resourceType":"Bundle","id":"tests-e6416748-51e0-4103-b9dd-680aa0b0ccdb-bundle","type":"transaction","entry":[{"fullUrl":"Bundle/tests-e6416748-51e0-4103-b9dd-680aa0b0ccdb-bundle","resource":{"resourceType":"Bundle","id":"tests-e6416748-51e0-4103-b9dd-680aa0b0ccdb-bundle","type":"transaction","entry":[{"fullUrl":"https://madie.cms.gov/Patient/e6416748-51e0-4103-b9dd-680aa0b0ccdb","resource":{"resourceType":"Patient","id":"e6416748-51e0-4103-b9dd-680aa0b0ccdb","meta":{"profile":["http://hl7.org/fhir/us/qicore/StructureDefinition/qicore-patient"]},"text":{"status":"generated","div":"<div xmlns=\"http://www.w3.org/1999/xhtml\"><div class=\"hapiHeaderText\">HipSurgRank1 <b>DENEXPASS </b></div><table class=\"hapiPropertyTable\"><tbody><tr><td>Identifier</td><td>66c70c125db369967b4b164e75338304</td></tr><tr><td>Date of birth</td><td><span>01 September 2000</span></td></tr></tbody></table></div>"},"extension":[{"url":"http://hl7.org/fhir/us/core/StructureDefinition/us-core-race","extension":[{"url":"ombCategory","valueCoding":{"system":"urn:oid:2.16.840.1.113883.6.238","code":"1002-5","display":"American Indian or Alaska Native","userSelected":true}},{"url":"text","valueString":"American Indian or Alaska Native"}]},{"url":"http://hl7.org/fhir/us/core/StructureDefinition/us-core-ethnicity","extension":[{"url":"ombCategory","valueCoding":{"system":"urn:oid:2.16.840.1.113883.6.238","code":"2135-2","display":"Hispanic or Latino","userSelected":true}},{"url":"text","valueString":"Hispanic or Latino"}]}],"identifier":[{"type":{"coding":[{"system":"http://terminology.hl7.org/CodeSystem/v2-0203","code":"MR"}]},"system":"https://bonnie-fhir.healthit.gov/","value":"612e6b0202c62a011f2ec156"}],"active":true,"name":[{"use":"usual","family":"DENEXPass ","given":["HipSurgRank1"]}],"gender":"male","birthDate":"2001-09-01"},"request":{"method":"PUT","url":"Patient/e6416748-51e0-4103-b9dd-680aa0b0ccdb"}},{"fullUrl":"https://madie.cms.gov/Encounter/350db56b-b8cf-4c33-a606-0743c92275a5","resource":{"resourceType":"Encounter","id":"350db56b-b8cf-4c33-a606-0743c92275a5","meta":{"profile":["http://hl7.org/fhir/us/qicore/StructureDefinition/qicore-encounter"]},"status":"finished","class":{"system":"http://terminology.hl7.org/CodeSystem/v3-ActCode","code":"IMP","display":"inpatient encounter"},"type":[{"coding":[{"system":"http://snomed.info/sct","code":"183452005"}]}],"subject":{"reference":"Patient/e6416748-51e0-4103-b9dd-680aa0b0ccdb"},"period":{"start":"2026-09-02T06:00:00.000+00:00","end":"2026-12-31T12:59:00.000+00:00"},"length":{"value":120,"unit":"days"}},"request":{"method":"PUT","url":"Encounter/350db56b-b8cf-4c33-a606-0743c92275a5"}},{"fullUrl":"https://madie.cms.gov/claim/5ca62962b8484628b8de1ec5","resource":{"resourceType":"Claim","id":"5ca62962b8484628b8de1ec5","meta":{"profile":["http://hl7.org/fhir/us/qicore/StructureDefinition/qicore-claim"]},"status":"active","type":{"coding":[{"system":"http://terminology.hl7.org/CodeSystem/claim-type","code":"institutional"}]},"use":"claim","patient":{"reference":"Patient/e6416748-51e0-4103-b9dd-680aa0b0ccdb"},"created":"2026-12-01","provider":{"reference":"Practitioner/12900761-11b6-47b5-b9f7-fa9b9684372e"},"priority":{"coding":[{"system":"http://terminology.hl7.org/CodeSystem/processpriority","code":"normal"}]},"procedure":[{"sequence":1,"type":[{"coding":[{"system":"http://terminology.hl7.org/CodeSystem/ex-procedure-type","code":"primary"}]}],"procedureCodeableConcept":{"coding":[{"system":"http://www.cms.gov/Medicare/Coding/ICD10","code":"0SWW0JZ"}]}}],"insurance":[{"sequence":1,"focal":true,"coverage":{"reference":"Coverage/d03901d3-4810-4f4d-a868-64ead3b90f4b"}}],"item":[{"sequence":1,"procedureSequence":[1],"productOrService":{"coding":[{"system":"http://terminology.hl7.org/CodeSystem/ex-USCLS","code":"99555"}]},"encounter":[{"reference":"Encounter/350db56b-b8cf-4c33-a606-0743c92275a5"}]}]},"request":{"method":"PUT","url":"Claim/5ca62962b8484628b8de1ec5"}},{"fullUrl":"https://madie.cms.gov/Coverage/d03901d3-4810-4f4d-a868-64ead3b90f4b","resource":{"resourceType":"Coverage","id":"d03901d3-4810-4f4d-a868-64ead3b90f4b","status":"active","beneficiary":{"reference":"Patient/e6416748-51e0-4103-b9dd-680aa0b0ccdb"},"period":{"start":"2001-09-01T08:00:00.000+00:00"},"payor":[{"reference":"Organization/5c0fa39f-964a-4532-80c0-872e341f5fed"}]},"request":{"method":"PUT","url":"Coverage/d03901d3-4810-4f4d-a868-64ead3b90f4b"}},{"fullUrl":"https://madie.cms.gov/Procedure/c1d94937-1e02-472e-81ea-1ea690b523cf","resource":{"resourceType":"Procedure","id":"c1d94937-1e02-472e-81ea-1ea690b523cf","meta":{"profile":["http://hl7.org/fhir/us/qicore/StructureDefinition/qicore-procedure"]},"extension":[{"url":"http://hl7.org/fhir/us/qicore/StructureDefinition/qicore-recorded","valueDateTime":"2013-09-02T13:35:00.000+00:00"}],"status":"completed","code":{"coding":[{"system":"http://www.cms.gov/Medicare/Coding/ICD10","code":"0SWW0JZ"}]},"subject":{"reference":"Patient/e6416748-51e0-4103-b9dd-680aa0b0ccdb"},"performedPeriod":{"start":"2026-09-02T09:00:00.000+00:00","end":"2026-09-02T12:59:00.000+00:00"}},"request":{"method":"PUT","url":"Procedure/c1d94937-1e02-472e-81ea-1ea690b523cf"}},{"fullUrl":"https://madie.cms.gov/Organization/5c0fa39f-964a-4532-80c0-872e341f5fed","resource":{"resourceType":"Organization","id":"5c0fa39f-964a-4532-80c0-872e341f5fed","meta":{"profile":["http://hl7.org/fhir/us/qicore/StructureDefinition/qicore-organization"]},"identifier":[{"use":"temp","system":"urn:oid:2.16.840.1.113883.4.4","value":"21-3259825"}],"active":true,"type":[{"coding":[{"system":"http://terminology.hl7.org/CodeSystem/organization-type","code":"pay","display":"Payer"}]}],"name":"Blue Cross Blue Shield of Texas","telecom":[{"system":"phone","value":"(+1) 972-766-6900"}],"address":[{"use":"billing","type":"postal","line":["P.O. Box 660044"],"city":"Dallas","state":"TX","postalCode":"75266-0044","country":"USA"}]},"request":{"method":"PUT","url":"Organization/5c0fa39f-964a-4532-80c0-872e341f5fed"}},{"fullUrl":"https://madie.cms.gov/Practitioner/12900761-11b6-47b5-b9f7-fa9b9684372e","resource":{"resourceType":"Practitioner","id":"12900761-11b6-47b5-b9f7-fa9b9684372e","identifier":[{"system":"http://hl7.org/fhir/sid/us-npi","value":"123456"}],"name":[{"family":"Evil","prefix":["Dr"]}]},"request":{"method":"PUT","url":"Practitioner/12900761-11b6-47b5-b9f7-fa9b9684372e"}},{"fullUrl":"https://madie.cms.gov/MeasureReport/64744655-78c1-49ea-98eb-925141323123","resource":{"resourceType":"MeasureReport","id":"64744655-78c1-49ea-98eb-925141323123","meta":{"profile":["http://hl7.org/fhir/us/cqfmeasures/StructureDefinition/test-case-cqfm"]},"contained":[{"resourceType":"Parameters","id":"9327d8b5-cd25-484c-a855-f43a03257d8e-parameters","parameter":[{"name":"subject","valueString":"e6416748-51e0-4103-b9dd-680aa0b0ccdb"}]}],"extension":[{"url":"http://hl7.org/fhir/StructureDefinition/cqf-inputParameters","valueReference":{"reference":"#9327d8b5-cd25-484c-a855-f43a03257d8e-parameters"}},{"url":"http://hl7.org/fhir/us/cqfmeasures/StructureDefinition/cqfm-testCaseDescription","valueMarkdown":"Patient had SCIP -KneeSurg during Encounter and Rank =1\n"}],"modifierExtension":[{"url":"http://hl7.org/fhir/us/cqfmeasures/StructureDefinition/cqfm-isTestCase","valueBoolean":true}],"status":"complete","type":"individual","measure":"https://madie.cms.gov/Measure/CMS108FHIRVTEProphylaxis","period":{"start":"2026-01-01","end":"2026-12-31"},"group":[{"id":"Group_1","population":[{"id":"InitialPopulation_1","code":{"coding":[{"system":"http://terminology.hl7.org/CodeSystem/measure-population","code":"initial-population","display":"Initial Population"}]},"count":1},{"id":"Denominator_1","code":{"coding":[{"system":"http://terminology.hl7.org/CodeSystem/measure-population","code":"denominator","display":"Denominator"}]},"count":1},{"id":"DenominatorExclusion_1","code":{"coding":[{"system":"http://terminology.hl7.org/CodeSystem/measure-population","code":"denominator-exclusion","display":"Denominator Exclusion"}]},"count":1},{"id":"Numerator_1","code":{"coding":[{"system":"http://terminology.hl7.org/CodeSystem/measure-population","code":"numerator","display":"Numerator"}]},"count":0}],"measureScore":{"value":0.0}}],"evaluatedResource":[{"reference":"Patient/e6416748-51e0-4103-b9dd-680aa0b0ccdb"},{"reference":"Encounter/350db56b-b8cf-4c33-a606-0743c92275a5"},{"reference":"Claim/5ca62962b8484628b8de1ec5"},{"reference":"Coverage/d03901d3-4810-4f4d-a868-64ead3b90f4b"},{"reference":"Procedure/c1d94937-1e02-472e-81ea-1ea690b523cf"},{"reference":"Organization/5c0fa39f-964a-4532-80c0-872e341f5fed"},{"reference":"Practitioner/12900761-11b6-47b5-b9f7-fa9b9684372e"}]},"request":{"method":"PUT","url":"MeasureReport/64744655-78c1-49ea-98eb-925141323123"}}]},"request":{"method":"PUT","url":"Bundle/tests-e6416748-51e0-4103-b9dd-680aa0b0ccdb-bundle"}}]}