{"resourceType":"Bundle","id":"tests-3ca65cc7-2f5b-4d0b-987f-dfd9a26fd0ea-bundle","type":"transaction","entry":[{"fullUrl":"Bundle/tests-3ca65cc7-2f5b-4d0b-987f-dfd9a26fd0ea-bundle","resource":{"resourceType":"Bundle","id":"tests-3ca65cc7-2f5b-4d0b-987f-dfd9a26fd0ea-bundle","type":"transaction","entry":[{"fullUrl":"https://madie.cms.gov/Patient/3ca65cc7-2f5b-4d0b-987f-dfd9a26fd0ea","resource":{"resourceType":"Patient","id":"3ca65cc7-2f5b-4d0b-987f-dfd9a26fd0ea","meta":{"profile":["http://hl7.org/fhir/us/qicore/StructureDefinition/qicore-patient"]},"text":{"status":"generated","div":"<div xmlns=\"http://www.w3.org/1999/xhtml\"><div class=\"hapiHeaderText\">CMOPerf_RvltDTDayofAnesRvltDT <b>DENEXPASS </b></div><table class=\"hapiPropertyTable\"><tbody><tr><td>Identifier</td><td>ee7153b84916a96927e2b346d9ea62ff</td></tr><tr><td>Date of birth</td><td><span>02 January 1974</span></td></tr></tbody></table></div>"},"extension":[{"url":"http://hl7.org/fhir/us/core/StructureDefinition/us-core-race","extension":[{"url":"ombCategory","valueCoding":{"system":"urn:oid:2.16.840.1.113883.6.238","code":"1002-5","display":"American Indian or Alaska Native","userSelected":true}},{"url":"text","valueString":"American Indian or Alaska Native"}]},{"url":"http://hl7.org/fhir/us/core/StructureDefinition/us-core-ethnicity","extension":[{"url":"ombCategory","valueCoding":{"system":"urn:oid:2.16.840.1.113883.6.238","code":"2135-2","display":"Hispanic or Latino","userSelected":true}},{"url":"text","valueString":"Hispanic or Latino"}]}],"identifier":[{"type":{"coding":[{"system":"http://terminology.hl7.org/CodeSystem/v2-0203","code":"MR"}]},"system":"https://bonnie-fhir.healthit.gov/","value":"612e6b2102c62a011f2ec95b"}],"active":true,"name":[{"use":"usual","family":"DENEXPass","given":["CMOPerfRvltDTDayofAnesRvltDT"]}],"gender":"male","birthDate":"1975-01-02"},"request":{"method":"PUT","url":"Patient/3ca65cc7-2f5b-4d0b-987f-dfd9a26fd0ea"}},{"fullUrl":"https://madie.cms.gov/Encounter/30fa67f2-aad6-4ec1-862f-9423d3ba68b9","resource":{"resourceType":"Encounter","id":"30fa67f2-aad6-4ec1-862f-9423d3ba68b9","meta":{"profile":["http://hl7.org/fhir/us/qicore/StructureDefinition/qicore-encounter"]},"status":"finished","class":{"system":"http://terminology.hl7.org/CodeSystem/v3-ActCode","code":"IMP","display":"inpatient encounter"},"type":[{"coding":[{"system":"http://snomed.info/sct","code":"8715000"}]}],"subject":{"reference":"Patient/3ca65cc7-2f5b-4d0b-987f-dfd9a26fd0ea"},"period":{"start":"2026-11-01T08:00:00.000+00:00","end":"2026-11-26T08:15:00.000+00:00"},"length":{"value":25,"unit":"days"}},"request":{"method":"PUT","url":"Encounter/30fa67f2-aad6-4ec1-862f-9423d3ba68b9"}},{"fullUrl":"https://madie.cms.gov/Procedure/acea30c2-8938-40cc-85ce-8b9ce29d22ec","resource":{"resourceType":"Procedure","id":"acea30c2-8938-40cc-85ce-8b9ce29d22ec","meta":{"profile":["http://hl7.org/fhir/us/qicore/StructureDefinition/qicore-procedure"]},"extension":[{"url":"http://hl7.org/fhir/us/qicore/StructureDefinition/qicore-recorded","valueDateTime":"2013-11-02T13:35:00.000+00:00"}],"status":"completed","code":{"coding":[{"system":"http://snomed.info/sct","code":"133918004"}]},"subject":{"reference":"Patient/3ca65cc7-2f5b-4d0b-987f-dfd9a26fd0ea"},"performedDateTime":"2026-11-02T08:00:00.000+00:00"},"request":{"method":"PUT","url":"Procedure/acea30c2-8938-40cc-85ce-8b9ce29d22ec"}},{"fullUrl":"https://madie.cms.gov/Coverage/0425f59b-8627-42ad-a61a-324ccb7b9faa","resource":{"resourceType":"Coverage","id":"0425f59b-8627-42ad-a61a-324ccb7b9faa","status":"active","beneficiary":{"reference":"Patient/3ca65cc7-2f5b-4d0b-987f-dfd9a26fd0ea"},"period":{"start":"1975-01-02T08:00:00.000+00:00"},"payor":[{"reference":"Organization/5cbebf61-b026-4732-8bec-8307b713a364"}]},"request":{"method":"PUT","url":"Coverage/0425f59b-8627-42ad-a61a-324ccb7b9faa"}},{"fullUrl":"https://madie.cms.gov/Procedure/bfae260a-b835-4497-b8a8-3312bd75bad3","resource":{"resourceType":"Procedure","id":"bfae260a-b835-4497-b8a8-3312bd75bad3","meta":{"profile":["http://hl7.org/fhir/us/qicore/StructureDefinition/qicore-procedure"]},"extension":[{"url":"http://hl7.org/fhir/us/qicore/StructureDefinition/qicore-recorded","valueDateTime":"2013-11-03T13:35:00.000+00:00"}],"status":"completed","code":{"coding":[{"system":"http://www.cms.gov/Medicare/Coding/ICD10","code":"3E030FZ"}]},"subject":{"reference":"Patient/3ca65cc7-2f5b-4d0b-987f-dfd9a26fd0ea"},"performedDateTime":"2026-11-02T09:15:00.000+00:00"},"request":{"method":"PUT","url":"Procedure/bfae260a-b835-4497-b8a8-3312bd75bad3"}},{"fullUrl":"https://madie.cms.gov/Organization/5cbebf61-b026-4732-8bec-8307b713a364","resource":{"resourceType":"Organization","id":"5cbebf61-b026-4732-8bec-8307b713a364","meta":{"profile":["http://hl7.org/fhir/us/qicore/StructureDefinition/qicore-organization"]},"identifier":[{"use":"temp","system":"urn:oid:2.16.840.1.113883.4.4","value":"21-3259825"}],"active":true,"type":[{"coding":[{"system":"http://terminology.hl7.org/CodeSystem/organization-type","code":"pay","display":"Payer"}]}],"name":"Blue Cross Blue Shield of Texas","telecom":[{"system":"phone","value":"(+1) 972-766-6900"}],"address":[{"use":"billing","type":"postal","line":["P.O. Box 660044"],"city":"Dallas","state":"TX","postalCode":"75266-0044","country":"USA"}]},"request":{"method":"PUT","url":"Organization/5cbebf61-b026-4732-8bec-8307b713a364"}},{"fullUrl":"https://madie.cms.gov/Practitioner/cf485913-cc71-404d-aeda-305e5684419a","resource":{"resourceType":"Practitioner","id":"cf485913-cc71-404d-aeda-305e5684419a","identifier":[{"system":"http://hl7.org/fhir/sid/us-npi","value":"123456"}],"name":[{"family":"Evil","prefix":["Dr"]}]},"request":{"method":"PUT","url":"Practitioner/cf485913-cc71-404d-aeda-305e5684419a"}},{"fullUrl":"https://madie.cms.gov/MeasureReport/ed98b050-07e8-475a-a12b-9593de6dd15e","resource":{"resourceType":"MeasureReport","id":"ed98b050-07e8-475a-a12b-9593de6dd15e","meta":{"profile":["http://hl7.org/fhir/us/cqfmeasures/StructureDefinition/test-case-cqfm"]},"contained":[{"resourceType":"Parameters","id":"14abb865-3811-4910-926e-b5ec5d8c2997-parameters","parameter":[{"name":"subject","valueString":"3ca65cc7-2f5b-4d0b-987f-dfd9a26fd0ea"}]}],"extension":[{"url":"http://hl7.org/fhir/StructureDefinition/cqf-inputParameters","valueReference":{"reference":"#14abb865-3811-4910-926e-b5ec5d8c2997-parameters"}},{"url":"http://hl7.org/fhir/us/cqfmeasures/StructureDefinition/cqfm-testCaseDescription","valueMarkdown":"comfort measures performed revelantdatetime =0 day after end of anesthesia end revelantDatetime\n"}],"modifierExtension":[{"url":"http://hl7.org/fhir/us/cqfmeasures/StructureDefinition/cqfm-isTestCase","valueBoolean":true}],"status":"complete","type":"individual","measure":"https://madie.cms.gov/Measure/CMS108FHIRVTEProphylaxis","period":{"start":"2026-01-01","end":"2026-12-31"},"group":[{"id":"Group_1","population":[{"id":"InitialPopulation_1","code":{"coding":[{"system":"http://terminology.hl7.org/CodeSystem/measure-population","code":"initial-population","display":"Initial Population"}]},"count":1},{"id":"Denominator_1","code":{"coding":[{"system":"http://terminology.hl7.org/CodeSystem/measure-population","code":"denominator","display":"Denominator"}]},"count":1},{"id":"DenominatorExclusion_1","code":{"coding":[{"system":"http://terminology.hl7.org/CodeSystem/measure-population","code":"denominator-exclusion","display":"Denominator Exclusion"}]},"count":1},{"id":"Numerator_1","code":{"coding":[{"system":"http://terminology.hl7.org/CodeSystem/measure-population","code":"numerator","display":"Numerator"}]},"count":0}],"measureScore":{"value":0.0}}],"evaluatedResource":[{"reference":"Patient/3ca65cc7-2f5b-4d0b-987f-dfd9a26fd0ea"},{"reference":"Encounter/30fa67f2-aad6-4ec1-862f-9423d3ba68b9"},{"reference":"Procedure/acea30c2-8938-40cc-85ce-8b9ce29d22ec"},{"reference":"Coverage/0425f59b-8627-42ad-a61a-324ccb7b9faa"},{"reference":"Procedure/bfae260a-b835-4497-b8a8-3312bd75bad3"},{"reference":"Organization/5cbebf61-b026-4732-8bec-8307b713a364"},{"reference":"Practitioner/cf485913-cc71-404d-aeda-305e5684419a"}]},"request":{"method":"PUT","url":"MeasureReport/ed98b050-07e8-475a-a12b-9593de6dd15e"}}]},"request":{"method":"PUT","url":"Bundle/tests-3ca65cc7-2f5b-4d0b-987f-dfd9a26fd0ea-bundle"}}]}