{"resourceType":"Bundle","id":"tests-76f42831-b31b-48f0-9053-60754a77451c-bundle","type":"transaction","entry":[{"fullUrl":"Bundle/tests-76f42831-b31b-48f0-9053-60754a77451c-bundle","resource":{"resourceType":"Bundle","id":"tests-76f42831-b31b-48f0-9053-60754a77451c-bundle","type":"transaction","entry":[{"fullUrl":"https://madie.cms.gov/Patient/76f42831-b31b-48f0-9053-60754a77451c","resource":{"resourceType":"Patient","id":"76f42831-b31b-48f0-9053-60754a77451c","meta":{"profile":["http://hl7.org/fhir/us/qicore/StructureDefinition/qicore-patient"]},"text":{"status":"generated","div":"<div xmlns=\"http://www.w3.org/1999/xhtml\"><div class=\"hapiHeaderText\">HipSurgRank1 <b>DENEXPASS </b></div><table class=\"hapiPropertyTable\"><tbody><tr><td>Identifier</td><td>66c70c125db369967b4b164e75338304</td></tr><tr><td>Date of birth</td><td><span>01 September 2000</span></td></tr></tbody></table></div>"},"extension":[{"url":"http://hl7.org/fhir/us/core/StructureDefinition/us-core-race","extension":[{"url":"ombCategory","valueCoding":{"system":"urn:oid:2.16.840.1.113883.6.238","code":"1002-5","display":"American Indian or Alaska Native","userSelected":true}},{"url":"text","valueString":"American Indian or Alaska Native"}]},{"url":"http://hl7.org/fhir/us/core/StructureDefinition/us-core-ethnicity","extension":[{"url":"ombCategory","valueCoding":{"system":"urn:oid:2.16.840.1.113883.6.238","code":"2135-2","display":"Hispanic or Latino","userSelected":true}},{"url":"text","valueString":"Hispanic or Latino"}]}],"identifier":[{"type":{"coding":[{"system":"http://terminology.hl7.org/CodeSystem/v2-0203","code":"MR"}]},"system":"https://bonnie-fhir.healthit.gov/","value":"612e6b0202c62a011f2ec156"}],"active":true,"name":[{"use":"usual","family":"DENEXPass ","given":["HipSurgRank1"]}],"gender":"male","birthDate":"2001-09-01"},"request":{"method":"PUT","url":"Patient/76f42831-b31b-48f0-9053-60754a77451c"}},{"fullUrl":"https://madie.cms.gov/Encounter/a115b671-d9d2-4a09-89e0-a6067d5c79ce","resource":{"resourceType":"Encounter","id":"a115b671-d9d2-4a09-89e0-a6067d5c79ce","meta":{"profile":["http://hl7.org/fhir/us/qicore/StructureDefinition/qicore-encounter"]},"status":"finished","class":{"system":"http://terminology.hl7.org/CodeSystem/v3-ActCode","code":"IMP","display":"inpatient encounter"},"type":[{"coding":[{"system":"http://snomed.info/sct","code":"183452005"}]}],"subject":{"reference":"Patient/76f42831-b31b-48f0-9053-60754a77451c"},"period":{"start":"2026-09-02T06:00:00.000+00:00","end":"2026-12-31T12:59:00.000+00:00"},"length":{"value":120,"unit":"days"}},"request":{"method":"PUT","url":"Encounter/a115b671-d9d2-4a09-89e0-a6067d5c79ce"}},{"fullUrl":"https://madie.cms.gov/claim/5ca62962b8484628b8de1ec5","resource":{"resourceType":"Claim","id":"5ca62962b8484628b8de1ec5","meta":{"profile":["http://hl7.org/fhir/us/qicore/StructureDefinition/qicore-claim"]},"status":"active","type":{"coding":[{"system":"http://terminology.hl7.org/CodeSystem/claim-type","code":"institutional"}]},"use":"claim","patient":{"reference":"Patient/76f42831-b31b-48f0-9053-60754a77451c"},"created":"2026-12-01","provider":{"reference":"Practitioner/6317ba40-bdfb-4b47-ba89-02fe2d2c34c9"},"priority":{"coding":[{"system":"http://terminology.hl7.org/CodeSystem/processpriority","code":"normal"}]},"procedure":[{"sequence":1,"type":[{"coding":[{"system":"http://terminology.hl7.org/CodeSystem/ex-procedure-type","code":"primary"}]}],"procedureCodeableConcept":{"coding":[{"system":"http://www.cms.gov/Medicare/Coding/ICD10","code":"0SU90BZ"}]}}],"insurance":[{"sequence":1,"focal":true,"coverage":{"reference":"Coverage/02dec400-ea77-4f9a-8fb0-5e25aa327f35"}}],"item":[{"sequence":1,"procedureSequence":[1],"productOrService":{"coding":[{"system":"http://terminology.hl7.org/CodeSystem/ex-USCLS","code":"99555"}]},"encounter":[{"reference":"Encounter/a115b671-d9d2-4a09-89e0-a6067d5c79ce"}]}]},"request":{"method":"PUT","url":"Claim/5ca62962b8484628b8de1ec5"}},{"fullUrl":"https://madie.cms.gov/Coverage/02dec400-ea77-4f9a-8fb0-5e25aa327f35","resource":{"resourceType":"Coverage","id":"02dec400-ea77-4f9a-8fb0-5e25aa327f35","status":"active","beneficiary":{"reference":"Patient/76f42831-b31b-48f0-9053-60754a77451c"},"period":{"start":"2001-09-01T08:00:00.000+00:00"},"payor":[{"reference":"Organization/063d2331-3422-4310-b26e-90e30e391813"}]},"request":{"method":"PUT","url":"Coverage/02dec400-ea77-4f9a-8fb0-5e25aa327f35"}},{"fullUrl":"https://madie.cms.gov/Procedure/079b5991-c6be-4679-a56a-845eec6929d9","resource":{"resourceType":"Procedure","id":"079b5991-c6be-4679-a56a-845eec6929d9","meta":{"profile":["http://hl7.org/fhir/us/qicore/StructureDefinition/qicore-procedure"]},"extension":[{"url":"http://hl7.org/fhir/us/qicore/StructureDefinition/qicore-recorded","valueDateTime":"2013-09-02T13:35:00.000+00:00"}],"status":"completed","code":{"coding":[{"system":"http://www.cms.gov/Medicare/Coding/ICD10","code":"0SU90BZ"}]},"subject":{"reference":"Patient/76f42831-b31b-48f0-9053-60754a77451c"},"performedPeriod":{"start":"2026-09-02T09:00:00.000+00:00","end":"2026-09-02T12:59:00.000+00:00"}},"request":{"method":"PUT","url":"Procedure/079b5991-c6be-4679-a56a-845eec6929d9"}},{"fullUrl":"https://madie.cms.gov/Organization/063d2331-3422-4310-b26e-90e30e391813","resource":{"resourceType":"Organization","id":"063d2331-3422-4310-b26e-90e30e391813","meta":{"profile":["http://hl7.org/fhir/us/qicore/StructureDefinition/qicore-organization"]},"identifier":[{"use":"temp","system":"urn:oid:2.16.840.1.113883.4.4","value":"21-3259825"}],"active":true,"type":[{"coding":[{"system":"http://terminology.hl7.org/CodeSystem/organization-type","code":"pay","display":"Payer"}]}],"name":"Blue Cross Blue Shield of Texas","telecom":[{"system":"phone","value":"(+1) 972-766-6900"}],"address":[{"use":"billing","type":"postal","line":["P.O. Box 660044"],"city":"Dallas","state":"TX","postalCode":"75266-0044","country":"USA"}]},"request":{"method":"PUT","url":"Organization/063d2331-3422-4310-b26e-90e30e391813"}},{"fullUrl":"https://madie.cms.gov/Practitioner/6317ba40-bdfb-4b47-ba89-02fe2d2c34c9","resource":{"resourceType":"Practitioner","id":"6317ba40-bdfb-4b47-ba89-02fe2d2c34c9","identifier":[{"system":"http://hl7.org/fhir/sid/us-npi","value":"123456"}],"name":[{"family":"Evil","prefix":["Dr"]}]},"request":{"method":"PUT","url":"Practitioner/6317ba40-bdfb-4b47-ba89-02fe2d2c34c9"}},{"fullUrl":"https://madie.cms.gov/MeasureReport/92dd2cc5-bcf5-4b35-b8c5-2763371803cb","resource":{"resourceType":"MeasureReport","id":"92dd2cc5-bcf5-4b35-b8c5-2763371803cb","meta":{"profile":["http://hl7.org/fhir/us/cqfmeasures/StructureDefinition/test-case-cqfm"]},"contained":[{"resourceType":"Parameters","id":"c092e25e-a460-49a2-954a-d627a65775b8-parameters","parameter":[{"name":"subject","valueString":"76f42831-b31b-48f0-9053-60754a77451c"}]}],"extension":[{"url":"http://hl7.org/fhir/StructureDefinition/cqf-inputParameters","valueReference":{"reference":"#c092e25e-a460-49a2-954a-d627a65775b8-parameters"}},{"url":"http://hl7.org/fhir/us/cqfmeasures/StructureDefinition/cqfm-testCaseDescription","valueMarkdown":"Patient had SCIP -Hip Replacemnet during Encounter and Rank =1\n"}],"modifierExtension":[{"url":"http://hl7.org/fhir/us/cqfmeasures/StructureDefinition/cqfm-isTestCase","valueBoolean":true}],"status":"complete","type":"individual","measure":"https://madie.cms.gov/Measure/CMS108FHIRVTEProphylaxis","period":{"start":"2026-01-01","end":"2026-12-31"},"group":[{"id":"Group_1","population":[{"id":"InitialPopulation_1","code":{"coding":[{"system":"http://terminology.hl7.org/CodeSystem/measure-population","code":"initial-population","display":"Initial Population"}]},"count":1},{"id":"Denominator_1","code":{"coding":[{"system":"http://terminology.hl7.org/CodeSystem/measure-population","code":"denominator","display":"Denominator"}]},"count":1},{"id":"DenominatorExclusion_1","code":{"coding":[{"system":"http://terminology.hl7.org/CodeSystem/measure-population","code":"denominator-exclusion","display":"Denominator Exclusion"}]},"count":1},{"id":"Numerator_1","code":{"coding":[{"system":"http://terminology.hl7.org/CodeSystem/measure-population","code":"numerator","display":"Numerator"}]},"count":0}],"measureScore":{"value":0.0}}],"evaluatedResource":[{"reference":"Patient/76f42831-b31b-48f0-9053-60754a77451c"},{"reference":"Encounter/a115b671-d9d2-4a09-89e0-a6067d5c79ce"},{"reference":"Claim/5ca62962b8484628b8de1ec5"},{"reference":"Coverage/02dec400-ea77-4f9a-8fb0-5e25aa327f35"},{"reference":"Procedure/079b5991-c6be-4679-a56a-845eec6929d9"},{"reference":"Organization/063d2331-3422-4310-b26e-90e30e391813"},{"reference":"Practitioner/6317ba40-bdfb-4b47-ba89-02fe2d2c34c9"}]},"request":{"method":"PUT","url":"MeasureReport/92dd2cc5-bcf5-4b35-b8c5-2763371803cb"}}]},"request":{"method":"PUT","url":"Bundle/tests-76f42831-b31b-48f0-9053-60754a77451c-bundle"}}]}