{"resourceType":"Bundle","id":"tests-9696b1d1-693b-42f8-96a2-95f379e245a4-bundle","type":"transaction","entry":[{"fullUrl":"Bundle/tests-9696b1d1-693b-42f8-96a2-95f379e245a4-bundle","resource":{"resourceType":"Bundle","id":"tests-9696b1d1-693b-42f8-96a2-95f379e245a4-bundle","type":"transaction","entry":[{"fullUrl":"https://madie.cms.gov/Patient/9696b1d1-693b-42f8-96a2-95f379e245a4","resource":{"resourceType":"Patient","id":"9696b1d1-693b-42f8-96a2-95f379e245a4","meta":{"profile":["http://hl7.org/fhir/us/qicore/StructureDefinition/qicore-patient"]},"text":{"status":"generated","div":"<div xmlns=\"http://www.w3.org/1999/xhtml\"><div class=\"hapiHeaderText\">MA_RixDuringED <b>NUMERPASS </b></div><table class=\"hapiPropertyTable\"><tbody><tr><td>Identifier</td><td>9ac41bff10ef3353d0742df1f73dc984</td></tr><tr><td>Date of birth</td><td><span>02 January 1974</span></td></tr></tbody></table></div>"},"extension":[{"url":"http://hl7.org/fhir/us/core/StructureDefinition/us-core-race","extension":[{"url":"ombCategory","valueCoding":{"system":"urn:oid:2.16.840.1.113883.6.238","code":"1002-5","display":"American Indian or Alaska Native","userSelected":true}},{"url":"text","valueString":"American Indian or Alaska Native"}]},{"url":"http://hl7.org/fhir/us/core/StructureDefinition/us-core-ethnicity","extension":[{"url":"ombCategory","valueCoding":{"system":"urn:oid:2.16.840.1.113883.6.238","code":"2135-2","display":"Hispanic or Latino","userSelected":true}},{"url":"text","valueString":"Hispanic or Latino"}]}],"identifier":[{"type":{"coding":[{"system":"http://terminology.hl7.org/CodeSystem/v2-0203","code":"MR"}]},"system":"https://bonnie-fhir.healthit.gov/","value":"612e6b0e02c62a011f2ec40a"}],"active":true,"name":[{"use":"usual","family":"NUMERPass","given":["MARixDuringED"]}],"gender":"male","birthDate":"1975-01-02"},"request":{"method":"PUT","url":"Patient/9696b1d1-693b-42f8-96a2-95f379e245a4"}},{"fullUrl":"https://madie.cms.gov/Encounter/515877a8-f0e1-445b-ae8b-6ab61ae8b035","resource":{"resourceType":"Encounter","id":"515877a8-f0e1-445b-ae8b-6ab61ae8b035","meta":{"profile":["http://hl7.org/fhir/us/qicore/StructureDefinition/qicore-encounter"]},"status":"finished","class":{"system":"http://terminology.hl7.org/CodeSystem/v3-ActCode","code":"IMP","display":"inpatient encounter"},"type":[{"coding":[{"system":"http://snomed.info/sct","code":"8715000"}]}],"subject":{"reference":"Patient/9696b1d1-693b-42f8-96a2-95f379e245a4"},"period":{"start":"2026-11-01T08:00:00.000+00:00","end":"2026-11-26T08:15:00.000+00:00"},"length":{"value":25,"unit":"days"}},"request":{"method":"PUT","url":"Encounter/515877a8-f0e1-445b-ae8b-6ab61ae8b035"}},{"fullUrl":"https://madie.cms.gov/Encounter/0e7a8eba-0983-4b6a-b1a7-5e9fc6794b9c","resource":{"resourceType":"Encounter","id":"0e7a8eba-0983-4b6a-b1a7-5e9fc6794b9c","meta":{"profile":["http://hl7.org/fhir/us/qicore/StructureDefinition/qicore-encounter"]},"status":"finished","class":{"system":"http://terminology.hl7.org/CodeSystem/v3-ActCode","code":"EMER","display":"emergency"},"type":[{"coding":[{"system":"http://snomed.info/sct","code":"4525004"}]}],"subject":{"reference":"Patient/9696b1d1-693b-42f8-96a2-95f379e245a4"},"period":{"start":"2026-10-31T20:00:00.000+00:00","end":"2026-11-01T07:00:00.000+00:00"}},"request":{"method":"PUT","url":"Encounter/0e7a8eba-0983-4b6a-b1a7-5e9fc6794b9c"}},{"fullUrl":"https://madie.cms.gov/Coverage/fa358660-afad-4b6c-8654-adbc88de60e7","resource":{"resourceType":"Coverage","id":"fa358660-afad-4b6c-8654-adbc88de60e7","status":"active","beneficiary":{"reference":"Patient/9696b1d1-693b-42f8-96a2-95f379e245a4"},"period":{"start":"1975-01-02T08:00:00.000+00:00"},"payor":[{"reference":"Organization/b8728db5-ac1a-4caa-a598-3c4eec04a790"}]},"request":{"method":"PUT","url":"Coverage/fa358660-afad-4b6c-8654-adbc88de60e7"}},{"fullUrl":"https://madie.cms.gov/MedicationAdministration/ace1f395-3058-4103-9ae8-54a9ac36b801","resource":{"resourceType":"MedicationAdministration","id":"ace1f395-3058-4103-9ae8-54a9ac36b801","meta":{"profile":["http://hl7.org/fhir/us/qicore/StructureDefinition/qicore-medicationadministration"]},"status":"completed","medicationCodeableConcept":{"coding":[{"system":"http://www.nlm.nih.gov/research/umls/rxnorm","code":"1114198"}]},"subject":{"reference":"Patient/9696b1d1-693b-42f8-96a2-95f379e245a4"},"effectivePeriod":{"start":"2026-10-31T09:00:00.000+00:00","end":"2026-10-31T09:15:00.000+00:00"}},"request":{"method":"PUT","url":"MedicationAdministration/ace1f395-3058-4103-9ae8-54a9ac36b801"}},{"fullUrl":"https://madie.cms.gov/Organization/b8728db5-ac1a-4caa-a598-3c4eec04a790","resource":{"resourceType":"Organization","id":"b8728db5-ac1a-4caa-a598-3c4eec04a790","meta":{"profile":["http://hl7.org/fhir/us/qicore/StructureDefinition/qicore-organization"]},"identifier":[{"use":"temp","system":"urn:oid:2.16.840.1.113883.4.4","value":"21-3259825"}],"active":true,"type":[{"coding":[{"system":"http://terminology.hl7.org/CodeSystem/organization-type","code":"pay","display":"Payer"}]}],"name":"Blue Cross Blue Shield of Texas","telecom":[{"system":"phone","value":"(+1) 972-766-6900"}],"address":[{"use":"billing","type":"postal","line":["P.O. Box 660044"],"city":"Dallas","state":"TX","postalCode":"75266-0044","country":"USA"}]},"request":{"method":"PUT","url":"Organization/b8728db5-ac1a-4caa-a598-3c4eec04a790"}},{"fullUrl":"https://madie.cms.gov/MeasureReport/79e5e853-f630-4395-bae4-e49b48afb028","resource":{"resourceType":"MeasureReport","id":"79e5e853-f630-4395-bae4-e49b48afb028","meta":{"profile":["http://hl7.org/fhir/us/cqfmeasures/StructureDefinition/test-case-cqfm"]},"contained":[{"resourceType":"Parameters","id":"4368da8a-be98-469a-a8e6-d187efa7e50d-parameters","parameter":[{"name":"subject","valueString":"9696b1d1-693b-42f8-96a2-95f379e245a4"}]}],"extension":[{"url":"http://hl7.org/fhir/StructureDefinition/cqf-inputParameters","valueReference":{"reference":"#4368da8a-be98-469a-a8e6-d187efa7e50d-parameters"}},{"url":"http://hl7.org/fhir/us/cqfmeasures/StructureDefinition/cqfm-testCaseDescription","valueMarkdown":"Rivaroxaban for VTE Prophylaxis Med Administered during ED which ED = 1 hr ends Adm\n"}],"modifierExtension":[{"url":"http://hl7.org/fhir/us/cqfmeasures/StructureDefinition/cqfm-isTestCase","valueBoolean":true}],"status":"complete","type":"individual","measure":"https://madie.cms.gov/Measure/CMS108FHIRVTEProphylaxis","period":{"start":"2026-01-01","end":"2026-12-31"},"group":[{"id":"Group_1","population":[{"id":"InitialPopulation_1","code":{"coding":[{"system":"http://terminology.hl7.org/CodeSystem/measure-population","code":"initial-population","display":"Initial Population"}]},"count":1},{"id":"Denominator_1","code":{"coding":[{"system":"http://terminology.hl7.org/CodeSystem/measure-population","code":"denominator","display":"Denominator"}]},"count":1},{"id":"DenominatorExclusion_1","code":{"coding":[{"system":"http://terminology.hl7.org/CodeSystem/measure-population","code":"denominator-exclusion","display":"Denominator Exclusion"}]},"count":0},{"id":"Numerator_1","code":{"coding":[{"system":"http://terminology.hl7.org/CodeSystem/measure-population","code":"numerator","display":"Numerator"}]},"count":1}],"measureScore":{"value":0.0}}],"evaluatedResource":[{"reference":"Patient/9696b1d1-693b-42f8-96a2-95f379e245a4"},{"reference":"Encounter/515877a8-f0e1-445b-ae8b-6ab61ae8b035"},{"reference":"Encounter/0e7a8eba-0983-4b6a-b1a7-5e9fc6794b9c"},{"reference":"Coverage/fa358660-afad-4b6c-8654-adbc88de60e7"},{"reference":"MedicationAdministration/ace1f395-3058-4103-9ae8-54a9ac36b801"},{"reference":"Organization/b8728db5-ac1a-4caa-a598-3c4eec04a790"}]},"request":{"method":"PUT","url":"MeasureReport/79e5e853-f630-4395-bae4-e49b48afb028"}}]},"request":{"method":"PUT","url":"Bundle/tests-9696b1d1-693b-42f8-96a2-95f379e245a4-bundle"}}]}