{
  "resourceType": "Bundle",
  "id": "617b1149513b5d1ee28b757d",
  "type": "transaction",
  "entry": [ {
    "fullUrl": "https://madie.cms.gov/Patient/eab13a30-13ed-4b28-b460-4893998e0733",
    "resource": {
      "resourceType": "Patient",
      "id": "eab13a30-13ed-4b28-b460-4893998e0733",
      "meta": {
        "profile": [ "http://hl7.org/fhir/us/qicore/StructureDefinition/qicore-patient" ]
      },
      "extension": [ {
        "url": "http://hl7.org/fhir/us/core/StructureDefinition/us-core-race",
        "extension": [ {
          "url": "ombCategory",
          "valueCoding": {
            "system": "urn:oid:2.16.840.1.113883.6.238",
            "code": "2028-9",
            "display": "Asian",
            "userSelected": true
          }
        }, {
          "url": "text",
          "valueString": "Asian"
        } ]
      }, {
        "url": "http://hl7.org/fhir/us/core/StructureDefinition/us-core-ethnicity",
        "extension": [ {
          "url": "ombCategory",
          "valueCoding": {
            "system": "urn:oid:2.16.840.1.113883.6.238",
            "code": "2186-5",
            "display": "Not Hispanic or Latino",
            "userSelected": true
          }
        }, {
          "url": "text",
          "valueString": "Not Hispanic or Latino"
        } ]
      }, {
        "url": "http://hl7.org/fhir/us/core/StructureDefinition/us-core-sex",
        "valueCode": "248153007"
      } ],
      "identifier": [ {
        "type": {
          "coding": [ {
            "system": "http://terminology.hl7.org/CodeSystem/v2-0203",
            "code": "MR"
          } ]
        },
        "system": "https://bonnie-fhir.healthit.gov/",
        "value": "617b1149513b5d1ee28b757d"
      } ],
      "name": [ {
        "family": "DenExcl4Pass",
        "given": [ "DxStartsBeforeEndsAfterED" ]
      } ],
      "gender": "male",
      "birthDate": "1985-12-02"
    },
    "request": {
      "method": "PUT",
      "url": "Patient/eab13a30-13ed-4b28-b460-4893998e0733"
    }
  }, {
    "fullUrl": "https://madie.cms.gov/Encounter/4ac715b9-6e68-4091-8dff-d814290aefe3",
    "resource": {
      "resourceType": "Encounter",
      "id": "4ac715b9-6e68-4091-8dff-d814290aefe3",
      "meta": {
        "profile": [ "http://hl7.org/fhir/us/qicore/StructureDefinition/qicore-encounter" ]
      },
      "status": "finished",
      "class": {
        "system": "http://terminology.hl7.org/CodeSystem/v3-ActCode",
        "code": "EMER",
        "display": "emergency",
        "userSelected": true
      },
      "type": [ {
        "coding": [ {
          "system": "http://snomed.info/sct",
          "version": "2020-09",
          "code": "4525004",
          "display": "Emergency department patient visit (procedure)",
          "userSelected": true
        } ]
      } ],
      "subject": {
        "reference": "Patient/eab13a30-13ed-4b28-b460-4893998e0733"
      },
      "period": {
        "start": "2026-10-09T08:05:00.000+00:00",
        "end": "2026-10-10T07:15:00.000+00:00"
      },
      "reasonReference": [ {
        "reference": "Condition/fc6dd12e-92c0-4ab8-954a-dcd1e6723536"
      } ]
    },
    "request": {
      "method": "PUT",
      "url": "Encounter/4ac715b9-6e68-4091-8dff-d814290aefe3"
    }
  }, {
    "fullUrl": "https://madie.cms.gov/Condition/fc6dd12e-92c0-4ab8-954a-dcd1e6723536",
    "resource": {
      "resourceType": "Condition",
      "id": "fc6dd12e-92c0-4ab8-954a-dcd1e6723536",
      "meta": {
        "profile": [ "http://hl7.org/fhir/us/qicore/StructureDefinition/qicore-condition-problems-health-concerns" ]
      },
      "clinicalStatus": {
        "coding": [ {
          "system": "http://terminology.hl7.org/CodeSystem/condition-clinical",
          "code": "active",
          "display": "active",
          "userSelected": true
        } ]
      },
      "category": [ {
        "coding": [ {
          "system": "http://terminology.hl7.org/CodeSystem/condition-category",
          "code": "problem-list-item",
          "display": "Problem List Item",
          "userSelected": true
        } ]
      } ],
      "code": {
        "coding": [ {
          "system": "http://snomed.info/sct",
          "version": "2020-09",
          "code": "401303003",
          "display": "Acute ST segment elevation myocardial infarction (disorder)",
          "userSelected": true
        } ]
      },
      "subject": {
        "reference": "Patient/eab13a30-13ed-4b28-b460-4893998e0733"
      },
      "onsetDateTime": "2026-10-09T08:30:00.000+00:00"
    },
    "request": {
      "method": "PUT",
      "url": "Condition/fc6dd12e-92c0-4ab8-954a-dcd1e6723536"
    }
  }, {
    "fullUrl": "https://madie.cms.gov/Condition/a8a91232-e599-447e-8b90-0dc3b0c060b3",
    "resource": {
      "resourceType": "Condition",
      "id": "a8a91232-e599-447e-8b90-0dc3b0c060b3",
      "meta": {
        "profile": [ "http://hl7.org/fhir/us/qicore/StructureDefinition/qicore-condition-problems-health-concerns" ]
      },
      "clinicalStatus": {
        "coding": [ {
          "system": "http://terminology.hl7.org/CodeSystem/condition-clinical",
          "version": "4.0.1",
          "code": "inactive",
          "display": "Inactive",
          "userSelected": true
        } ]
      },
      "verificationStatus": {
        "coding": [ {
          "system": "http://terminology.hl7.org/CodeSystem/condition-ver-status",
          "code": "confirmed"
        } ]
      },
      "category": [ {
        "coding": [ {
          "system": "http://terminology.hl7.org/CodeSystem/condition-category",
          "code": "problem-list-item",
          "display": "Problem List Item",
          "userSelected": true
        } ]
      } ],
      "code": {
        "coding": [ {
          "system": "http://snomed.info/sct",
          "version": "2020-09",
          "code": "101421000119107",
          "display": "Dementia due to Parkinson's disease (disorder)",
          "userSelected": true
        } ]
      },
      "subject": {
        "reference": "Patient/eab13a30-13ed-4b28-b460-4893998e0733"
      },
      "onsetDateTime": "2024-10-01T08:00:00.000+00:00",
      "abatementDateTime": "2026-10-31T08:15:00.000+00:00"
    },
    "request": {
      "method": "PUT",
      "url": "Condition/a8a91232-e599-447e-8b90-0dc3b0c060b3"
    }
  }, {
    "fullUrl": "https://madie.cms.gov/MeasureReport/2b799e08-1343-4f88-a1b5-43f297e86909",
    "resource": {
      "resourceType": "MeasureReport",
      "id": "2b799e08-1343-4f88-a1b5-43f297e86909",
      "meta": {
        "profile": [ "http://hl7.org/fhir/us/cqfmeasures/StructureDefinition/test-case-cqfm" ]
      },
      "contained": [ {
        "resourceType": "Parameters",
        "id": "f21e40ae-23fe-4d07-8109-4999e64f57fc-parameters",
        "parameter": [ {
          "name": "subject",
          "valueString": "eab13a30-13ed-4b28-b460-4893998e0733"
        } ]
      } ],
      "extension": [ {
        "url": "http://hl7.org/fhir/StructureDefinition/cqf-inputParameters",
        "valueReference": {
          "reference": "#f21e40ae-23fe-4d07-8109-4999e64f57fc-parameters"
        }
      }, {
        "url": "http://hl7.org/fhir/us/cqfmeasures/StructureDefinition/cqfm-testCaseDescription",
        "valueMarkdown": "Patient has Dementia (exclusion dx) starts before ends after ED"
      } ],
      "modifierExtension": [ {
        "url": "http://hl7.org/fhir/us/cqfmeasures/StructureDefinition/cqfm-isTestCase",
        "valueBoolean": true
      } ],
      "status": "complete",
      "type": "individual",
      "measure": "https://madie.cms.gov/Measure/CMS996FHIRAptTxforSTEMI",
      "period": {
        "start": "2026-01-01",
        "end": "2026-12-31"
      },
      "group": [ {
        "id": "Group_1",
        "population": [ {
          "id": "InitialPopulation_1",
          "code": {
            "coding": [ {
              "system": "http://terminology.hl7.org/CodeSystem/measure-population",
              "code": "initial-population",
              "display": "Initial Population"
            } ]
          },
          "count": 1
        }, {
          "id": "Denominator_1",
          "code": {
            "coding": [ {
              "system": "http://terminology.hl7.org/CodeSystem/measure-population",
              "code": "denominator",
              "display": "Denominator"
            } ]
          },
          "count": 1
        }, {
          "id": "DenominatorExclusion_1",
          "code": {
            "coding": [ {
              "system": "http://terminology.hl7.org/CodeSystem/measure-population",
              "code": "denominator-exclusion",
              "display": "Denominator Exclusion"
            } ]
          },
          "count": 1
        }, {
          "id": "Numerator_1",
          "code": {
            "coding": [ {
              "system": "http://terminology.hl7.org/CodeSystem/measure-population",
              "code": "numerator",
              "display": "Numerator"
            } ]
          },
          "count": 0
        }, {
          "id": "DenominatorException_1",
          "code": {
            "coding": [ {
              "system": "http://terminology.hl7.org/CodeSystem/measure-population",
              "code": "denominator-exception",
              "display": "Denominator Exception"
            } ]
          },
          "count": 0
        } ],
        "measureScore": {
          "value": 0.0
        }
      } ],
      "evaluatedResource": [ {
        "reference": "Patient/eab13a30-13ed-4b28-b460-4893998e0733"
      }, {
        "reference": "Encounter/4ac715b9-6e68-4091-8dff-d814290aefe3"
      }, {
        "reference": "Condition/fc6dd12e-92c0-4ab8-954a-dcd1e6723536"
      }, {
        "reference": "Condition/a8a91232-e599-447e-8b90-0dc3b0c060b3"
      } ]
    },
    "request": {
      "method": "PUT",
      "url": "MeasureReport/2b799e08-1343-4f88-a1b5-43f297e86909"
    }
  } ]
}