{
  "resourceType": "Bundle",
  "id": "633b3f9e0968f80122503ccd",
  "type": "transaction",
  "entry": [ {
    "fullUrl": "https://madie.cms.gov/Patient/46c495dc-7e07-4831-8de3-3f6aa6c478ae",
    "resource": {
      "resourceType": "Patient",
      "id": "46c495dc-7e07-4831-8de3-3f6aa6c478ae",
      "meta": {
        "profile": [ "http://hl7.org/fhir/us/qicore/StructureDefinition/qicore-patient" ]
      },
      "text": {
        "status": "generated",
        "div": "<div xmlns=\"http://www.w3.org/1999/xhtml\"><div class=\"hapiHeaderText\">AssPrfDelRsltDtTimeB4IPStart<b>DENOMFAIL</b></div><table class=\"hapiPropertyTable\"><tbody><tr><td>Date of birth</td><td><span>01 February 2004</span></td></tr></tbody></table></div>"
      },
      "extension": [ {
        "url": "http://hl7.org/fhir/us/core/StructureDefinition/us-core-race",
        "extension": [ {
          "url": "ombCategory",
          "valueCoding": {
            "system": "urn:oid:2.16.840.1.113883.6.238",
            "code": "1002-5",
            "display": "American Indian or Alaska Native",
            "userSelected": true
          }
        }, {
          "url": "text",
          "valueString": "American Indian or Alaska Native"
        } ]
      }, {
        "url": "http://hl7.org/fhir/us/core/StructureDefinition/us-core-ethnicity",
        "extension": [ {
          "url": "ombCategory",
          "valueCoding": {
            "system": "urn:oid:2.16.840.1.113883.6.238",
            "code": "2135-2",
            "display": "Hispanic or Latino",
            "userSelected": true
          }
        }, {
          "url": "text",
          "valueString": "Hispanic or Latino"
        } ]
      } ],
      "identifier": [ {
        "type": {
          "coding": [ {
            "system": "http://terminology.hl7.org/CodeSystem/v2-0203",
            "code": "MR"
          } ]
        },
        "system": "https://bonnie-fhir.healthit.gov/",
        "value": "633b3f9e0968f80122503ccd"
      } ],
      "active": true,
      "name": [ {
        "use": "usual",
        "family": "DENOMFail",
        "given": [ "AssPrfDelRsltDtTimeB4IPStart" ]
      } ],
      "gender": "female",
      "birthDate": "2005-02-01"
    },
    "request": {
      "method": "PUT",
      "url": "Patient/46c495dc-7e07-4831-8de3-3f6aa6c478ae"
    }
  }, {
    "fullUrl": "https://madie.cms.gov/Observation/5231577f-fe4c-4839-a1bc-f549153367b2",
    "resource": {
      "resourceType": "Observation",
      "id": "5231577f-fe4c-4839-a1bc-f549153367b2",
      "meta": {
        "profile": [ "http://hl7.org/fhir/us/qicore/StructureDefinition/qicore-simple-observation" ]
      },
      "status": "final",
      "category": [ {
        "coding": [ {
          "system": "http://terminology.hl7.org/CodeSystem/observation-category",
          "code": "exam",
          "display": "exam",
          "userSelected": true
        } ]
      } ],
      "code": {
        "coding": [ {
          "system": "http://loinc.org",
          "code": "93857-1"
        } ]
      },
      "subject": {
        "reference": "Patient/46c495dc-7e07-4831-8de3-3f6aa6c478ae"
      },
      "effectiveDateTime": "2026-02-01T08:00:00Z",
      "performer": [ {
        "reference": "Organization/example1",
        "display": "Hendricks Country Hospital"
      } ],
      "valueDateTime": "2026-02-01T07:59:00.000+00:00"
    },
    "request": {
      "method": "PUT",
      "url": "Observation/5231577f-fe4c-4839-a1bc-f549153367b2"
    }
  }, {
    "fullUrl": "https://madie.cms.gov/Observation/3839c186-15f1-4313-9cfd-441d7aaecd25",
    "resource": {
      "resourceType": "Observation",
      "id": "3839c186-15f1-4313-9cfd-441d7aaecd25",
      "meta": {
        "profile": [ "http://hl7.org/fhir/us/qicore/StructureDefinition/qicore-simple-observation" ]
      },
      "status": "final",
      "category": [ {
        "coding": [ {
          "system": "http://terminology.hl7.org/CodeSystem/observation-category",
          "code": "exam",
          "display": "exam",
          "userSelected": true
        } ]
      } ],
      "code": {
        "coding": [ {
          "system": "http://loinc.org",
          "code": "11778-8"
        } ]
      },
      "subject": {
        "reference": "Patient/46c495dc-7e07-4831-8de3-3f6aa6c478ae"
      },
      "effectiveDateTime": "2026-02-01T08:00:00Z",
      "performer": [ {
        "reference": "Organization/example1",
        "display": "Hendricks Country Hospital"
      } ],
      "valueDateTime": "2026-02-01T08:00:00.000+00:00"
    },
    "request": {
      "method": "PUT",
      "url": "Observation/3839c186-15f1-4313-9cfd-441d7aaecd25"
    }
  }, {
    "fullUrl": "https://madie.cms.gov/Encounter/a220d028-de27-416e-9d0a-527b9b255e27",
    "resource": {
      "resourceType": "Encounter",
      "id": "a220d028-de27-416e-9d0a-527b9b255e27",
      "meta": {
        "profile": [ "http://hl7.org/fhir/us/qicore/StructureDefinition/qicore-encounter" ]
      },
      "status": "finished",
      "class": {
        "system": "http://terminology.hl7.org/CodeSystem/v3-ActCode",
        "code": "IMP",
        "display": "inpatient encounter"
      },
      "type": [ {
        "coding": [ {
          "system": "http://snomed.info/sct",
          "code": "183452005"
        } ]
      } ],
      "subject": {
        "reference": "Patient/46c495dc-7e07-4831-8de3-3f6aa6c478ae"
      },
      "period": {
        "start": "2026-02-01T08:00:00Z",
        "end": "2026-02-05T08:15:00.000+00:00"
      },
      "reasonCode": [ {
        "coding": [ {
          "system": "http://snomed.info/sct",
          "code": "169826009",
          "display": "Single live birth from singleton pregnancy (finding)"
        } ]
      } ]
    },
    "request": {
      "method": "PUT",
      "url": "Encounter/a220d028-de27-416e-9d0a-527b9b255e27"
    }
  }, {
    "fullUrl": "https://madie.cms.gov/Coverage/b087c04b-5dea-4e56-862a-9eeb9f9784ed",
    "resource": {
      "resourceType": "Coverage",
      "id": "b087c04b-5dea-4e56-862a-9eeb9f9784ed",
      "status": "active",
      "subscriberId": "523435",
      "beneficiary": {
        "reference": "Patient/46c495dc-7e07-4831-8de3-3f6aa6c478ae"
      },
      "relationship": {
        "coding": [ {
          "system": "http://terminology.hl7.org/CodeSystem/subscriber-relationship",
          "code": "self"
        } ]
      },
      "period": {
        "start": "2005-02-01T08:00:00Z"
      },
      "payor": [ {
        "reference": "Organization/dac79824-943a-4368-9984-fdb785b7fae3"
      } ]
    },
    "request": {
      "method": "PUT",
      "url": "Coverage/b087c04b-5dea-4e56-862a-9eeb9f9784ed"
    }
  }, {
    "fullUrl": "https://madie.cms.gov/Procedure/b7aac0b4-3b67-4f7b-9458-f9fc547f6413",
    "resource": {
      "resourceType": "Procedure",
      "id": "b7aac0b4-3b67-4f7b-9458-f9fc547f6413",
      "meta": {
        "profile": [ "http://hl7.org/fhir/us/qicore/StructureDefinition/qicore-procedure" ]
      },
      "extension": [ {
        "url": "http://hl7.org/fhir/us/qicore/StructureDefinition/qicore-recorded",
        "valueDateTime": "2014-04-05T13:35:00Z"
      } ],
      "status": "completed",
      "code": {
        "coding": [ {
          "system": "http://snomed.info/sct",
          "code": "10745001"
        } ]
      },
      "subject": {
        "reference": "Patient/46c495dc-7e07-4831-8de3-3f6aa6c478ae"
      },
      "performedPeriod": {
        "start": "2026-02-01T08:00:00Z",
        "end": "2026-02-05T08:15:00.000+00:00"
      }
    },
    "request": {
      "method": "PUT",
      "url": "Procedure/b7aac0b4-3b67-4f7b-9458-f9fc547f6413"
    }
  }, {
    "fullUrl": "https://madie.cms.gov/Organization/dac79824-943a-4368-9984-fdb785b7fae3",
    "resource": {
      "resourceType": "Organization",
      "id": "dac79824-943a-4368-9984-fdb785b7fae3",
      "meta": {
        "profile": [ "http://hl7.org/fhir/us/qicore/StructureDefinition/qicore-organization" ]
      },
      "identifier": [ {
        "use": "temp",
        "system": "urn:oid:2.16.840.1.113883.4.4",
        "value": "21-3259825"
      } ],
      "active": true,
      "type": [ {
        "coding": [ {
          "system": "http://terminology.hl7.org/CodeSystem/organization-type",
          "code": "pay",
          "display": "Payer"
        } ]
      } ],
      "name": "Blue Cross Blue Shield of Texas",
      "telecom": [ {
        "system": "phone",
        "value": "(+1) 972-766-6900"
      } ],
      "address": [ {
        "use": "billing",
        "type": "postal",
        "line": [ "P.O. Box 660044" ],
        "city": "Dallas",
        "state": "TX",
        "postalCode": "75266-0044",
        "country": "USA"
      } ]
    },
    "request": {
      "method": "PUT",
      "url": "Organization/dac79824-943a-4368-9984-fdb785b7fae3"
    }
  }, {
    "fullUrl": "https://madie.cms.gov/Practitioner/3cc89d17-676e-43f0-a8b2-d547e98051fb",
    "resource": {
      "resourceType": "Practitioner",
      "id": "3cc89d17-676e-43f0-a8b2-d547e98051fb",
      "meta": {
        "profile": [ "http://hl7.org/fhir/us/qicore/StructureDefinition/qicore-practitioner" ]
      },
      "identifier": [ {
        "system": "http://hl7.org/fhir/sid/us-npi",
        "value": "1234567890"
      } ],
      "name": [ {
        "family": "Evil",
        "prefix": [ "Dr" ]
      } ]
    },
    "request": {
      "method": "PUT",
      "url": "Practitioner/3cc89d17-676e-43f0-a8b2-d547e98051fb"
    }
  }, {
    "fullUrl": "https://madie.cms.gov/MeasureReport/12caca2e-954f-4778-88e1-ea0ac384eb2a",
    "resource": {
      "resourceType": "MeasureReport",
      "id": "12caca2e-954f-4778-88e1-ea0ac384eb2a",
      "meta": {
        "profile": [ "http://hl7.org/fhir/us/cqfmeasures/StructureDefinition/test-case-cqfm" ]
      },
      "contained": [ {
        "resourceType": "Parameters",
        "id": "c702c104-1f35-46e2-a64a-01e751f01a35-parameters",
        "parameter": [ {
          "name": "subject",
          "valueString": "46c495dc-7e07-4831-8de3-3f6aa6c478ae"
        } ]
      } ],
      "extension": [ {
        "url": "http://hl7.org/fhir/StructureDefinition/cqf-inputParameters",
        "valueReference": {
          "reference": "#c702c104-1f35-46e2-a64a-01e751f01a35-parameters"
        }
      }, {
        "url": "http://hl7.org/fhir/us/cqfmeasures/StructureDefinition/cqfm-testCaseDescription",
        "valueMarkdown": "Result date/Time of delivery (based on assessment performed) is 1 minute before the encounter starts\n\n"
      } ],
      "modifierExtension": [ {
        "url": "http://hl7.org/fhir/us/cqfmeasures/StructureDefinition/cqfm-isTestCase",
        "valueBoolean": true
      } ],
      "status": "complete",
      "type": "individual",
      "measure": "https://madie.cms.gov/Measure/CMS1028FHIRPCSevereOBComps",
      "period": {
        "start": "2026-01-01",
        "end": "2026-12-31"
      },
      "group": [ {
        "id": "Group_1",
        "population": [ {
          "id": "InitialPopulation_1",
          "code": {
            "coding": [ {
              "system": "http://terminology.hl7.org/CodeSystem/measure-population",
              "code": "initial-population",
              "display": "Initial Population"
            } ]
          },
          "count": 1
        }, {
          "id": "Denominator_1",
          "code": {
            "coding": [ {
              "system": "http://terminology.hl7.org/CodeSystem/measure-population",
              "code": "denominator",
              "display": "Denominator"
            } ]
          },
          "count": 0
        }, {
          "id": "Numerator_1",
          "code": {
            "coding": [ {
              "system": "http://terminology.hl7.org/CodeSystem/measure-population",
              "code": "numerator",
              "display": "Numerator"
            } ]
          },
          "count": 0
        }, {
          "id": "NumeratorExclusion_1",
          "code": {
            "coding": [ {
              "system": "http://terminology.hl7.org/CodeSystem/measure-population",
              "code": "numerator-exclusion",
              "display": "Numerator Exclusion"
            } ]
          },
          "count": 0
        } ],
        "measureScore": {
          "value": 0.0
        }
      }, {
        "id": "Group_2",
        "population": [ {
          "id": "InitialPopulation_2",
          "code": {
            "coding": [ {
              "system": "http://terminology.hl7.org/CodeSystem/measure-population",
              "code": "initial-population",
              "display": "Initial Population"
            } ]
          },
          "count": 1
        }, {
          "id": "Denominator_2",
          "code": {
            "coding": [ {
              "system": "http://terminology.hl7.org/CodeSystem/measure-population",
              "code": "denominator",
              "display": "Denominator"
            } ]
          },
          "count": 0
        }, {
          "id": "Numerator_2",
          "code": {
            "coding": [ {
              "system": "http://terminology.hl7.org/CodeSystem/measure-population",
              "code": "numerator",
              "display": "Numerator"
            } ]
          },
          "count": 0
        }, {
          "id": "NumeratorExclusion_2",
          "code": {
            "coding": [ {
              "system": "http://terminology.hl7.org/CodeSystem/measure-population",
              "code": "numerator-exclusion",
              "display": "Numerator Exclusion"
            } ]
          },
          "count": 0
        } ],
        "measureScore": {
          "value": 0.0
        }
      } ],
      "evaluatedResource": [ {
        "reference": "Patient/46c495dc-7e07-4831-8de3-3f6aa6c478ae"
      }, {
        "reference": "Observation/5231577f-fe4c-4839-a1bc-f549153367b2"
      }, {
        "reference": "Observation/3839c186-15f1-4313-9cfd-441d7aaecd25"
      }, {
        "reference": "Encounter/a220d028-de27-416e-9d0a-527b9b255e27"
      }, {
        "reference": "Coverage/b087c04b-5dea-4e56-862a-9eeb9f9784ed"
      }, {
        "reference": "Procedure/b7aac0b4-3b67-4f7b-9458-f9fc547f6413"
      }, {
        "reference": "Organization/dac79824-943a-4368-9984-fdb785b7fae3"
      }, {
        "reference": "Practitioner/3cc89d17-676e-43f0-a8b2-d547e98051fb"
      } ]
    },
    "request": {
      "method": "PUT",
      "url": "MeasureReport/12caca2e-954f-4778-88e1-ea0ac384eb2a"
    }
  } ]
}