{
  "resourceType": "Bundle",
  "id": "464613151313",
  "type": "transaction",
  "entry": [ {
    "fullUrl": "https://madie.cms.gov/Patient/b487e8da-c244-4cb8-9575-48eab7d7c28d",
    "resource": {
      "resourceType": "Patient",
      "id": "b487e8da-c244-4cb8-9575-48eab7d7c28d",
      "meta": {
        "profile": [ "http://hl7.org/fhir/us/qicore/StructureDefinition/qicore-patient" ]
      },
      "extension": [ {
        "url": "http://hl7.org/fhir/us/core/StructureDefinition/us-core-race",
        "extension": [ {
          "url": "ombCategory",
          "valueCoding": {
            "system": "urn:oid:2.16.840.1.113883.6.238",
            "code": "2106-3",
            "display": "White"
          }
        }, {
          "url": "text",
          "valueString": "White"
        } ]
      }, {
        "url": "http://hl7.org/fhir/us/core/StructureDefinition/us-core-ethnicity",
        "extension": [ {
          "url": "ombCategory",
          "valueCoding": {
            "system": "urn:oid:2.16.840.1.113883.6.238",
            "code": "2135-2",
            "display": "Hispanic or Latino"
          }
        }, {
          "url": "text",
          "valueString": "Hispanic or Latino"
        } ]
      } ],
      "identifier": [ {
        "type": {
          "coding": [ {
            "system": "http://terminology.hl7.org/CodeSystem/v2-0203",
            "code": "MR"
          } ]
        },
        "system": "https://bonnie-fhir.healthit.gov/",
        "value": "1241254783asdf13215321sd"
      } ],
      "name": [ {
        "family": "DENOMPass",
        "given": [ "OV1stDayOfYearEdge" ]
      } ],
      "gender": "female",
      "birthDate": "1944-03-15"
    },
    "request": {
      "method": "PUT",
      "url": "Patient/b487e8da-c244-4cb8-9575-48eab7d7c28d"
    }
  }, {
    "fullUrl": "https://madie.cms.gov/Condition/f1d85275-c599-4ac1-8cb1-29c9892991f8",
    "resource": {
      "resourceType": "Condition",
      "id": "f1d85275-c599-4ac1-8cb1-29c9892991f8",
      "meta": {
        "profile": [ "http://hl7.org/fhir/us/qicore/StructureDefinition/qicore-condition-problems-health-concerns" ]
      },
      "clinicalStatus": {
        "coding": [ {
          "system": "http://terminology.hl7.org/CodeSystem/condition-clinical",
          "code": "active",
          "display": "Active"
        } ]
      },
      "verificationStatus": {
        "coding": [ {
          "system": "http://terminology.hl7.org/CodeSystem/condition-ver-status",
          "code": "confirmed",
          "display": "Confirmed"
        } ]
      },
      "category": [ {
        "coding": [ {
          "system": "http://terminology.hl7.org/CodeSystem/condition-category",
          "code": "problem-list-item",
          "display": "Problem List Item"
        } ]
      } ],
      "code": {
        "coding": [ {
          "system": "http://hl7.org/fhir/sid/icd-10-cm",
          "version": "2024",
          "code": "C67.1",
          "display": "Malignant neoplasm of dome of bladder"
        } ]
      },
      "subject": {
        "reference": "Patient/b487e8da-c244-4cb8-9575-48eab7d7c28d"
      },
      "onsetPeriod": {
        "start": "2026-01-01T08:00:00.000+00:00"
      }
    },
    "request": {
      "method": "PUT",
      "url": "Condition/f1d85275-c599-4ac1-8cb1-29c9892991f8"
    }
  }, {
    "fullUrl": "https://madie.cms.gov/Encounter/921fc280-1eff-4d8f-ab0e-607d8ee86d19",
    "resource": {
      "resourceType": "Encounter",
      "id": "921fc280-1eff-4d8f-ab0e-607d8ee86d19",
      "meta": {
        "profile": [ "http://hl7.org/fhir/us/qicore/StructureDefinition/qicore-encounter" ]
      },
      "status": "finished",
      "class": {
        "system": "http://terminology.hl7.org/CodeSystem/v3-ActCode",
        "code": "AMB",
        "display": "ambulatory"
      },
      "type": [ {
        "coding": [ {
          "system": "http://snomed.info/sct",
          "version": "http://snomed.info/sct/731000124108/version/20240301",
          "code": "185463005",
          "display": "Visit out of hours (procedure)"
        } ]
      } ],
      "subject": {
        "reference": "Patient/b487e8da-c244-4cb8-9575-48eab7d7c28d"
      },
      "period": {
        "start": "2026-01-01T08:00:00.000+00:00",
        "end": "2026-01-01T08:15:00.000+00:00"
      }
    },
    "request": {
      "method": "PUT",
      "url": "Encounter/921fc280-1eff-4d8f-ab0e-607d8ee86d19"
    }
  }, {
    "fullUrl": "https://madie.cms.gov/Procedure/7e1f9173-1e75-43b0-a1af-cb6a86115034",
    "resource": {
      "resourceType": "Procedure",
      "id": "7e1f9173-1e75-43b0-a1af-cb6a86115034",
      "meta": {
        "profile": [ "http://hl7.org/fhir/us/qicore/StructureDefinition/qicore-procedure" ]
      },
      "extension": [ {
        "url": "http://hl7.org/fhir/us/qicore/StructureDefinition/qicore-recorded",
        "valueDateTime": "2026-04-06T08:00:00.000+00:00"
      } ],
      "status": "completed",
      "code": {
        "coding": [ {
          "system": "http://snomed.info/sct",
          "version": "http://snomed.info/sct/731000124108/version/20240301",
          "code": "254292007",
          "display": "Tumor staging"
        } ]
      },
      "subject": {
        "reference": "Patient/b487e8da-c244-4cb8-9575-48eab7d7c28d"
      },
      "performedPeriod": {
        "start": "2026-01-01T08:00:00.000+00:00",
        "end": "2026-01-01T08:15:00.000+00:00"
      }
    },
    "request": {
      "method": "PUT",
      "url": "Procedure/7e1f9173-1e75-43b0-a1af-cb6a86115034"
    }
  }, {
    "fullUrl": "https://madie.cms.gov/Observation/63c9b32a-25da-4661-8ff5-1c3bd825a000",
    "resource": {
      "resourceType": "Observation",
      "id": "63c9b32a-25da-4661-8ff5-1c3bd825a000",
      "meta": {
        "profile": [ "http://hl7.org/fhir/us/qicore/StructureDefinition/qicore-observation-lab" ]
      },
      "partOf": [ {
        "reference": "Procedure/7e1f9173-1e75-43b0-a1af-cb6a86115034"
      } ],
      "status": "final",
      "category": [ {
        "coding": [ {
          "system": "http://terminology.hl7.org/CodeSystem/observation-category",
          "code": "procedure",
          "display": "Procedure"
        } ]
      } ],
      "code": {
        "coding": [ {
          "system": "http://loinc.org",
          "version": "2.76",
          "code": "21902-2",
          "display": "Stage group.pathology Cancer"
        } ]
      },
      "subject": {
        "reference": "Patient/b487e8da-c244-4cb8-9575-48eab7d7c28d"
      },
      "effectivePeriod": {
        "start": "2026-01-01T08:00:00.000+00:00",
        "end": "2026-01-01T08:15:00.000+00:00"
      },
      "issued": "2026-01-01T08:10:00.000+00:00",
      "valueCodeableConcept": {
        "coding": [ {
          "system": "http://hl7.org/fhir/sid/icd-10-cm",
          "version": "http://snomed.info/sct/731000124108/version/20240301",
          "code": "D09.0",
          "display": "Carcinoma in situ of bladder"
        } ]
      }
    },
    "request": {
      "method": "PUT",
      "url": "Observation/63c9b32a-25da-4661-8ff5-1c3bd825a000"
    }
  }, {
    "fullUrl": "https://madie.cms.gov/MeasureReport/14b4385e-6e54-4548-9577-410ed69b726e",
    "resource": {
      "resourceType": "MeasureReport",
      "id": "14b4385e-6e54-4548-9577-410ed69b726e",
      "meta": {
        "profile": [ "http://hl7.org/fhir/us/cqfmeasures/StructureDefinition/test-case-cqfm" ]
      },
      "contained": [ {
        "resourceType": "Parameters",
        "id": "6cfc46f6-61eb-44a4-9f4f-4c8a67260a96-parameters",
        "parameter": [ {
          "name": "subject",
          "valueString": "b487e8da-c244-4cb8-9575-48eab7d7c28d"
        } ]
      } ],
      "extension": [ {
        "url": "http://hl7.org/fhir/StructureDefinition/cqf-inputParameters",
        "valueReference": {
          "reference": "#6cfc46f6-61eb-44a4-9f4f-4c8a67260a96-parameters"
        }
      }, {
        "url": "http://hl7.org/fhir/us/cqfmeasures/StructureDefinition/cqfm-testCaseDescription",
        "valueMarkdown": "Patient with bladder cancer and office visit on first day of MP.  Edge testing.  Tested elements of DENOM pass."
      } ],
      "modifierExtension": [ {
        "url": "http://hl7.org/fhir/us/cqfmeasures/StructureDefinition/cqfm-isTestCase",
        "valueBoolean": true
      } ],
      "status": "complete",
      "type": "individual",
      "measure": "https://madie.cms.gov/Measure/CMS646FHIRIntravesicalBacillusCalmetteGuerinForBladderCancer",
      "period": {
        "start": "2026-01-01",
        "end": "2026-12-31"
      },
      "group": [ {
        "id": "Group_1",
        "population": [ {
          "id": "InitialPopulation_1",
          "code": {
            "coding": [ {
              "system": "http://terminology.hl7.org/CodeSystem/measure-population",
              "code": "initial-population",
              "display": "Initial Population"
            } ]
          },
          "count": 1
        }, {
          "id": "Denominator_1",
          "code": {
            "coding": [ {
              "system": "http://terminology.hl7.org/CodeSystem/measure-population",
              "code": "denominator",
              "display": "Denominator"
            } ]
          },
          "count": 1
        }, {
          "id": "DenominatorExclusion_1",
          "code": {
            "coding": [ {
              "system": "http://terminology.hl7.org/CodeSystem/measure-population",
              "code": "denominator-exclusion",
              "display": "Denominator Exclusion"
            } ]
          },
          "count": 0
        }, {
          "id": "Numerator_1",
          "code": {
            "coding": [ {
              "system": "http://terminology.hl7.org/CodeSystem/measure-population",
              "code": "numerator",
              "display": "Numerator"
            } ]
          },
          "count": 0
        }, {
          "id": "DenominatorException_1",
          "code": {
            "coding": [ {
              "system": "http://terminology.hl7.org/CodeSystem/measure-population",
              "code": "denominator-exception",
              "display": "Denominator Exception"
            } ]
          },
          "count": 0
        } ],
        "measureScore": {
          "value": 1.0
        }
      } ],
      "evaluatedResource": [ {
        "reference": "Patient/b487e8da-c244-4cb8-9575-48eab7d7c28d"
      }, {
        "reference": "Condition/f1d85275-c599-4ac1-8cb1-29c9892991f8"
      }, {
        "reference": "Encounter/921fc280-1eff-4d8f-ab0e-607d8ee86d19"
      }, {
        "reference": "Procedure/7e1f9173-1e75-43b0-a1af-cb6a86115034"
      }, {
        "reference": "Observation/63c9b32a-25da-4661-8ff5-1c3bd825a000"
      } ]
    },
    "request": {
      "method": "PUT",
      "url": "MeasureReport/14b4385e-6e54-4548-9577-410ed69b726e"
    }
  } ]
}