{
  "resourceType": "Bundle",
  "id": "62f65f6e5efef5272905e70b",
  "type": "transaction",
  "entry": [ {
    "fullUrl": "https://madie.cms.gov/Patient/d0ba1182-26fa-4cfa-9f91-960503b7fe53",
    "resource": {
      "resourceType": "Patient",
      "id": "d0ba1182-26fa-4cfa-9f91-960503b7fe53",
      "meta": {
        "profile": [ "http://hl7.org/fhir/us/qicore/StructureDefinition/qicore-patient" ]
      },
      "extension": [ {
        "url": "http://hl7.org/fhir/us/core/StructureDefinition/us-core-race",
        "extension": [ {
          "url": "ombCategory",
          "valueCoding": {
            "system": "urn:oid:2.16.840.1.113883.6.238",
            "code": "1002-5",
            "display": "American Indian or Alaska Native",
            "userSelected": true
          }
        }, {
          "url": "text",
          "valueString": "American Indian or Alaska Native"
        } ]
      }, {
        "url": "http://hl7.org/fhir/us/core/StructureDefinition/us-core-ethnicity",
        "extension": [ {
          "url": "ombCategory",
          "valueCoding": {
            "system": "urn:oid:2.16.840.1.113883.6.238",
            "code": "2135-2",
            "display": "Hispanic or Latino",
            "userSelected": true
          }
        }, {
          "url": "text",
          "valueString": "Hispanic or Latino"
        } ]
      } ],
      "identifier": [ {
        "type": {
          "coding": [ {
            "system": "http://terminology.hl7.org/CodeSystem/v2-0203",
            "code": "MR"
          } ]
        },
        "system": "https://bonnie-fhir.healthit.gov/",
        "value": "62f65f6e5efef5272905e70b"
      } ],
      "name": [ {
        "family": "DENEXCEPPass",
        "given": [ "AdolescentMedicalReasonForNoDepressionScreenAge12" ]
      } ],
      "gender": "male",
      "birthDate": "2014-01-01"
    },
    "request": {
      "method": "PUT",
      "url": "Patient/d0ba1182-26fa-4cfa-9f91-960503b7fe53"
    }
  }, {
    "fullUrl": "https://madie.cms.gov/Encounter/b912bcdc-7fa4-49af-99ba-0b4d6cf1929f",
    "resource": {
      "resourceType": "Encounter",
      "id": "b912bcdc-7fa4-49af-99ba-0b4d6cf1929f",
      "meta": {
        "profile": [ "http://hl7.org/fhir/us/qicore/StructureDefinition/qicore-encounter" ]
      },
      "status": "finished",
      "class": {
        "system": "http://terminology.hl7.org/CodeSystem/v3-ActCode",
        "code": "AMB",
        "display": "ambulatory"
      },
      "type": [ {
        "coding": [ {
          "system": "http://snomed.info/sct",
          "code": "10197000",
          "display": "Psychiatric interview and evaluation (procedure)",
          "userSelected": true
        } ]
      } ],
      "subject": {
        "reference": "Patient/d0ba1182-26fa-4cfa-9f91-960503b7fe53"
      },
      "period": {
        "start": "2026-01-02T08:00:00.000+00:00",
        "end": "2026-01-02T08:15:00.000+00:00"
      }
    },
    "request": {
      "method": "PUT",
      "url": "Encounter/b912bcdc-7fa4-49af-99ba-0b4d6cf1929f"
    }
  }, {
    "fullUrl": "https://madie.cms.gov/Observation/183abfe3-55aa-4e11-ab05-52938cd0e62c",
    "resource": {
      "resourceType": "Observation",
      "id": "183abfe3-55aa-4e11-ab05-52938cd0e62c",
      "meta": {
        "profile": [ "http://hl7.org/fhir/us/qicore/StructureDefinition/qicore-observationcancelled" ]
      },
      "extension": [ {
        "url": "http://hl7.org/fhir/us/qicore/StructureDefinition/qicore-notDoneReason",
        "valueCodeableConcept": {
          "coding": [ {
            "system": "http://snomed.info/sct",
            "code": "183932001",
            "display": "Procedure contraindicated (situation)",
            "userSelected": true
          } ]
        }
      } ],
      "status": "cancelled",
      "category": [ {
        "coding": [ {
          "system": "http://terminology.hl7.org/CodeSystem/observation-category",
          "code": "procedure",
          "display": "Procedure"
        } ]
      } ],
      "code": {
        "coding": [ {
          "system": "http://loinc.org",
          "code": "73831-0",
          "display": "Adolescent depression screening assessment",
          "userSelected": true
        } ]
      },
      "subject": {
        "reference": "Patient/d0ba1182-26fa-4cfa-9f91-960503b7fe53"
      },
      "issued": "2026-01-02T08:00:00.000+00:00",
      "valueBoolean": true
    },
    "request": {
      "method": "PUT",
      "url": "Observation/183abfe3-55aa-4e11-ab05-52938cd0e62c"
    }
  }, {
    "fullUrl": "https://madie.cms.gov/Coverage/32f89f15-d3fe-40f6-b170-89bba874a7ee",
    "resource": {
      "resourceType": "Coverage",
      "id": "32f89f15-d3fe-40f6-b170-89bba874a7ee",
      "meta": {
        "profile": [ "http://hl7.org/fhir/us/qicore/StructureDefinition/qicore-coverage" ]
      },
      "status": "active",
      "subscriberId": "123456789",
      "beneficiary": {
        "reference": "Patient/d0ba1182-26fa-4cfa-9f91-960503b7fe53"
      },
      "relationship": {
        "coding": [ {
          "system": "http://terminology.hl7.org/CodeSystem/subscriber-relationship",
          "code": "self",
          "display": "Self",
          "userSelected": true
        } ]
      },
      "payor": [ {
        "reference": "Organization/1c71abf8-0e3b-4a2a-a767-58486805de6e"
      } ]
    },
    "request": {
      "method": "PUT",
      "url": "Coverage/32f89f15-d3fe-40f6-b170-89bba874a7ee"
    }
  }, {
    "fullUrl": "https://madie.cms.gov/Organization/1c71abf8-0e3b-4a2a-a767-58486805de6e",
    "resource": {
      "resourceType": "Organization",
      "id": "1c71abf8-0e3b-4a2a-a767-58486805de6e",
      "meta": {
        "profile": [ "http://hl7.org/fhir/us/qicore/StructureDefinition/qicore-organization" ]
      },
      "identifier": [ {
        "use": "temp",
        "system": "urn:oid:2.16.840.1.113883.4.4",
        "value": "21-3259825"
      } ],
      "active": true,
      "type": [ {
        "coding": [ {
          "system": "http://terminology.hl7.org/CodeSystem/organization-type",
          "code": "pay",
          "display": "Payer"
        } ]
      } ],
      "name": "Blue Cross Blue Shield of Texas",
      "telecom": [ {
        "system": "phone",
        "value": "(+1) 972-766-6900"
      } ],
      "address": [ {
        "use": "billing",
        "type": "postal",
        "line": [ "P.O. Box 660044" ],
        "city": "Dallas",
        "state": "TX",
        "postalCode": "75266-0044",
        "country": "USA"
      } ]
    },
    "request": {
      "method": "PUT",
      "url": "Organization/1c71abf8-0e3b-4a2a-a767-58486805de6e"
    }
  }, {
    "fullUrl": "https://madie.cms.gov/Practitioner/9caf4d4f-c309-4427-99cd-f12331ebdf5b",
    "resource": {
      "resourceType": "Practitioner",
      "id": "9caf4d4f-c309-4427-99cd-f12331ebdf5b",
      "meta": {
        "profile": [ "http://hl7.org/fhir/us/qicore/StructureDefinition/qicore-practitioner" ]
      },
      "identifier": [ {
        "system": "http://hl7.org/fhir/sid/us-npi",
        "value": "1234567893"
      } ],
      "name": [ {
        "family": "Evil",
        "prefix": [ "Dr" ]
      } ]
    },
    "request": {
      "method": "PUT",
      "url": "Practitioner/9caf4d4f-c309-4427-99cd-f12331ebdf5b"
    }
  }, {
    "fullUrl": "https://madie.cms.gov/MeasureReport/7679064c-7582-422e-ae71-ea94b31cf649",
    "resource": {
      "resourceType": "MeasureReport",
      "id": "7679064c-7582-422e-ae71-ea94b31cf649",
      "meta": {
        "profile": [ "http://hl7.org/fhir/us/cqfmeasures/StructureDefinition/test-case-cqfm" ]
      },
      "contained": [ {
        "resourceType": "Parameters",
        "id": "f257ff66-29a4-4242-89cb-2da6757ef77e-parameters",
        "parameter": [ {
          "name": "subject",
          "valueString": "d0ba1182-26fa-4cfa-9f91-960503b7fe53"
        } ]
      } ],
      "extension": [ {
        "url": "http://hl7.org/fhir/StructureDefinition/cqf-inputParameters",
        "valueReference": {
          "reference": "#f257ff66-29a4-4242-89cb-2da6757ef77e-parameters"
        }
      }, {
        "url": "http://hl7.org/fhir/us/cqfmeasures/StructureDefinition/cqfm-testCaseDescription",
        "valueMarkdown": "12 yo male with medical reason for not screening for depression - Procedure contraindicated - 12 on first day MP."
      } ],
      "modifierExtension": [ {
        "url": "http://hl7.org/fhir/us/cqfmeasures/StructureDefinition/cqfm-isTestCase",
        "valueBoolean": true
      } ],
      "status": "complete",
      "type": "individual",
      "measure": "https://madie.cms.gov/Measure/CMS2FHIRPCSDepressionScreenAndFollowUp",
      "period": {
        "start": "2026-01-01",
        "end": "2026-12-31"
      },
      "group": [ {
        "id": "Group_1",
        "population": [ {
          "id": "InitialPopulation_1",
          "code": {
            "coding": [ {
              "system": "http://terminology.hl7.org/CodeSystem/measure-population",
              "code": "initial-population",
              "display": "Initial Population"
            } ]
          },
          "count": 1
        }, {
          "id": "Denominator_1",
          "code": {
            "coding": [ {
              "system": "http://terminology.hl7.org/CodeSystem/measure-population",
              "code": "denominator",
              "display": "Denominator"
            } ]
          },
          "count": 1
        }, {
          "id": "DenominatorExclusion_1",
          "code": {
            "coding": [ {
              "system": "http://terminology.hl7.org/CodeSystem/measure-population",
              "code": "denominator-exclusion",
              "display": "Denominator Exclusion"
            } ]
          },
          "count": 0
        }, {
          "id": "Numerator_1",
          "code": {
            "coding": [ {
              "system": "http://terminology.hl7.org/CodeSystem/measure-population",
              "code": "numerator",
              "display": "Numerator"
            } ]
          },
          "count": 0
        }, {
          "id": "DenominatorException_1",
          "code": {
            "coding": [ {
              "system": "http://terminology.hl7.org/CodeSystem/measure-population",
              "code": "denominator-exception",
              "display": "Denominator Exception"
            } ]
          },
          "count": 1
        } ],
        "measureScore": {
          "value": 1.0
        }
      } ],
      "evaluatedResource": [ {
        "reference": "Patient/d0ba1182-26fa-4cfa-9f91-960503b7fe53"
      }, {
        "reference": "Encounter/b912bcdc-7fa4-49af-99ba-0b4d6cf1929f"
      }, {
        "reference": "Observation/183abfe3-55aa-4e11-ab05-52938cd0e62c"
      }, {
        "reference": "Coverage/32f89f15-d3fe-40f6-b170-89bba874a7ee"
      }, {
        "reference": "Organization/1c71abf8-0e3b-4a2a-a767-58486805de6e"
      }, {
        "reference": "Practitioner/9caf4d4f-c309-4427-99cd-f12331ebdf5b"
      } ]
    },
    "request": {
      "method": "PUT",
      "url": "MeasureReport/7679064c-7582-422e-ae71-ea94b31cf649"
    }
  } ]
}