{
  "resourceType": "Bundle",
  "id": "62fd4b660968f8012246b012",
  "type": "transaction",
  "entry": [ {
    "fullUrl": "https://madie.cms.gov/Patient/f2634662-4c9c-4963-b3f4-f90c3794bcc3",
    "resource": {
      "resourceType": "Patient",
      "id": "f2634662-4c9c-4963-b3f4-f90c3794bcc3",
      "meta": {
        "profile": [ "http://hl7.org/fhir/us/qicore/StructureDefinition/qicore-patient" ]
      },
      "extension": [ {
        "url": "http://hl7.org/fhir/us/core/StructureDefinition/us-core-race",
        "extension": [ {
          "url": "ombCategory",
          "valueCoding": {
            "system": "urn:oid:2.16.840.1.113883.6.238",
            "code": "2028-9",
            "display": "Asian",
            "userSelected": true
          }
        }, {
          "url": "text",
          "valueString": "Asian"
        } ]
      }, {
        "url": "http://hl7.org/fhir/us/core/StructureDefinition/us-core-ethnicity",
        "extension": [ {
          "url": "ombCategory",
          "valueCoding": {
            "system": "urn:oid:2.16.840.1.113883.6.238",
            "code": "2186-5",
            "display": "Not Hispanic or Latino",
            "userSelected": true
          }
        }, {
          "url": "text",
          "valueString": "Not Hispanic or Latino"
        } ]
      } ],
      "identifier": [ {
        "type": {
          "coding": [ {
            "system": "http://terminology.hl7.org/CodeSystem/v2-0203",
            "code": "MR"
          } ]
        },
        "system": "https://bonnie-fhir.healthit.gov/",
        "value": "62fd4b660968f8012246b012"
      } ],
      "name": [ {
        "family": "DenomPass",
        "given": [ "EncRefNewPsychDRC" ]
      } ],
      "gender": "female",
      "birthDate": "1989-11-29"
    },
    "request": {
      "method": "PUT",
      "url": "Patient/f2634662-4c9c-4963-b3f4-f90c3794bcc3"
    }
  }, {
    "fullUrl": "https://madie.cms.gov/ServiceRequest/59ad688f-d76e-4d49-b8fb-785ac1090c28",
    "resource": {
      "resourceType": "ServiceRequest",
      "id": "59ad688f-d76e-4d49-b8fb-785ac1090c28",
      "meta": {
        "profile": [ "http://hl7.org/fhir/us/qicore/StructureDefinition/qicore-servicerequest" ]
      },
      "status": "completed",
      "intent": "order",
      "code": {
        "coding": [ {
          "system": "http://snomed.info/sct",
          "version": "2022-03",
          "code": "103696004",
          "display": "Patient referral to specialist (procedure)",
          "userSelected": true
        } ]
      },
      "subject": {
        "reference": "Patient/f2634662-4c9c-4963-b3f4-f90c3794bcc3"
      },
      "authoredOn": "2026-01-01T00:00:00.000+00:00"
    },
    "request": {
      "method": "PUT",
      "url": "ServiceRequest/59ad688f-d76e-4d49-b8fb-785ac1090c28"
    }
  }, {
    "fullUrl": "https://madie.cms.gov/Procedure/74986719-8cfa-4ade-b515-bcfc215c7b9b",
    "resource": {
      "resourceType": "Procedure",
      "id": "74986719-8cfa-4ade-b515-bcfc215c7b9b",
      "meta": {
        "profile": [ "http://hl7.org/fhir/us/qicore/StructureDefinition/qicore-procedure" ]
      },
      "extension": [ {
        "url": "http://hl7.org/fhir/us/qicore/StructureDefinition/qicore-recorded",
        "valueDateTime": "2026-01-01T00:00:00.000+00:00"
      } ],
      "status": "completed",
      "code": {
        "coding": [ {
          "system": "http://www.ama-assn.org/go/cpt",
          "code": "96156",
          "display": "Health behavior assessment, or re-assessment (ie, health-focused clinical interview, behavioral observations, clinical decision making)",
          "userSelected": true
        } ]
      },
      "subject": {
        "reference": "Patient/f2634662-4c9c-4963-b3f4-f90c3794bcc3"
      },
      "performedDateTime": "2026-01-01T00:00:00.000+00:00"
    },
    "request": {
      "method": "PUT",
      "url": "Procedure/74986719-8cfa-4ade-b515-bcfc215c7b9b"
    }
  }, {
    "fullUrl": "https://madie.cms.gov/Coverage/67f847a9-f595-44d1-b535-87977340f733",
    "resource": {
      "resourceType": "Coverage",
      "id": "67f847a9-f595-44d1-b535-87977340f733",
      "meta": {
        "profile": [ "http://hl7.org/fhir/us/qicore/StructureDefinition/qicore-coverage" ]
      },
      "status": "active",
      "beneficiary": {
        "reference": "Patient/f2634662-4c9c-4963-b3f4-f90c3794bcc3"
      },
      "payor": [ {
        "reference": "Organization/a3732066-b9fd-4644-be5b-fe418294e957"
      } ]
    },
    "request": {
      "method": "PUT",
      "url": "Coverage/67f847a9-f595-44d1-b535-87977340f733"
    }
  }, {
    "fullUrl": "https://madie.cms.gov/Organization/a3732066-b9fd-4644-be5b-fe418294e957",
    "resource": {
      "resourceType": "Organization",
      "id": "a3732066-b9fd-4644-be5b-fe418294e957",
      "meta": {
        "profile": [ "http://hl7.org/fhir/us/qicore/StructureDefinition/qicore-organization" ]
      },
      "identifier": [ {
        "use": "temp",
        "system": "urn:oid:2.16.840.1.113883.4.4",
        "value": "21-3259825"
      } ],
      "active": true,
      "type": [ {
        "coding": [ {
          "system": "http://terminology.hl7.org/CodeSystem/organization-type",
          "code": "pay",
          "display": "Payer"
        } ]
      } ],
      "name": "Blue Cross Blue Shield of Texas",
      "telecom": [ {
        "system": "phone",
        "value": "(+1) 972-766-6900"
      } ],
      "address": [ {
        "use": "billing",
        "type": "postal",
        "line": [ "P.O. Box 660044" ],
        "city": "Dallas",
        "state": "TX",
        "postalCode": "75266-0044",
        "country": "USA"
      } ]
    },
    "request": {
      "method": "PUT",
      "url": "Organization/a3732066-b9fd-4644-be5b-fe418294e957"
    }
  }, {
    "fullUrl": "https://madie.cms.gov/Practitioner/d8ccf926-9a63-4861-a52c-bd3de9f0e804",
    "resource": {
      "resourceType": "Practitioner",
      "id": "d8ccf926-9a63-4861-a52c-bd3de9f0e804",
      "meta": {
        "profile": [ "http://hl7.org/fhir/us/qicore/StructureDefinition/qicore-practitioner" ]
      },
      "identifier": [ {
        "system": "http://hl7.org/fhir/sid/us-npi",
        "value": "123456"
      } ],
      "name": [ {
        "family": "Evil",
        "prefix": [ "Dr" ]
      } ]
    },
    "request": {
      "method": "PUT",
      "url": "Practitioner/d8ccf926-9a63-4861-a52c-bd3de9f0e804"
    }
  }, {
    "fullUrl": "https://madie.cms.gov/MeasureReport/38eef14c-7056-4c27-be19-55bf651b5ce3",
    "resource": {
      "resourceType": "MeasureReport",
      "id": "38eef14c-7056-4c27-be19-55bf651b5ce3",
      "meta": {
        "profile": [ "http://hl7.org/fhir/us/cqfmeasures/StructureDefinition/test-case-cqfm" ]
      },
      "contained": [ {
        "resourceType": "Parameters",
        "id": "65153f48-2788-46ed-b740-f434298db306-parameters",
        "parameter": [ {
          "name": "subject",
          "valueString": "f2634662-4c9c-4963-b3f4-f90c3794bcc3"
        } ]
      } ],
      "extension": [ {
        "url": "http://hl7.org/fhir/StructureDefinition/cqf-inputParameters",
        "valueReference": {
          "reference": "#65153f48-2788-46ed-b740-f434298db306-parameters"
        }
      }, {
        "url": "http://hl7.org/fhir/us/cqfmeasures/StructureDefinition/cqfm-testCaseDescription",
        "valueMarkdown": "Enc starts first minute of MP and ends in 59 minutes, referral order made."
      } ],
      "modifierExtension": [ {
        "url": "http://hl7.org/fhir/us/cqfmeasures/StructureDefinition/cqfm-isTestCase",
        "valueBoolean": true
      } ],
      "status": "complete",
      "type": "individual",
      "measure": "https://madie.cms.gov/Measure/CMS50FHIRCRLReceiptofSpecialistReport",
      "period": {
        "start": "2026-01-01",
        "end": "2026-12-31"
      },
      "group": [ {
        "id": "Group_1",
        "population": [ {
          "id": "InitialPopulation_1",
          "code": {
            "coding": [ {
              "system": "http://terminology.hl7.org/CodeSystem/measure-population",
              "code": "initial-population",
              "display": "Initial Population"
            } ]
          },
          "count": 1
        }, {
          "id": "Denominator_1",
          "code": {
            "coding": [ {
              "system": "http://terminology.hl7.org/CodeSystem/measure-population",
              "code": "denominator",
              "display": "Denominator"
            } ]
          },
          "count": 1
        }, {
          "id": "Numerator_1",
          "code": {
            "coding": [ {
              "system": "http://terminology.hl7.org/CodeSystem/measure-population",
              "code": "numerator",
              "display": "Numerator"
            } ]
          },
          "count": 0
        } ],
        "measureScore": {
          "value": 1.0
        }
      } ],
      "evaluatedResource": [ {
        "reference": "Patient/f2634662-4c9c-4963-b3f4-f90c3794bcc3"
      }, {
        "reference": "ServiceRequest/59ad688f-d76e-4d49-b8fb-785ac1090c28"
      }, {
        "reference": "Procedure/74986719-8cfa-4ade-b515-bcfc215c7b9b"
      }, {
        "reference": "Coverage/67f847a9-f595-44d1-b535-87977340f733"
      }, {
        "reference": "Organization/a3732066-b9fd-4644-be5b-fe418294e957"
      }, {
        "reference": "Practitioner/d8ccf926-9a63-4861-a52c-bd3de9f0e804"
      } ]
    },
    "request": {
      "method": "PUT",
      "url": "MeasureReport/38eef14c-7056-4c27-be19-55bf651b5ce3"
    }
  } ]
}