{
  "resourceType": "Bundle",
  "id": "62bb3859e8081f5ef5e199f5",
  "type": "transaction",
  "entry": [ {
    "fullUrl": "https://madie.cms.gov/Patient/980aacce-6052-485f-add6-59bc79c352da",
    "resource": {
      "resourceType": "Patient",
      "id": "980aacce-6052-485f-add6-59bc79c352da",
      "meta": {
        "profile": [ "http://hl7.org/fhir/us/qicore/StructureDefinition/qicore-patient" ]
      },
      "extension": [ {
        "url": "http://hl7.org/fhir/us/core/StructureDefinition/us-core-race",
        "extension": [ {
          "url": "ombCategory",
          "valueCoding": {
            "system": "urn:oid:2.16.840.1.113883.6.238",
            "code": "1002-5",
            "display": "American Indian or Alaska Native",
            "userSelected": true
          }
        }, {
          "url": "text",
          "valueString": "American Indian or Alaska Native"
        } ]
      }, {
        "url": "http://hl7.org/fhir/us/core/StructureDefinition/us-core-ethnicity",
        "extension": [ {
          "url": "ombCategory",
          "valueCoding": {
            "system": "urn:oid:2.16.840.1.113883.6.238",
            "code": "2135-2",
            "display": "Hispanic or Latino",
            "userSelected": true
          }
        }, {
          "url": "text",
          "valueString": "Hispanic or Latino"
        } ]
      } ],
      "identifier": [ {
        "type": {
          "coding": [ {
            "system": "http://terminology.hl7.org/CodeSystem/v2-0203",
            "code": "MR"
          } ]
        },
        "system": "https://bonnie-fhir.healthit.gov/",
        "value": "62bb3859e8081f5ef5e199f5"
      } ],
      "name": [ {
        "family": "IPPFail",
        "given": [ "EncounterBeforeMP" ]
      } ],
      "gender": "male",
      "birthDate": "1962-07-19"
    },
    "request": {
      "method": "PUT",
      "url": "Patient/980aacce-6052-485f-add6-59bc79c352da"
    }
  }, {
    "fullUrl": "https://madie.cms.gov/Encounter/0a4c9ea4-8a8a-47f2-acba-ab2a811ba3f3",
    "resource": {
      "resourceType": "Encounter",
      "id": "0a4c9ea4-8a8a-47f2-acba-ab2a811ba3f3",
      "meta": {
        "profile": [ "http://hl7.org/fhir/us/qicore/StructureDefinition/qicore-encounter" ]
      },
      "status": "finished",
      "class": {
        "system": "http://terminology.hl7.org/CodeSystem/v3-ActCode",
        "code": "AMB",
        "display": "ambulatory"
      },
      "type": [ {
        "coding": [ {
          "system": "http://snomed.info/sct",
          "version": "http://snomed.info/sct/731000124108/version/20240401",
          "code": "185463005",
          "display": "Visit out of hours (procedure)",
          "userSelected": true
        } ]
      } ],
      "subject": {
        "reference": "Patient/980aacce-6052-485f-add6-59bc79c352da"
      },
      "period": {
        "start": "2025-11-29T08:00:00.000+00:00",
        "end": "2025-11-29T08:15:00.000+00:00"
      }
    },
    "request": {
      "method": "PUT",
      "url": "Encounter/0a4c9ea4-8a8a-47f2-acba-ab2a811ba3f3"
    }
  }, {
    "fullUrl": "https://madie.cms.gov/Condition/38cbda32-18a3-4f06-8da3-f7eee4b8bcd8",
    "resource": {
      "resourceType": "Condition",
      "id": "38cbda32-18a3-4f06-8da3-f7eee4b8bcd8",
      "meta": {
        "profile": [ "http://hl7.org/fhir/us/qicore/StructureDefinition/qicore-condition-problems-health-concerns" ]
      },
      "clinicalStatus": {
        "coding": [ {
          "system": "http://terminology.hl7.org/CodeSystem/condition-clinical",
          "code": "active",
          "display": "Active",
          "userSelected": true
        } ]
      },
      "verificationStatus": {
        "coding": [ {
          "system": "http://terminology.hl7.org/CodeSystem/condition-ver-status",
          "code": "confirmed",
          "display": "Confirmed",
          "userSelected": true
        } ]
      },
      "category": [ {
        "coding": [ {
          "system": "http://terminology.hl7.org/CodeSystem/condition-category",
          "code": "problem-list-item",
          "display": "Problem List Item"
        } ]
      } ],
      "code": {
        "coding": [ {
          "system": "http://snomed.info/sct",
          "version": "http://snomed.info/sct/731000124108/version/20240401",
          "code": "254900004",
          "display": "Carcinoma of prostate (disorder)",
          "userSelected": true
        } ]
      },
      "subject": {
        "reference": "Patient/980aacce-6052-485f-add6-59bc79c352da"
      },
      "onsetPeriod": {
        "start": "2026-01-03T08:00:00.000+00:00"
      }
    },
    "request": {
      "method": "PUT",
      "url": "Condition/38cbda32-18a3-4f06-8da3-f7eee4b8bcd8"
    }
  }, {
    "fullUrl": "https://madie.cms.gov/MedicationRequest/cc066e4f-d507-4be0-9575-9c7df860bc32",
    "resource": {
      "resourceType": "MedicationRequest",
      "id": "cc066e4f-d507-4be0-9575-9c7df860bc32",
      "meta": {
        "profile": [ "http://hl7.org/fhir/us/qicore/StructureDefinition/qicore-medicationrequest" ]
      },
      "status": "active",
      "intent": "order",
      "medicationCodeableConcept": {
        "coding": [ {
          "system": "http://www.nlm.nih.gov/research/umls/rxnorm",
          "version": "2025-01",
          "code": "752886",
          "display": "0.375 ML leuprolide acetate 120 MG/ML Prefilled Syringe",
          "userSelected": true
        } ]
      },
      "subject": {
        "reference": "Patient/980aacce-6052-485f-add6-59bc79c352da"
      },
      "authoredOn": "2026-01-03T08:00:00.000+00:00",
      "requester": {
        "reference": "http://myGoodHealthcare.com/fhir/Practitioner/646346"
      },
      "dosageInstruction": [ {
        "timing": {
          "repeat": {
            "boundsPeriod": {
              "start": "2026-01-03T08:00:00.000+00:00"
            }
          }
        }
      } ]
    },
    "request": {
      "method": "PUT",
      "url": "MedicationRequest/cc066e4f-d507-4be0-9575-9c7df860bc32"
    }
  }, {
    "fullUrl": "https://madie.cms.gov/ServiceRequest/f99fc257-39d5-4e42-aaf6-bebce39d532b",
    "resource": {
      "resourceType": "ServiceRequest",
      "id": "f99fc257-39d5-4e42-aaf6-bebce39d532b",
      "meta": {
        "profile": [ "http://hl7.org/fhir/us/qicore/StructureDefinition/qicore-servicerequest" ]
      },
      "status": "active",
      "intent": "order",
      "code": {
        "coding": [ {
          "system": "http://snomed.info/sct",
          "code": "456381000124102",
          "display": "Injection of leuprolide acetate for twelve month period (regime/therapy)",
          "userSelected": true
        } ]
      },
      "subject": {
        "reference": "Patient/980aacce-6052-485f-add6-59bc79c352da"
      },
      "authoredOn": "2026-01-03T08:00:00.000+00:00"
    },
    "request": {
      "method": "PUT",
      "url": "ServiceRequest/f99fc257-39d5-4e42-aaf6-bebce39d532b"
    }
  }, {
    "fullUrl": "https://madie.cms.gov/MeasureReport/650adc93-7a50-452f-aad7-450a6198dad0",
    "resource": {
      "resourceType": "MeasureReport",
      "id": "650adc93-7a50-452f-aad7-450a6198dad0",
      "meta": {
        "profile": [ "http://hl7.org/fhir/us/cqfmeasures/StructureDefinition/test-case-cqfm" ]
      },
      "contained": [ {
        "resourceType": "Parameters",
        "id": "79298606-1df3-4036-9254-db91a5122f99-parameters",
        "parameter": [ {
          "name": "subject",
          "valueString": "980aacce-6052-485f-add6-59bc79c352da"
        } ]
      } ],
      "extension": [ {
        "url": "http://hl7.org/fhir/StructureDefinition/cqf-inputParameters",
        "valueReference": {
          "reference": "#79298606-1df3-4036-9254-db91a5122f99-parameters"
        }
      }, {
        "url": "http://hl7.org/fhir/us/cqfmeasures/StructureDefinition/cqfm-testCaseDescription",
        "valueMarkdown": "Dx of Prostate Cancer and ADT in measurement period. \n Qualifying encounter before MP.  Fails IPP Criteria"
      } ],
      "modifierExtension": [ {
        "url": "http://hl7.org/fhir/us/cqfmeasures/StructureDefinition/cqfm-isTestCase",
        "valueBoolean": true
      } ],
      "status": "complete",
      "type": "individual",
      "measure": "https://madie.cms.gov/Measure/CMS645FHIRBoneDensityProstateCancerAndrogenDeprivationTherapy",
      "period": {
        "start": "2026-01-01",
        "end": "2026-12-31"
      },
      "group": [ {
        "id": "Group_1",
        "population": [ {
          "id": "InitialPopulation_1",
          "code": {
            "coding": [ {
              "system": "http://terminology.hl7.org/CodeSystem/measure-population",
              "code": "initial-population",
              "display": "Initial Population"
            } ]
          },
          "count": 0
        }, {
          "id": "Denominator_1",
          "code": {
            "coding": [ {
              "system": "http://terminology.hl7.org/CodeSystem/measure-population",
              "code": "denominator",
              "display": "Denominator"
            } ]
          },
          "count": 0
        }, {
          "id": "Numerator_1",
          "code": {
            "coding": [ {
              "system": "http://terminology.hl7.org/CodeSystem/measure-population",
              "code": "numerator",
              "display": "Numerator"
            } ]
          },
          "count": 0
        }, {
          "id": "DenominatorException_1",
          "code": {
            "coding": [ {
              "system": "http://terminology.hl7.org/CodeSystem/measure-population",
              "code": "denominator-exception",
              "display": "Denominator Exception"
            } ]
          },
          "count": 0
        } ],
        "measureScore": {
          "value": 1.0
        }
      } ],
      "evaluatedResource": [ {
        "reference": "Patient/980aacce-6052-485f-add6-59bc79c352da"
      }, {
        "reference": "Encounter/0a4c9ea4-8a8a-47f2-acba-ab2a811ba3f3"
      }, {
        "reference": "Condition/38cbda32-18a3-4f06-8da3-f7eee4b8bcd8"
      }, {
        "reference": "MedicationRequest/cc066e4f-d507-4be0-9575-9c7df860bc32"
      }, {
        "reference": "ServiceRequest/f99fc257-39d5-4e42-aaf6-bebce39d532b"
      } ]
    },
    "request": {
      "method": "PUT",
      "url": "MeasureReport/650adc93-7a50-452f-aad7-450a6198dad0"
    }
  } ]
}