{
  "resourceType": "Bundle",
  "id": "tests-DENOM-TwoEncountersOneWithMed-bundle",
  "type": "transaction",
  "entry": [ {
    "fullUrl": "https://madie.cms.gov/Encounter/57335b0f-349e-4f0b-b90e-91d9e9cf6dc2",
    "resource": {
      "resourceType": "Encounter",
      "id": "57335b0f-349e-4f0b-b90e-91d9e9cf6dc2",
      "meta": {
        "profile": [ "http://hl7.org/fhir/us/qicore/StructureDefinition/qicore-encounter" ]
      },
      "status": "finished",
      "class": {
        "system": "http://terminology.hl7.org/CodeSystem/v3-ActCode",
        "code": "IMP",
        "display": "Inpatient encounter"
      },
      "type": [ {
        "coding": [ {
          "system": "http://snomed.info/sct",
          "code": "183452005",
          "display": "Inpatient encounter"
        } ]
      } ],
      "period": {
        "start": "2026-07-11T08:00:00.000+00:00",
        "end": "2026-07-13T09:00:00.000+00:00"
      }
    },
    "request": {
      "method": "PUT",
      "url": "Encounter/57335b0f-349e-4f0b-b90e-91d9e9cf6dc2"
    }
  }, {
    "fullUrl": "https://madie.cms.gov/Encounter/97766a27-fc60-41fe-8f57-7eb461c41dab",
    "resource": {
      "resourceType": "Encounter",
      "id": "97766a27-fc60-41fe-8f57-7eb461c41dab",
      "meta": {
        "profile": [ "http://hl7.org/fhir/us/qicore/StructureDefinition/qicore-encounter" ]
      },
      "status": "finished",
      "class": {
        "system": "http://terminology.hl7.org/CodeSystem/v3-ActCode",
        "code": "IMP",
        "display": "Inpatient encounter"
      },
      "type": [ {
        "coding": [ {
          "system": "http://snomed.info/sct",
          "code": "183452005",
          "display": "Inpatient encounter"
        } ]
      } ],
      "period": {
        "start": "2026-01-01T08:00:00.000+00:00",
        "end": "2026-01-04T09:00:00.000+00:00"
      }
    },
    "request": {
      "method": "PUT",
      "url": "Encounter/97766a27-fc60-41fe-8f57-7eb461c41dab"
    }
  }, {
    "fullUrl": "https://madie.cms.gov/MedicationAdministration/cbdcc408-01da-4b7c-be9d-69e759acd5b1",
    "resource": {
      "resourceType": "MedicationAdministration",
      "id": "cbdcc408-01da-4b7c-be9d-69e759acd5b1",
      "meta": {
        "profile": [ "http://hl7.org/fhir/us/qicore/StructureDefinition/qicore-medicationadministration" ]
      },
      "status": "completed",
      "medicationCodeableConcept": {
        "coding": [ {
          "system": "http://www.nlm.nih.gov/research/umls/rxnorm",
          "code": "1731315",
          "display": "Hypoglycemics Severe Hypoglycemia"
        } ]
      },
      "subject": {
        "reference": "Patient/ecde4132-9028-420a-aa7c-d1d14e5c1ab0"
      },
      "effectivePeriod": {
        "start": "2026-07-11T08:00:00.000+00:00",
        "end": "2026-07-11T09:00:00.000+00:00"
      }
    },
    "request": {
      "method": "PUT",
      "url": "MedicationAdministration/cbdcc408-01da-4b7c-be9d-69e759acd5b1"
    }
  }, {
    "fullUrl": "https://madie.cms.gov/Patient/ecde4132-9028-420a-aa7c-d1d14e5c1ab0",
    "resource": {
      "resourceType": "Patient",
      "id": "ecde4132-9028-420a-aa7c-d1d14e5c1ab0",
      "meta": {
        "profile": [ "http://hl7.org/fhir/us/qicore/StructureDefinition/qicore-patient" ]
      },
      "extension": [ {
        "url": "http://hl7.org/fhir/us/core/StructureDefinition/us-core-race",
        "extension": [ {
          "url": "ombCategory",
          "valueCoding": {
            "system": "urn:oid:2.16.840.1.113883.6.238",
            "code": "2106-3",
            "display": "White"
          }
        }, {
          "url": "text",
          "valueString": "White"
        } ]
      }, {
        "url": "http://hl7.org/fhir/us/core/StructureDefinition/us-core-ethnicity",
        "extension": [ {
          "url": "ombCategory",
          "valueCoding": {
            "system": "urn:oid:2.16.840.1.113883.6.238",
            "code": "2135-2",
            "display": "Hispanic or Latino"
          }
        }, {
          "url": "text",
          "valueString": "Hispanic or Latino"
        } ]
      }, {
        "url": "http://hl7.org/fhir/us/core/StructureDefinition/us-core-sex",
        "valueCode": "248153007"
      } ],
      "identifier": [ {
        "system": "http://hospital.smarthealthit.org",
        "value": "999999999"
      } ],
      "name": [ {
        "family": "Example",
        "given": [ "Patient" ]
      } ],
      "gender": "female",
      "birthDate": "1956-01-01"
    },
    "request": {
      "method": "PUT",
      "url": "Patient/ecde4132-9028-420a-aa7c-d1d14e5c1ab0"
    }
  }, {
    "fullUrl": "https://madie.cms.gov/MeasureReport/3e59d3a5-d40d-4982-bc6b-f5e57a48496f",
    "resource": {
      "resourceType": "MeasureReport",
      "id": "3e59d3a5-d40d-4982-bc6b-f5e57a48496f",
      "meta": {
        "profile": [ "http://hl7.org/fhir/us/cqfmeasures/StructureDefinition/test-case-cqfm" ]
      },
      "contained": [ {
        "resourceType": "Parameters",
        "id": "e6890ae8-edd2-4476-ab1f-8bf4b3c95886-parameters",
        "parameter": [ {
          "name": "subject",
          "valueString": "ecde4132-9028-420a-aa7c-d1d14e5c1ab0"
        } ]
      } ],
      "extension": [ {
        "url": "http://hl7.org/fhir/StructureDefinition/cqf-inputParameters",
        "valueReference": {
          "reference": "#e6890ae8-edd2-4476-ab1f-8bf4b3c95886-parameters"
        }
      }, {
        "url": "http://hl7.org/fhir/us/cqfmeasures/StructureDefinition/cqfm-testCaseDescription",
        "valueMarkdown": "Two encounters, one with meds administered, one without meds, no lab tests. Denom = 1 for first encounter. Doesn't meet denom in second encounter due to no meds during 2nd encounter."
      } ],
      "modifierExtension": [ {
        "url": "http://hl7.org/fhir/us/cqfmeasures/StructureDefinition/cqfm-isTestCase",
        "valueBoolean": true
      } ],
      "status": "complete",
      "type": "individual",
      "measure": "https://madie.cms.gov/Measure/CMS816FHIRHHHypo",
      "period": {
        "start": "2026-01-01",
        "end": "2026-12-31"
      },
      "group": [ {
        "id": "Group_1",
        "population": [ {
          "id": "InitialPopulation_1",
          "code": {
            "coding": [ {
              "system": "http://terminology.hl7.org/CodeSystem/measure-population",
              "code": "initial-population",
              "display": "Initial Population"
            } ]
          },
          "count": 1
        }, {
          "id": "Denominator_1",
          "code": {
            "coding": [ {
              "system": "http://terminology.hl7.org/CodeSystem/measure-population",
              "code": "denominator",
              "display": "Denominator"
            } ]
          },
          "count": 1
        }, {
          "id": "Numerator_1",
          "code": {
            "coding": [ {
              "system": "http://terminology.hl7.org/CodeSystem/measure-population",
              "code": "numerator",
              "display": "Numerator"
            } ]
          },
          "count": 0
        } ],
        "measureScore": {
          "value": 0.0
        }
      } ],
      "evaluatedResource": [ {
        "reference": "Encounter/57335b0f-349e-4f0b-b90e-91d9e9cf6dc2"
      }, {
        "reference": "Encounter/97766a27-fc60-41fe-8f57-7eb461c41dab"
      }, {
        "reference": "MedicationAdministration/cbdcc408-01da-4b7c-be9d-69e759acd5b1"
      }, {
        "reference": "Patient/ecde4132-9028-420a-aa7c-d1d14e5c1ab0"
      } ]
    },
    "request": {
      "method": "PUT",
      "url": "MeasureReport/3e59d3a5-d40d-4982-bc6b-f5e57a48496f"
    }
  } ]
}