{
  "resourceType": "Bundle",
  "id": "6129134d02c62a011f2e7130",
  "type": "transaction",
  "entry": [ {
    "fullUrl": "https://madie.cms.gov/Patient/0852e05c-94f3-4467-ad2c-255ffc5050e9",
    "resource": {
      "resourceType": "Patient",
      "id": "0852e05c-94f3-4467-ad2c-255ffc5050e9",
      "meta": {
        "profile": [ "http://hl7.org/fhir/us/qicore/StructureDefinition/qicore-patient" ]
      },
      "text": {
        "status": "generated",
        "div": "<div xmlns=\"http://www.w3.org/1999/xhtml\"><div class=\"hapiHeaderText\">CMOdurED_ED&lt;1hrObs&lt;1hrBFEnc <b>DENEXPASS </b></div><table class=\"hapiPropertyTable\"><tbody><tr><td>Identifier</td><td>9f33229f87c10a35f78ce016aca297879ccda928800ebb32cb3005131188e0c3</td></tr><tr><td>Date of birth</td><td><span>21 August 1994</span></td></tr></tbody></table></div>"
      },
      "extension": [ {
        "url": "http://hl7.org/fhir/us/core/StructureDefinition/us-core-race",
        "extension": [ {
          "url": "ombCategory",
          "valueCoding": {
            "system": "urn:oid:2.16.840.1.113883.6.238",
            "code": "1002-5",
            "display": "American Indian or Alaska Native",
            "userSelected": true
          }
        }, {
          "url": "text",
          "valueString": "American Indian or Alaska Native"
        } ]
      }, {
        "url": "http://hl7.org/fhir/us/core/StructureDefinition/us-core-ethnicity",
        "extension": [ {
          "url": "ombCategory",
          "valueCoding": {
            "system": "urn:oid:2.16.840.1.113883.6.238",
            "code": "2135-2",
            "display": "Hispanic or Latino",
            "userSelected": true
          }
        }, {
          "url": "text",
          "valueString": "Hispanic or Latino"
        } ]
      } ],
      "identifier": [ {
        "type": {
          "coding": [ {
            "system": "http://terminology.hl7.org/CodeSystem/v2-0203",
            "code": "MR"
          } ]
        },
        "system": "https://bonnie-fhir.healthit.gov/",
        "value": "6129134d02c62a011f2e7130"
      } ],
      "active": true,
      "name": [ {
        "use": "usual",
        "family": "DENEXPass",
        "given": [ "CMOdurED_ED<1hrObs<1hrBFEnc" ]
      } ],
      "gender": "male",
      "birthDate": "1995-08-21"
    },
    "request": {
      "method": "PUT",
      "url": "Patient/0852e05c-94f3-4467-ad2c-255ffc5050e9"
    }
  }, {
    "fullUrl": "https://madie.cms.gov/Encounter/6f6f725d-45f7-41e4-b587-14adef92919f",
    "resource": {
      "resourceType": "Encounter",
      "id": "6f6f725d-45f7-41e4-b587-14adef92919f",
      "meta": {
        "profile": [ "http://hl7.org/fhir/us/qicore/StructureDefinition/qicore-encounter" ]
      },
      "status": "finished",
      "class": {
        "system": "http://terminology.hl7.org/CodeSystem/v3-ActCode",
        "code": "EMER",
        "display": "emergency",
        "userSelected": true
      },
      "type": [ {
        "coding": [ {
          "system": "http://snomed.info/sct",
          "code": "4525004"
        } ]
      } ],
      "subject": {
        "reference": "Patient/0852e05c-94f3-4467-ad2c-255ffc5050e9"
      },
      "period": {
        "start": "2026-10-10T09:30:00Z",
        "end": "2026-10-10T10:30:00.000+00:00"
      },
      "length": {
        "value": 0,
        "unit": "days"
      }
    },
    "request": {
      "method": "PUT",
      "url": "Encounter/6f6f725d-45f7-41e4-b587-14adef92919f"
    }
  }, {
    "fullUrl": "https://madie.cms.gov/Encounter/3939c40d-3f9e-45ad-b288-b844d0364a38",
    "resource": {
      "resourceType": "Encounter",
      "id": "3939c40d-3f9e-45ad-b288-b844d0364a38",
      "meta": {
        "profile": [ "http://hl7.org/fhir/us/qicore/StructureDefinition/qicore-encounter" ]
      },
      "status": "finished",
      "class": {
        "system": "http://terminology.hl7.org/CodeSystem/v3-ActCode",
        "code": "OBSENC",
        "display": "observation encounter",
        "userSelected": true
      },
      "type": [ {
        "coding": [ {
          "system": "http://snomed.info/sct",
          "code": "448851000124103"
        } ]
      } ],
      "subject": {
        "reference": "Patient/0852e05c-94f3-4467-ad2c-255ffc5050e9"
      },
      "period": {
        "start": "2026-10-10T10:31:00Z",
        "end": "2026-10-10T10:35:00.000+00:00"
      },
      "length": {
        "value": 0,
        "unit": "days"
      }
    },
    "request": {
      "method": "PUT",
      "url": "Encounter/3939c40d-3f9e-45ad-b288-b844d0364a38"
    }
  }, {
    "fullUrl": "https://madie.cms.gov/Encounter/70c6cc57-9fa6-4fbc-8c32-2e53889f60c5",
    "resource": {
      "resourceType": "Encounter",
      "id": "70c6cc57-9fa6-4fbc-8c32-2e53889f60c5",
      "meta": {
        "profile": [ "http://hl7.org/fhir/us/qicore/StructureDefinition/qicore-encounter" ]
      },
      "status": "finished",
      "class": {
        "system": "http://terminology.hl7.org/CodeSystem/v3-ActCode",
        "code": "IMP",
        "display": "inpatient encounter",
        "userSelected": true
      },
      "type": [ {
        "coding": [ {
          "system": "http://snomed.info/sct",
          "code": "32485007"
        } ]
      } ],
      "subject": {
        "reference": "Patient/0852e05c-94f3-4467-ad2c-255ffc5050e9"
      },
      "period": {
        "start": "2026-10-10T11:36:00Z",
        "end": "2026-10-12T11:30:00.000+00:00"
      },
      "length": {
        "value": 2,
        "unit": "days"
      },
      "diagnosis": [ {
        "condition": {
          "reference": "Condition/0bd99736-da18-4e86-bf99-e6399d8cec12"
        },
        "use": {
          "coding": [ {
            "system": "http://terminology.hl7.org/CodeSystem/diagnosis-role",
            "code": "billing",
            "display": "Billing"
          } ]
        },
        "rank": 1
      } ]
    },
    "request": {
      "method": "PUT",
      "url": "Encounter/70c6cc57-9fa6-4fbc-8c32-2e53889f60c5"
    }
  }, {
    "fullUrl": "https://madie.cms.gov/ServiceRequest/b64e01af-e1fe-4b3e-a084-2019a17d3828",
    "resource": {
      "resourceType": "ServiceRequest",
      "id": "b64e01af-e1fe-4b3e-a084-2019a17d3828",
      "meta": {
        "profile": [ "http://hl7.org/fhir/us/qicore/StructureDefinition/qicore-servicerequest" ]
      },
      "status": "active",
      "intent": "order",
      "code": {
        "coding": [ {
          "system": "http://snomed.info/sct",
          "code": "133918004"
        } ]
      },
      "subject": {
        "reference": "Patient/0852e05c-94f3-4467-ad2c-255ffc5050e9"
      },
      "authoredOn": "2026-10-10T09:30:00Z"
    },
    "request": {
      "method": "PUT",
      "url": "ServiceRequest/b64e01af-e1fe-4b3e-a084-2019a17d3828"
    }
  }, {
    "fullUrl": "https://madie.cms.gov/Condition/0bd99736-da18-4e86-bf99-e6399d8cec12",
    "resource": {
      "resourceType": "Condition",
      "id": "0bd99736-da18-4e86-bf99-e6399d8cec12",
      "meta": {
        "profile": [ "http://hl7.org/fhir/us/qicore/StructureDefinition/qicore-condition" ]
      },
      "clinicalStatus": {
        "coding": [ {
          "system": "http://terminology.hl7.org/CodeSystem/condition-clinical",
          "code": "active"
        } ]
      },
      "verificationStatus": {
        "coding": [ {
          "system": "http://terminology.hl7.org/CodeSystem/condition-ver-status",
          "code": "confirmed"
        } ]
      },
      "category": [ {
        "coding": [ {
          "system": "http://terminology.hl7.org/CodeSystem/condition-category",
          "code": "encounter-diagnosis",
          "display": "Encounter Diagnosis"
        } ]
      } ],
      "code": {
        "coding": [ {
          "system": "http://snomed.info/sct",
          "version": "2020-09",
          "code": "111297002",
          "display": "Nonparalytic stroke (disorder)",
          "userSelected": true
        } ]
      },
      "subject": {
        "reference": "Patient/0852e05c-94f3-4467-ad2c-255ffc5050e9"
      },
      "recordedDate": "2026-07-14T08:00:00Z"
    },
    "request": {
      "method": "PUT",
      "url": "Condition/0bd99736-da18-4e86-bf99-e6399d8cec12"
    }
  }, {
    "fullUrl": "https://madie.cms.gov/claim/5ca62962b8484628b8de1ec5",
    "resource": {
      "resourceType": "Claim",
      "id": "5ca62962b8484628b8de1ec5",
      "meta": {
        "profile": [ "http://hl7.org/fhir/us/qicore/StructureDefinition/qicore-claim" ]
      },
      "status": "active",
      "type": {
        "coding": [ {
          "system": "http://terminology.hl7.org/CodeSystem/claim-type",
          "code": "institutional"
        } ]
      },
      "use": "claim",
      "patient": {
        "reference": "Patient/d170a0a8-b5ad-4303-b6df-e304dd5f92ad"
      },
      "created": "2026-12-01",
      "provider": {
        "reference": "Practitioner/practitioner-123456"
      },
      "priority": {
        "coding": [ {
          "system": "http://terminology.hl7.org/CodeSystem/processpriority",
          "code": "normal"
        } ]
      },
      "diagnosis": [ {
        "sequence": 1,
        "diagnosisCodeableConcept": {
          "coding": [ {
            "system": "http://hl7.org/fhir/sid/icd-10-cm",
            "code": "I63.00"
          } ]
        },
        "type": [ {
          "coding": [ {
            "system": "http://terminology.hl7.org/CodeSystem/ex-diagnosistype",
            "code": "principal"
          } ]
        } ]
      } ],
      "insurance": [ {
        "sequence": 1,
        "focal": true,
        "coverage": {
          "reference": "Coverage/5fa041661c76ba66d9959367"
        }
      } ],
      "item": [ {
        "sequence": 1,
        "diagnosisSequence": [ 1 ],
        "productOrService": {
          "coding": [ {
            "system": "http://terminology.hl7.org/CodeSystem/ex-USCLS",
            "code": "99555"
          } ]
        },
        "encounter": [ {
          "reference": "Encounter/70c6cc57-9fa6-4fbc-8c32-2e53889f60c5"
        } ]
      } ]
    },
    "request": {
      "method": "PUT",
      "url": "Claim/5ca62962b8484628b8de1ec5"
    }
  }, {
    "fullUrl": "https://madie.cms.gov/Coverage/9173e602-d992-4962-8751-20027ed56783",
    "resource": {
      "resourceType": "Coverage",
      "id": "9173e602-d992-4962-8751-20027ed56783",
      "meta": {
        "profile": [ "http://hl7.org/fhir/us/qicore/StructureDefinition/qicore-coverage" ]
      },
      "status": "active",
      "beneficiary": {
        "reference": "Patient/0852e05c-94f3-4467-ad2c-255ffc5050e9"
      },
      "payor": [ {
        "reference": "Organization/082722fb-324c-4424-9af3-421a9aaa31e5"
      } ]
    },
    "request": {
      "method": "PUT",
      "url": "Coverage/9173e602-d992-4962-8751-20027ed56783"
    }
  }, {
    "fullUrl": "https://madie.cms.gov/Organization/082722fb-324c-4424-9af3-421a9aaa31e5",
    "resource": {
      "resourceType": "Organization",
      "id": "082722fb-324c-4424-9af3-421a9aaa31e5",
      "meta": {
        "profile": [ "http://hl7.org/fhir/us/qicore/StructureDefinition/qicore-organization" ]
      },
      "identifier": [ {
        "use": "temp",
        "system": "urn:oid:2.16.840.1.113883.4.4",
        "value": "21-3259825"
      } ],
      "active": true,
      "type": [ {
        "coding": [ {
          "system": "http://terminology.hl7.org/CodeSystem/organization-type",
          "code": "pay",
          "display": "Payer"
        } ]
      } ],
      "name": "Blue Cross Blue Shield of Texas",
      "telecom": [ {
        "system": "phone",
        "value": "(+1) 972-766-6900"
      } ],
      "address": [ {
        "use": "billing",
        "type": "postal",
        "line": [ "P.O. Box 660044" ],
        "city": "Dallas",
        "state": "TX",
        "postalCode": "75266-0044",
        "country": "USA"
      } ]
    },
    "request": {
      "method": "PUT",
      "url": "Organization/082722fb-324c-4424-9af3-421a9aaa31e5"
    }
  }, {
    "fullUrl": "https://madie.cms.gov/MeasureReport/052299de-cbf1-4c24-971c-0ceae3e88fa1",
    "resource": {
      "resourceType": "MeasureReport",
      "id": "052299de-cbf1-4c24-971c-0ceae3e88fa1",
      "meta": {
        "profile": [ "http://hl7.org/fhir/us/cqfmeasures/StructureDefinition/test-case-cqfm" ]
      },
      "contained": [ {
        "resourceType": "Parameters",
        "id": "8c6f6176-8fc3-49a1-9c04-00ae035daf31-parameters",
        "parameter": [ {
          "name": "subject",
          "valueString": "0852e05c-94f3-4467-ad2c-255ffc5050e9"
        } ]
      } ],
      "extension": [ {
        "url": "http://hl7.org/fhir/StructureDefinition/cqf-inputParameters",
        "valueReference": {
          "reference": "#8c6f6176-8fc3-49a1-9c04-00ae035daf31-parameters"
        }
      }, {
        "url": "http://hl7.org/fhir/us/cqfmeasures/StructureDefinition/cqfm-testCaseDescription",
        "valueMarkdown": "Patient receives CMO during ED. ED ends 1 minute before Obs. Obs ends 61 min before inpatient encounter start.  Testing day of operator with HospitalizationWithObservation function."
      } ],
      "modifierExtension": [ {
        "url": "http://hl7.org/fhir/us/cqfmeasures/StructureDefinition/cqfm-isTestCase",
        "valueBoolean": true
      } ],
      "status": "complete",
      "type": "individual",
      "measure": "https://madie.cms.gov/Measure/CMS104FHIRSTKDCAntithrombotic",
      "period": {
        "start": "2026-01-01",
        "end": "2026-12-31"
      },
      "group": [ {
        "id": "Group_1",
        "population": [ {
          "id": "InitialPopulation_1",
          "code": {
            "coding": [ {
              "system": "http://terminology.hl7.org/CodeSystem/measure-population",
              "code": "initial-population",
              "display": "Initial Population"
            } ]
          },
          "count": 1
        }, {
          "id": "Denominator_1",
          "code": {
            "coding": [ {
              "system": "http://terminology.hl7.org/CodeSystem/measure-population",
              "code": "denominator",
              "display": "Denominator"
            } ]
          },
          "count": 1
        }, {
          "id": "DenominatorExclusion_1",
          "code": {
            "coding": [ {
              "system": "http://terminology.hl7.org/CodeSystem/measure-population",
              "code": "denominator-exclusion",
              "display": "Denominator Exclusion"
            } ]
          },
          "count": 0
        }, {
          "id": "Numerator_1",
          "code": {
            "coding": [ {
              "system": "http://terminology.hl7.org/CodeSystem/measure-population",
              "code": "numerator",
              "display": "Numerator"
            } ]
          },
          "count": 0
        }, {
          "id": "DenominatorException_1",
          "code": {
            "coding": [ {
              "system": "http://terminology.hl7.org/CodeSystem/measure-population",
              "code": "denominator-exception",
              "display": "Denominator Exception"
            } ]
          },
          "count": 0
        } ],
        "measureScore": {
          "value": 0.0
        }
      } ],
      "evaluatedResource": [ {
        "reference": "Patient/0852e05c-94f3-4467-ad2c-255ffc5050e9"
      }, {
        "reference": "Encounter/6f6f725d-45f7-41e4-b587-14adef92919f"
      }, {
        "reference": "Encounter/3939c40d-3f9e-45ad-b288-b844d0364a38"
      }, {
        "reference": "Encounter/70c6cc57-9fa6-4fbc-8c32-2e53889f60c5"
      }, {
        "reference": "ServiceRequest/b64e01af-e1fe-4b3e-a084-2019a17d3828"
      }, {
        "reference": "Condition/0bd99736-da18-4e86-bf99-e6399d8cec12"
      }, {
        "reference": "Claim/5ca62962b8484628b8de1ec5"
      }, {
        "reference": "Coverage/9173e602-d992-4962-8751-20027ed56783"
      }, {
        "reference": "Organization/082722fb-324c-4424-9af3-421a9aaa31e5"
      } ]
    },
    "request": {
      "method": "PUT",
      "url": "MeasureReport/052299de-cbf1-4c24-971c-0ceae3e88fa1"
    }
  } ]
}