{
    "entry": [
        {
            "request": {
                "method": "PUT",
                "url": "Patient/28370af1-320f-4431-9862-f433e0522373"
            },
            "resource": {
                "identifier": [{
                    "system": "https://bonnie-fhir.healthit.gov/",
                    "type": {"coding": [{
                        "system": "http://terminology.hl7.org/CodeSystem/v2-0203",
                        "code": "MR"
                    }]},
                    "value": "62cc2f5467cd2f796b838aaa"
                }],
                "extension": [
                    {
                        "extension": [
                            {
                                "valueCoding": {
                                    "system": "urn:oid:2.16.840.1.113883.6.238",
                                    "code": "2054-5",
                                    "userSelected": true,
                                    "display": "Black or African American"
                                },
                                "url": "ombCategory"
                            },
                            {
                                "valueString": "Black or African American",
                                "url": "text"
                            }
                        ],
                        "url": "http://hl7.org/fhir/us/core/StructureDefinition/us-core-race"
                    },
                    {
                        "extension": [
                            {
                                "valueCoding": {
                                    "system": "urn:oid:2.16.840.1.113883.6.238",
                                    "code": "2135-2",
                                    "userSelected": true,
                                    "display": "Hispanic or Latino"
                                },
                                "url": "ombCategory"
                            },
                            {
                                "valueString": "Hispanic or Latino",
                                "url": "text"
                            }
                        ],
                        "url": "http://hl7.org/fhir/us/core/StructureDefinition/us-core-ethnicity"
                    }
                ],
                "gender": "male",
                "meta": {"profile": ["http://hl7.org/fhir/us/qicore/StructureDefinition/qicore-patient"]},
                "name": [{
                    "given": ["MultipleElevatedEncLifestlyeFUReferralWithInterventions"],
                    "family": "NUMERPassX2"
                }],
                "id": "28370af1-320f-4431-9862-f433e0522373",
                "birthDate": "2006-01-31",
                "resourceType": "Patient"
            },
            "fullUrl": "https://madie.cms.gov/Patient/28370af1-320f-4431-9862-f433e0522373"
        },
        {
            "request": {
                "method": "PUT",
                "url": "Encounter/a313f8e0-95ba-4976-ae2d-f1bf6fdc244e"
            },
            "resource": {
                "period": {
                    "start": "2026-01-01T08:00:00.000+00:00",
                    "end": "2026-01-01T08:30:00.000+00:00"
                },
                "meta": {"profile": ["http://hl7.org/fhir/us/qicore/StructureDefinition/qicore-encounter"]},
                "subject": {"reference": "Patient/28370af1-320f-4431-9862-f433e0522373"},
                "id": "a313f8e0-95ba-4976-ae2d-f1bf6fdc244e",
                "type": [{"coding": [{
                    "system": "http://snomed.info/sct",
                    "code": "103705002",
                    "userSelected": true,
                    "display": "Patient status observation (procedure)",
                    "version": "2022-03"
                }]}],
                "class": {
                    "system": "http://terminology.hl7.org/CodeSystem/v3-ActCode",
                    "code": "AMB",
                    "display": "ambulatory"
                },
                "resourceType": "Encounter",
                "status": "finished"
            },
            "fullUrl": "https://madie.cms.gov/Encounter/a313f8e0-95ba-4976-ae2d-f1bf6fdc244e"
        },
        {
            "request": {
                "method": "PUT",
                "url": "Observation/84300a2a-e840-4e78-af7b-c4a02a8e193f"
            },
            "resource": {
                "component": [
                    {
                        "code": {"coding": [{
                            "system": "http://loinc.org",
                            "code": "8480-6",
                            "display": "Systolic blood pressure"
                        }]},
                        "valueQuantity": {
                            "unit": "mmHg",
                            "system": "http://unitsofmeasure.org",
                            "code": "mm[Hg]",
                            "value": 129
                        }
                    },
                    {
                        "code": {"coding": [{
                            "system": "http://loinc.org",
                            "code": "8462-4",
                            "display": "Diastolic blood pressure"
                        }]},
                        "valueQuantity": {
                            "unit": "mmHg",
                            "system": "http://unitsofmeasure.org",
                            "code": "mm[Hg]",
                            "value": 79
                        }
                    }
                ],
                "code": {"coding": [{
                    "system": "http://loinc.org",
                    "code": "85354-9",
                    "display": "Blood pressure panel"
                }]},
                "effectiveDateTime": "2026-12-31T10:05:00.000+00:00",
                "meta": {"profile": ["http://hl7.org/fhir/us/core/StructureDefinition/us-core-blood-pressure"]},
                "subject": {"reference": "Patient/28370af1-320f-4431-9862-f433e0522373"},
                "id": "84300a2a-e840-4e78-af7b-c4a02a8e193f",
                "category": [{
                    "coding": [{
                        "system": "http://terminology.hl7.org/CodeSystem/observation-category",
                        "code": "vital-signs",
                        "display": "Vital Signs"
                    }],
                    "text": "Vital Signs"
                }],
                "resourceType": "Observation",
                "status": "final"
            },
            "fullUrl": "https://madie.cms.gov/Observation/84300a2a-e840-4e78-af7b-c4a02a8e193f"
        },
        {
            "request": {
                "method": "PUT",
                "url": "ServiceRequest/d332c4ec-c616-48a2-bee7-90933ab13e50"
            },
            "resource": {
                "code": {"coding": [{
                    "system": "http://snomed.info/sct",
                    "code": "183624006",
                    "userSelected": true,
                    "display": "Follow-up 2-3 months (finding)"
                }]},
                "authoredOn": "2026-01-01T08:25:00.000+00:00",
                "meta": {"profile": ["http://hl7.org/fhir/us/qicore/StructureDefinition/qicore-servicerequest"]},
                "subject": {"reference": "Patient/28370af1-320f-4431-9862-f433e0522373"},
                "id": "d332c4ec-c616-48a2-bee7-90933ab13e50",
                "intent": "order",
                "resourceType": "ServiceRequest",
                "status": "active"
            },
            "fullUrl": "https://madie.cms.gov/ServiceRequest/d332c4ec-c616-48a2-bee7-90933ab13e50"
        },
        {
            "request": {
                "method": "PUT",
                "url": "ServiceRequest/b17dda44-5549-40fe-a96c-6dafb6dd2c90"
            },
            "resource": {
                "code": {"coding": [{
                    "system": "http://snomed.info/sct",
                    "code": "183625007",
                    "userSelected": true,
                    "display": "Follow-up 4-6 months (finding)"
                }]},
                "authoredOn": "2026-01-01T08:25:00.000+00:00",
                "meta": {"profile": ["http://hl7.org/fhir/us/qicore/StructureDefinition/qicore-servicerequest"]},
                "subject": {"reference": "Patient/28370af1-320f-4431-9862-f433e0522373"},
                "id": "b17dda44-5549-40fe-a96c-6dafb6dd2c90",
                "intent": "order",
                "resourceType": "ServiceRequest",
                "status": "active"
            },
            "fullUrl": "https://madie.cms.gov/ServiceRequest/b17dda44-5549-40fe-a96c-6dafb6dd2c90"
        },
        {
            "request": {
                "method": "PUT",
                "url": "ServiceRequest/85e69517-cde2-430f-a637-143d82121594"
            },
            "resource": {
                "code": {"coding": [{
                    "system": "http://snomed.info/sct",
                    "code": "313204009",
                    "userSelected": true,
                    "display": "Lifestyle education (procedure)",
                    "version": "2022-03"
                }]},
                "authoredOn": "2026-01-01T08:25:00.000+00:00",
                "meta": {"profile": ["http://hl7.org/fhir/us/qicore/StructureDefinition/qicore-servicerequest"]},
                "subject": {"reference": "Patient/28370af1-320f-4431-9862-f433e0522373"},
                "id": "85e69517-cde2-430f-a637-143d82121594",
                "intent": "order",
                "resourceType": "ServiceRequest",
                "status": "active"
            },
            "fullUrl": "https://madie.cms.gov/ServiceRequest/85e69517-cde2-430f-a637-143d82121594"
        },
        {
            "request": {
                "method": "PUT",
                "url": "Encounter/d56f0843-5c2d-4116-a53b-0e6b9e90da33"
            },
            "resource": {
                "period": {
                    "start": "2026-12-31T10:00:00.000+00:00",
                    "end": "2026-12-31T10:45:00.000+00:00"
                },
                "meta": {"profile": ["http://hl7.org/fhir/us/qicore/StructureDefinition/qicore-encounter"]},
                "subject": {"reference": "Patient/28370af1-320f-4431-9862-f433e0522373"},
                "id": "d56f0843-5c2d-4116-a53b-0e6b9e90da33",
                "type": [{"coding": [{
                    "system": "http://snomed.info/sct",
                    "code": "103705002",
                    "userSelected": true,
                    "display": "Patient status observation (procedure)",
                    "version": "2022-03"
                }]}],
                "class": {
                    "system": "http://terminology.hl7.org/CodeSystem/v3-ActCode",
                    "code": "AMB",
                    "display": "ambulatory"
                },
                "resourceType": "Encounter",
                "status": "finished"
            },
            "fullUrl": "https://madie.cms.gov/Encounter/d56f0843-5c2d-4116-a53b-0e6b9e90da33"
        },
        {
            "request": {
                "method": "PUT",
                "url": "Observation/8f25ca14-f627-43cc-943e-b26af35efe06"
            },
            "resource": {
                "component": [
                    {
                        "code": {"coding": [{
                            "system": "http://loinc.org",
                            "code": "8480-6",
                            "display": "Systolic blood pressure"
                        }]},
                        "valueQuantity": {
                            "unit": "mmHg",
                            "system": "http://unitsofmeasure.org",
                            "code": "mm[Hg]",
                            "value": 120
                        }
                    },
                    {
                        "code": {"coding": [{
                            "system": "http://loinc.org",
                            "code": "8462-4",
                            "display": "Diastolic blood pressure"
                        }]},
                        "valueQuantity": {
                            "unit": "mmHg",
                            "system": "http://unitsofmeasure.org",
                            "code": "mm[Hg]",
                            "value": 79
                        }
                    }
                ],
                "code": {"coding": [{
                    "system": "http://loinc.org",
                    "code": "85354-9",
                    "display": "Blood pressure panel"
                }]},
                "effectiveDateTime": "2026-01-01T08:05:00.000+00:00",
                "meta": {"profile": ["http://hl7.org/fhir/us/core/StructureDefinition/us-core-blood-pressure"]},
                "subject": {"reference": "Patient/28370af1-320f-4431-9862-f433e0522373"},
                "id": "8f25ca14-f627-43cc-943e-b26af35efe06",
                "category": [{
                    "coding": [{
                        "system": "http://terminology.hl7.org/CodeSystem/observation-category",
                        "code": "vital-signs",
                        "display": "Vital Signs"
                    }],
                    "text": "Vital Signs"
                }],
                "resourceType": "Observation",
                "status": "final"
            },
            "fullUrl": "https://madie.cms.gov/Observation/8f25ca14-f627-43cc-943e-b26af35efe06"
        },
        {
            "request": {
                "method": "PUT",
                "url": "ServiceRequest/3c41f401-3c44-4f43-beb5-7ad178e7dade"
            },
            "resource": {
                "code": {"coding": [{
                    "system": "http://snomed.info/sct",
                    "code": "134403003",
                    "userSelected": true,
                    "display": "Urgent referral (procedure)",
                    "version": "2022-03"
                }]},
                "authoredOn": "2026-12-31T10:25:00.000+00:00",
                "meta": {"profile": ["http://hl7.org/fhir/us/qicore/StructureDefinition/qicore-servicerequest"]},
                "subject": {"reference": "Patient/28370af1-320f-4431-9862-f433e0522373"},
                "id": "3c41f401-3c44-4f43-beb5-7ad178e7dade",
                "reasonCode": [{"coding": [{
                    "system": "http://hl7.org/fhir/sid/icd-10-cm",
                    "code": "R03.0",
                    "userSelected": true,
                    "display": "Elevated blood-pressure reading, without diagnosis of hypertension"
                }]}],
                "intent": "order",
                "resourceType": "ServiceRequest",
                "status": "active"
            },
            "fullUrl": "https://madie.cms.gov/ServiceRequest/3c41f401-3c44-4f43-beb5-7ad178e7dade"
        },
        {
            "request": {
                "method": "PUT",
                "url": "Coverage/e9a81e30-c19d-4419-9cf8-71ccc1901948"
            },
            "resource": {
                "payor": [{"reference": "Organization/da675b73-148d-4764-883d-92f1ece9bd0b"}],
                "beneficiary": {"reference": "Patient/28370af1-320f-4431-9862-f433e0522373"},
                "meta": {"profile": ["http://hl7.org/fhir/us/qicore/StructureDefinition/qicore-coverage"]},
                "id": "e9a81e30-c19d-4419-9cf8-71ccc1901948",
                "resourceType": "Coverage",
                "status": "active"
            },
            "fullUrl": "https://madie.cms.gov/Coverage/e9a81e30-c19d-4419-9cf8-71ccc1901948"
        },
        {
            "request": {
                "method": "PUT",
                "url": "Organization/da675b73-148d-4764-883d-92f1ece9bd0b"
            },
            "resource": {
                "identifier": [{
                    "system": "urn:oid:2.16.840.1.113883.4.4",
                    "use": "temp",
                    "value": "21-3259825"
                }],
                "address": [{
                    "country": "USA",
                    "city": "Dallas",
                    "use": "billing",
                    "line": ["P.O. Box 660044"],
                    "postalCode": "75266-0044",
                    "state": "TX",
                    "type": "postal"
                }],
                "meta": {"profile": ["http://hl7.org/fhir/us/qicore/StructureDefinition/qicore-organization"]},
                "name": "Blue Cross Blue Shield of Texas",
                "active": true,
                "telecom": [{
                    "system": "phone",
                    "value": "(+1) 972-766-6900"
                }],
                "id": "da675b73-148d-4764-883d-92f1ece9bd0b",
                "type": [{"coding": [{
                    "system": "http://terminology.hl7.org/CodeSystem/organization-type",
                    "code": "pay",
                    "display": "Payer"
                }]}],
                "resourceType": "Organization"
            },
            "fullUrl": "https://madie.cms.gov/Organization/da675b73-148d-4764-883d-92f1ece9bd0b"
        },
        {
            "request": {
                "method": "PUT",
                "url": "MeasureReport/31393367-61d9-42f3-a771-d677c744af41"
            },
            "resource": {
                "contained": [{
                    "parameter": [{
                        "valueString": "28370af1-320f-4431-9862-f433e0522373",
                        "name": "subject"
                    }],
                    "id": "d3860132-2847-45eb-b7d9-a26a4a1df786-parameters",
                    "resourceType": "Parameters"
                }],
                "extension": [
                    {
                        "valueReference": {"reference": "#d3860132-2847-45eb-b7d9-a26a4a1df786-parameters"},
                        "url": "http://hl7.org/fhir/StructureDefinition/cqf-inputParameters"
                    },
                    {
                        "valueMarkdown": "Age 18+, 1st enc 1/01 0800 - 0830,  BP 120/79, order for  f/u 2-3 mo, f/u 4-6 mo.  lifestyle.\n2nd Enc. 12/31 1000-1045, 129/79, urgent referral order, ",
                        "url": "http://hl7.org/fhir/us/cqfmeasures/StructureDefinition/cqfm-testCaseDescription"
                    }
                ],
                "period": {
                    "start": "2026-01-01",
                    "end": "2026-12-31"
                },
                "measure": "https://madie.cms.gov/Measure/CMS22FHIRPCSBPScreeningFollowUp",
                "meta": {"profile": ["http://hl7.org/fhir/us/cqfmeasures/StructureDefinition/test-case-cqfm"]},
                "modifierExtension": [{
                    "valueBoolean": true,
                    "url": "http://hl7.org/fhir/us/cqfmeasures/StructureDefinition/cqfm-isTestCase"
                }],
                "id": "31393367-61d9-42f3-a771-d677c744af41",
                "evaluatedResource": [
                    {"reference": "Patient/28370af1-320f-4431-9862-f433e0522373"},
                    {"reference": "Encounter/a313f8e0-95ba-4976-ae2d-f1bf6fdc244e"},
                    {"reference": "Observation/84300a2a-e840-4e78-af7b-c4a02a8e193f"},
                    {"reference": "ServiceRequest/d332c4ec-c616-48a2-bee7-90933ab13e50"},
                    {"reference": "ServiceRequest/b17dda44-5549-40fe-a96c-6dafb6dd2c90"},
                    {"reference": "ServiceRequest/85e69517-cde2-430f-a637-143d82121594"},
                    {"reference": "Encounter/d56f0843-5c2d-4116-a53b-0e6b9e90da33"},
                    {"reference": "Observation/8f25ca14-f627-43cc-943e-b26af35efe06"},
                    {"reference": "ServiceRequest/3c41f401-3c44-4f43-beb5-7ad178e7dade"},
                    {"reference": "Coverage/e9a81e30-c19d-4419-9cf8-71ccc1901948"},
                    {"reference": "Organization/da675b73-148d-4764-883d-92f1ece9bd0b"}
                ],
                "type": "individual",
                "resourceType": "MeasureReport",
                "status": "complete",
                "group": [{
                    "id": "Group_1",
                    "measureScore": {"value": 0},
                    "population": [
                        {
                            "code": {"coding": [{
                                "system": "http://terminology.hl7.org/CodeSystem/measure-population",
                                "code": "initial-population",
                                "display": "Initial Population"
                            }]},
                            "count": 2,
                            "id": "InitialPopulation_1"
                        },
                        {
                            "code": {"coding": [{
                                "system": "http://terminology.hl7.org/CodeSystem/measure-population",
                                "code": "denominator",
                                "display": "Denominator"
                            }]},
                            "count": 2,
                            "id": "Denominator_1"
                        },
                        {
                            "code": {"coding": [{
                                "system": "http://terminology.hl7.org/CodeSystem/measure-population",
                                "code": "denominator-exclusion",
                                "display": "Denominator Exclusion"
                            }]},
                            "count": 0,
                            "id": "DenominatorExclusion_1"
                        },
                        {
                            "code": {"coding": [{
                                "system": "http://terminology.hl7.org/CodeSystem/measure-population",
                                "code": "numerator",
                                "display": "Numerator"
                            }]},
                            "count": 2,
                            "id": "Numerator_1"
                        },
                        {
                            "code": {"coding": [{
                                "system": "http://terminology.hl7.org/CodeSystem/measure-population",
                                "code": "denominator-exception",
                                "display": "Denominator Exception"
                            }]},
                            "count": 0,
                            "id": "DenominatorException_1"
                        }
                    ]
                }]
            },
            "fullUrl": "https://madie.cms.gov/MeasureReport/31393367-61d9-42f3-a771-d677c744af41"
        }
    ],
    "id": "62cc2f5467cd2f796b838aaa",
    "type": "transaction",
    "resourceType": "Bundle"
}