{
  "resourceType": "Bundle",
  "id": "63530b4c224f3b053967124f",
  "type": "transaction",
  "entry": [ {
    "fullUrl": "https://madie.cms.gov/Patient/76aeb357-2421-49ed-af1b-6a8b772b676c",
    "resource": {
      "resourceType": "Patient",
      "id": "76aeb357-2421-49ed-af1b-6a8b772b676c",
      "meta": {
        "profile": [ "http://hl7.org/fhir/us/qicore/StructureDefinition/qicore-patient" ]
      },
      "extension": [ {
        "url": "http://hl7.org/fhir/us/core/StructureDefinition/us-core-race",
        "extension": [ {
          "url": "ombCategory",
          "valueCoding": {
            "system": "urn:oid:2.16.840.1.113883.6.238",
            "code": "1002-5",
            "display": "American Indian or Alaska Native",
            "userSelected": true
          }
        }, {
          "url": "text",
          "valueString": "American Indian or Alaska Native"
        } ]
      }, {
        "url": "http://hl7.org/fhir/us/core/StructureDefinition/us-core-ethnicity",
        "extension": [ {
          "url": "ombCategory",
          "valueCoding": {
            "system": "urn:oid:2.16.840.1.113883.6.238",
            "code": "2135-2",
            "display": "Hispanic or Latino",
            "userSelected": true
          }
        }, {
          "url": "text",
          "valueString": "Hispanic or Latino"
        } ]
      } ],
      "identifier": [ {
        "type": {
          "coding": [ {
            "system": "http://terminology.hl7.org/CodeSystem/v2-0203",
            "code": "MR"
          } ]
        },
        "system": "https://bonnie-fhir.healthit.gov/",
        "value": "63530b4c224f3b053967124f"
      } ],
      "name": [ {
        "family": "DENOMPass",
        "given": [ "LastAssPrfEDDRelvTm42WksB4DELRsltDtTime" ]
      } ],
      "gender": "female",
      "birthDate": "2001-02-01"
    },
    "request": {
      "method": "PUT",
      "url": "Patient/76aeb357-2421-49ed-af1b-6a8b772b676c"
    }
  }, {
    "fullUrl": "https://madie.cms.gov/Encounter/26f8835a-f666-4c2f-b0f1-6462b83b9b44",
    "resource": {
      "resourceType": "Encounter",
      "id": "26f8835a-f666-4c2f-b0f1-6462b83b9b44",
      "meta": {
        "profile": [ "http://hl7.org/fhir/us/qicore/StructureDefinition/qicore-encounter" ]
      },
      "status": "finished",
      "class": {
        "system": "http://terminology.hl7.org/CodeSystem/v3-ActCode",
        "code": "IMP",
        "display": "inpatient encounter"
      },
      "type": [ {
        "coding": [ {
          "system": "http://snomed.info/sct",
          "version": "2022-09",
          "code": "183452005",
          "display": "Emergency hospital admission (procedure)",
          "userSelected": true
        } ]
      } ],
      "subject": {
        "reference": "Patient/76aeb357-2421-49ed-af1b-6a8b772b676c"
      },
      "period": {
        "start": "2026-01-30T08:00:00Z",
        "end": "2026-02-05T08:15:00.000+00:00"
      }
    },
    "request": {
      "method": "PUT",
      "url": "Encounter/26f8835a-f666-4c2f-b0f1-6462b83b9b44"
    }
  }, {
    "fullUrl": "https://madie.cms.gov/Procedure/c16c840a-e9b7-4f6f-ad68-6865e25eac52",
    "resource": {
      "resourceType": "Procedure",
      "id": "c16c840a-e9b7-4f6f-ad68-6865e25eac52",
      "meta": {
        "profile": [ "http://hl7.org/fhir/us/qicore/StructureDefinition/qicore-procedure" ]
      },
      "extension": [ {
        "url": "http://hl7.org/fhir/us/qicore/StructureDefinition/qicore-recorded",
        "valueDateTime": "2014-04-05T13:35:00Z"
      } ],
      "status": "completed",
      "code": {
        "coding": [ {
          "system": "http://snomed.info/sct",
          "version": "2022-09",
          "code": "10745001",
          "display": "Delivery of transverse presentation (procedure)",
          "userSelected": true
        } ]
      },
      "subject": {
        "reference": "Patient/76aeb357-2421-49ed-af1b-6a8b772b676c"
      },
      "performedPeriod": {
        "start": "2026-02-01T08:00:00Z",
        "end": "2026-02-05T08:15:00.000+00:00"
      }
    },
    "request": {
      "method": "PUT",
      "url": "Procedure/c16c840a-e9b7-4f6f-ad68-6865e25eac52"
    }
  }, {
    "fullUrl": "https://madie.cms.gov/Observation/9d4dee98-5f75-4341-af4f-1789f144c317",
    "resource": {
      "resourceType": "Observation",
      "id": "9d4dee98-5f75-4341-af4f-1789f144c317",
      "meta": {
        "profile": [ "http://hl7.org/fhir/us/qicore/StructureDefinition/qicore-simple-observation" ]
      },
      "status": "final",
      "category": [ {
        "coding": [ {
          "system": "http://terminology.hl7.org/CodeSystem/observation-category",
          "code": "exam",
          "display": "exam",
          "userSelected": true
        } ]
      } ],
      "code": {
        "coding": [ {
          "system": "http://loinc.org",
          "code": "93857-1",
          "display": "Date and time of obstetric delivery",
          "userSelected": true
        } ]
      },
      "subject": {
        "reference": "Patient/76aeb357-2421-49ed-af1b-6a8b772b676c"
      },
      "effectiveDateTime": "2026-02-01T08:00:00Z",
      "performer": [ {
        "reference": "Organization/example1",
        "display": "Hendricks Country Hospital"
      } ],
      "valueDateTime": "2026-02-01T08:00:00.000+00:00"
    },
    "request": {
      "method": "PUT",
      "url": "Observation/9d4dee98-5f75-4341-af4f-1789f144c317"
    }
  }, {
    "fullUrl": "https://madie.cms.gov/Observation/e7922ea9-8ee3-4aa9-8077-9de84b0c34aa",
    "resource": {
      "resourceType": "Observation",
      "id": "e7922ea9-8ee3-4aa9-8077-9de84b0c34aa",
      "meta": {
        "profile": [ "http://hl7.org/fhir/us/qicore/StructureDefinition/qicore-simple-observation" ]
      },
      "status": "final",
      "category": [ {
        "coding": [ {
          "system": "http://terminology.hl7.org/CodeSystem/observation-category",
          "code": "exam",
          "display": "exam",
          "userSelected": true
        } ]
      } ],
      "code": {
        "coding": [ {
          "system": "http://loinc.org",
          "code": "11778-8",
          "display": "Delivery date Estimated",
          "userSelected": true
        } ]
      },
      "subject": {
        "reference": "Patient/76aeb357-2421-49ed-af1b-6a8b772b676c"
      },
      "effectiveDateTime": "2025-04-13T08:00:00Z",
      "performer": [ {
        "reference": "Organization/example1",
        "display": "Hendricks Country Hospital"
      } ],
      "valueDateTime": "2026-02-01T08:00:00.000+00:00"
    },
    "request": {
      "method": "PUT",
      "url": "Observation/e7922ea9-8ee3-4aa9-8077-9de84b0c34aa"
    }
  }, {
    "fullUrl": "https://madie.cms.gov/Coverage/c732c39a-e36b-4ac8-990c-8cbc4bc699ca",
    "resource": {
      "resourceType": "Coverage",
      "id": "c732c39a-e36b-4ac8-990c-8cbc4bc699ca",
      "meta": {
        "profile": [ "http://hl7.org/fhir/us/qicore/StructureDefinition/qicore-coverage" ]
      },
      "status": "active",
      "subscriberId": "523435",
      "beneficiary": {
        "reference": "Patient/76aeb357-2421-49ed-af1b-6a8b772b676c"
      },
      "relationship": {
        "coding": [ {
          "system": "http://terminology.hl7.org/CodeSystem/subscriber-relationship",
          "code": "self"
        } ]
      },
      "payor": [ {
        "reference": "Organization/3fc8ea44-7818-41ac-a499-6e8fa68b63b3"
      } ]
    },
    "request": {
      "method": "PUT",
      "url": "Coverage/c732c39a-e36b-4ac8-990c-8cbc4bc699ca"
    }
  }, {
    "fullUrl": "https://madie.cms.gov/Organization/3fc8ea44-7818-41ac-a499-6e8fa68b63b3",
    "resource": {
      "resourceType": "Organization",
      "id": "3fc8ea44-7818-41ac-a499-6e8fa68b63b3",
      "meta": {
        "profile": [ "http://hl7.org/fhir/us/qicore/StructureDefinition/qicore-organization" ]
      },
      "identifier": [ {
        "use": "temp",
        "system": "urn:oid:2.16.840.1.113883.4.4",
        "value": "21-3259825"
      } ],
      "active": true,
      "type": [ {
        "coding": [ {
          "system": "http://terminology.hl7.org/CodeSystem/organization-type",
          "code": "pay",
          "display": "Payer"
        } ]
      } ],
      "name": "Blue Cross Blue Shield of Texas",
      "telecom": [ {
        "system": "phone",
        "value": "(+1) 972-766-6900"
      } ],
      "address": [ {
        "use": "billing",
        "type": "postal",
        "line": [ "P.O. Box 660044" ],
        "city": "Dallas",
        "state": "TX",
        "postalCode": "75266-0044",
        "country": "USA"
      } ]
    },
    "request": {
      "method": "PUT",
      "url": "Organization/3fc8ea44-7818-41ac-a499-6e8fa68b63b3"
    }
  }, {
    "fullUrl": "https://madie.cms.gov/Practitioner/237a21e4-bbe3-46ee-944c-8f325b9a0303",
    "resource": {
      "resourceType": "Practitioner",
      "id": "237a21e4-bbe3-46ee-944c-8f325b9a0303",
      "meta": {
        "profile": [ "http://hl7.org/fhir/us/qicore/StructureDefinition/qicore-practitioner" ]
      },
      "identifier": [ {
        "system": "http://hl7.org/fhir/sid/us-npi",
        "value": "1234567890"
      } ],
      "name": [ {
        "family": "Evil",
        "prefix": [ "Dr" ]
      } ]
    },
    "request": {
      "method": "PUT",
      "url": "Practitioner/237a21e4-bbe3-46ee-944c-8f325b9a0303"
    }
  }, {
    "fullUrl": "https://madie.cms.gov/MeasureReport/6c4b867a-af42-4fa4-acbc-bd73a46f3ffe",
    "resource": {
      "resourceType": "MeasureReport",
      "id": "6c4b867a-af42-4fa4-acbc-bd73a46f3ffe",
      "meta": {
        "profile": [ "http://hl7.org/fhir/us/cqfmeasures/StructureDefinition/test-case-cqfm" ]
      },
      "contained": [ {
        "resourceType": "Parameters",
        "id": "2a0c044a-d6ec-4ded-8cf6-e41cda3da6da-parameters",
        "parameter": [ {
          "name": "subject",
          "valueString": "76aeb357-2421-49ed-af1b-6a8b772b676c"
        } ]
      } ],
      "extension": [ {
        "url": "http://hl7.org/fhir/StructureDefinition/cqf-inputParameters",
        "valueReference": {
          "reference": "#2a0c044a-d6ec-4ded-8cf6-e41cda3da6da-parameters"
        }
      }, {
        "url": "http://hl7.org/fhir/us/cqfmeasures/StructureDefinition/cqfm-testCaseDescription",
        "valueMarkdown": "Last assessment Performed, Estimated Delivery Date, Relevant time, 42 weeks before Delivery Result Date/Time\n"
      } ],
      "modifierExtension": [ {
        "url": "http://hl7.org/fhir/us/cqfmeasures/StructureDefinition/cqfm-isTestCase",
        "valueBoolean": true
      } ],
      "status": "complete",
      "type": "individual",
      "measure": "https://madie.cms.gov/Measure/CMS1028FHIRPCSevereOBComps",
      "period": {
        "start": "2026-01-01",
        "end": "2026-12-31"
      },
      "group": [ {
        "id": "Group_1",
        "population": [ {
          "id": "InitialPopulation_1",
          "code": {
            "coding": [ {
              "system": "http://terminology.hl7.org/CodeSystem/measure-population",
              "code": "initial-population",
              "display": "Initial Population"
            } ]
          },
          "count": 1
        }, {
          "id": "Denominator_1",
          "code": {
            "coding": [ {
              "system": "http://terminology.hl7.org/CodeSystem/measure-population",
              "code": "denominator",
              "display": "Denominator"
            } ]
          },
          "count": 1
        }, {
          "id": "Numerator_1",
          "code": {
            "coding": [ {
              "system": "http://terminology.hl7.org/CodeSystem/measure-population",
              "code": "numerator",
              "display": "Numerator"
            } ]
          },
          "count": 0
        }, {
          "id": "NumeratorExclusion_1",
          "code": {
            "coding": [ {
              "system": "http://terminology.hl7.org/CodeSystem/measure-population",
              "code": "numerator-exclusion",
              "display": "Numerator Exclusion"
            } ]
          },
          "count": 0
        } ],
        "measureScore": {
          "value": 0.0
        }
      }, {
        "id": "Group_2",
        "population": [ {
          "id": "InitialPopulation_2",
          "code": {
            "coding": [ {
              "system": "http://terminology.hl7.org/CodeSystem/measure-population",
              "code": "initial-population",
              "display": "Initial Population"
            } ]
          },
          "count": 1
        }, {
          "id": "Denominator_2",
          "code": {
            "coding": [ {
              "system": "http://terminology.hl7.org/CodeSystem/measure-population",
              "code": "denominator",
              "display": "Denominator"
            } ]
          },
          "count": 1
        }, {
          "id": "Numerator_2",
          "code": {
            "coding": [ {
              "system": "http://terminology.hl7.org/CodeSystem/measure-population",
              "code": "numerator",
              "display": "Numerator"
            } ]
          },
          "count": 0
        }, {
          "id": "NumeratorExclusion_2",
          "code": {
            "coding": [ {
              "system": "http://terminology.hl7.org/CodeSystem/measure-population",
              "code": "numerator-exclusion",
              "display": "Numerator Exclusion"
            } ]
          },
          "count": 0
        } ],
        "measureScore": {
          "value": 0.0
        }
      } ],
      "evaluatedResource": [ {
        "reference": "Patient/76aeb357-2421-49ed-af1b-6a8b772b676c"
      }, {
        "reference": "Encounter/26f8835a-f666-4c2f-b0f1-6462b83b9b44"
      }, {
        "reference": "Procedure/c16c840a-e9b7-4f6f-ad68-6865e25eac52"
      }, {
        "reference": "Observation/9d4dee98-5f75-4341-af4f-1789f144c317"
      }, {
        "reference": "Observation/e7922ea9-8ee3-4aa9-8077-9de84b0c34aa"
      }, {
        "reference": "Coverage/c732c39a-e36b-4ac8-990c-8cbc4bc699ca"
      }, {
        "reference": "Organization/3fc8ea44-7818-41ac-a499-6e8fa68b63b3"
      }, {
        "reference": "Practitioner/237a21e4-bbe3-46ee-944c-8f325b9a0303"
      } ]
    },
    "request": {
      "method": "PUT",
      "url": "MeasureReport/6c4b867a-af42-4fa4-acbc-bd73a46f3ffe"
    }
  } ]
}