{
    "entry": [
        {
            "request": {
                "method": "PUT",
                "url": "Patient/095ef9fa-0b0e-477f-9fd3-364ccfb9ee34"
            },
            "resource": {
                "identifier": [{
                    "system": "https://bonnie-fhir.healthit.gov/",
                    "type": {"coding": [{
                        "system": "http://terminology.hl7.org/CodeSystem/v2-0203",
                        "code": "MR"
                    }]},
                    "value": "62cddc0a62b2323a168e9764"
                }],
                "extension": [
                    {
                        "extension": [
                            {
                                "valueCoding": {
                                    "system": "urn:oid:2.16.840.1.113883.6.238",
                                    "code": "1002-5",
                                    "userSelected": true,
                                    "display": "American Indian or Alaska Native"
                                },
                                "url": "ombCategory"
                            },
                            {
                                "valueString": "American Indian or Alaska Native",
                                "url": "text"
                            }
                        ],
                        "url": "http://hl7.org/fhir/us/core/StructureDefinition/us-core-race"
                    },
                    {
                        "extension": [
                            {
                                "valueCoding": {
                                    "system": "urn:oid:2.16.840.1.113883.6.238",
                                    "code": "2135-2",
                                    "userSelected": true,
                                    "display": "Hispanic or Latino"
                                },
                                "url": "ombCategory"
                            },
                            {
                                "valueString": "Hispanic or Latino",
                                "url": "text"
                            }
                        ],
                        "url": "http://hl7.org/fhir/us/core/StructureDefinition/us-core-ethnicity"
                    }
                ],
                "gender": "male",
                "meta": {"profile": ["http://hl7.org/fhir/us/qicore/StructureDefinition/qicore-patient"]},
                "name": [{
                    "given": ["SecondReadingOver130"],
                    "family": "NUMERPass"
                }],
                "id": "095ef9fa-0b0e-477f-9fd3-364ccfb9ee34",
                "birthDate": "1976-12-31",
                "resourceType": "Patient"
            },
            "fullUrl": "https://madie.cms.gov/Patient/095ef9fa-0b0e-477f-9fd3-364ccfb9ee34"
        },
        {
            "request": {
                "method": "PUT",
                "url": "Encounter/e25bedb5-fae5-4c5e-ab82-e4b4cd505773"
            },
            "resource": {
                "period": {
                    "start": "2026-01-01T08:00:00.000+00:00",
                    "end": "2026-01-01T08:45:00.000+00:00"
                },
                "meta": {"profile": ["http://hl7.org/fhir/us/qicore/StructureDefinition/qicore-encounter"]},
                "subject": {"reference": "Patient/095ef9fa-0b0e-477f-9fd3-364ccfb9ee34"},
                "id": "e25bedb5-fae5-4c5e-ab82-e4b4cd505773",
                "type": [{"coding": [{
                    "system": "http://snomed.info/sct",
                    "code": "103705002",
                    "userSelected": true,
                    "display": "Patient status observation (procedure)",
                    "version": "2022-03"
                }]}],
                "class": {
                    "system": "http://terminology.hl7.org/CodeSystem/v3-ActCode",
                    "code": "AMB",
                    "display": "ambulatory"
                },
                "resourceType": "Encounter",
                "status": "finished"
            },
            "fullUrl": "https://madie.cms.gov/Encounter/e25bedb5-fae5-4c5e-ab82-e4b4cd505773"
        },
        {
            "request": {
                "method": "PUT",
                "url": "ServiceRequest/257b746b-f6af-4c72-8845-a7aadb042322"
            },
            "resource": {
                "code": {"coding": [{
                    "system": "http://snomed.info/sct",
                    "code": "183617005",
                    "userSelected": true,
                    "display": "Follow-up 1 day (finding)",
                    "version": "2022-03"
                }]},
                "authoredOn": "2026-01-01T08:30:00.000+00:00",
                "meta": {"profile": ["http://hl7.org/fhir/us/qicore/StructureDefinition/qicore-servicerequest"]},
                "subject": {"reference": "Patient/095ef9fa-0b0e-477f-9fd3-364ccfb9ee34"},
                "id": "257b746b-f6af-4c72-8845-a7aadb042322",
                "intent": "order",
                "resourceType": "ServiceRequest",
                "status": "active"
            },
            "fullUrl": "https://madie.cms.gov/ServiceRequest/257b746b-f6af-4c72-8845-a7aadb042322"
        },
        {
            "request": {
                "method": "PUT",
                "url": "Encounter/7267c8de-484d-4eff-a1a8-476705654f46"
            },
            "resource": {
                "period": {
                    "start": "2026-12-31T10:00:00.000+00:00",
                    "end": "2026-12-31T10:30:00.000+00:00"
                },
                "meta": {"profile": ["http://hl7.org/fhir/us/qicore/StructureDefinition/qicore-encounter"]},
                "subject": {"reference": "Patient/095ef9fa-0b0e-477f-9fd3-364ccfb9ee34"},
                "id": "7267c8de-484d-4eff-a1a8-476705654f46",
                "type": [{"coding": [{
                    "system": "http://snomed.info/sct",
                    "code": "103705002",
                    "userSelected": true,
                    "display": "Patient status observation (procedure)",
                    "version": "2022-03"
                }]}],
                "class": {
                    "system": "http://terminology.hl7.org/CodeSystem/v3-ActCode",
                    "code": "AMB",
                    "display": "ambulatory"
                },
                "resourceType": "Encounter",
                "status": "finished"
            },
            "fullUrl": "https://madie.cms.gov/Encounter/7267c8de-484d-4eff-a1a8-476705654f46"
        },
        {
            "request": {
                "method": "PUT",
                "url": "ServiceRequest/52da13c4-4967-4bbc-8f76-7ab4fde9f3a7"
            },
            "resource": {
                "code": {"coding": [{
                    "system": "http://snomed.info/sct",
                    "code": "183624006",
                    "userSelected": true,
                    "display": "Follow-up 2-3 months (finding)",
                    "version": "2022-03"
                }]},
                "authoredOn": "2026-12-31T10:10:00.000+00:00",
                "meta": {"profile": ["http://hl7.org/fhir/us/qicore/StructureDefinition/qicore-servicerequest"]},
                "subject": {"reference": "Patient/095ef9fa-0b0e-477f-9fd3-364ccfb9ee34"},
                "id": "52da13c4-4967-4bbc-8f76-7ab4fde9f3a7",
                "intent": "order",
                "resourceType": "ServiceRequest",
                "status": "active"
            },
            "fullUrl": "https://madie.cms.gov/ServiceRequest/52da13c4-4967-4bbc-8f76-7ab4fde9f3a7"
        },
        {
            "request": {
                "method": "PUT",
                "url": "ServiceRequest/28a113a5-08ad-4b44-8d34-f60090d6414c"
            },
            "resource": {
                "code": {"coding": [{
                    "system": "http://snomed.info/sct",
                    "code": "20093000",
                    "userSelected": true,
                    "display": "Alcohol rehabilitation and detoxification (regime/therapy)",
                    "version": "2022-03"
                }]},
                "authoredOn": "2026-01-01T08:30:00.000+00:00",
                "meta": {"profile": ["http://hl7.org/fhir/us/qicore/StructureDefinition/qicore-servicerequest"]},
                "subject": {"reference": "Patient/095ef9fa-0b0e-477f-9fd3-364ccfb9ee34"},
                "id": "28a113a5-08ad-4b44-8d34-f60090d6414c",
                "intent": "order",
                "resourceType": "ServiceRequest",
                "status": "active"
            },
            "fullUrl": "https://madie.cms.gov/ServiceRequest/28a113a5-08ad-4b44-8d34-f60090d6414c"
        },
        {
            "request": {
                "method": "PUT",
                "url": "ServiceRequest/0fdc59e2-820b-455b-8625-04be06bcfe02"
            },
            "resource": {
                "code": {"coding": [{
                    "system": "http://loinc.org",
                    "code": "34534-8",
                    "userSelected": true,
                    "display": "EKG 12 channel panel"
                }]},
                "authoredOn": "2026-12-31T10:10:00.000+00:00",
                "meta": {"profile": ["http://hl7.org/fhir/us/qicore/StructureDefinition/qicore-servicerequest"]},
                "subject": {"reference": "Patient/095ef9fa-0b0e-477f-9fd3-364ccfb9ee34"},
                "id": "0fdc59e2-820b-455b-8625-04be06bcfe02",
                "intent": "order",
                "resourceType": "ServiceRequest",
                "status": "active"
            },
            "fullUrl": "https://madie.cms.gov/ServiceRequest/0fdc59e2-820b-455b-8625-04be06bcfe02"
        },
        {
            "request": {
                "method": "PUT",
                "url": "ServiceRequest/0fdc59e2-820b-455b-8625-04be06bcfe02"
            },
            "resource": {
                "code": {"coding": [{
                    "system": "http://loinc.org",
                    "code": "11524-6",
                    "userSelected": true,
                    "display": "EKG study"
                }]},
                "authoredOn": "2026-12-31T10:10:00.000+00:00",
                "meta": {"profile": ["http://hl7.org/fhir/us/qicore/StructureDefinition/qicore-servicerequest"]},
                "subject": {"reference": "Patient/095ef9fa-0b0e-477f-9fd3-364ccfb9ee34"},
                "id": "0fdc59e2-820b-455b-8625-04be06bcfe02",
                "intent": "order",
                "resourceType": "ServiceRequest",
                "status": "active"
            },
            "fullUrl": "https://madie.cms.gov/ServiceRequest/0fdc59e2-820b-455b-8625-04be06bcfe02"
        },
        {
            "request": {
                "method": "PUT",
                "url": "ServiceRequest/ed242075-5c2b-4364-b652-98a9c3f311cd"
            },
            "resource": {
                "code": {"coding": [{
                    "system": "http://snomed.info/sct",
                    "code": "313204009",
                    "userSelected": true,
                    "display": "Lifestyle education (procedure)",
                    "version": "2022-03"
                }]},
                "authoredOn": "2026-12-31T10:10:00.000+00:00",
                "meta": {"profile": ["http://hl7.org/fhir/us/qicore/StructureDefinition/qicore-servicerequest"]},
                "subject": {"reference": "Patient/095ef9fa-0b0e-477f-9fd3-364ccfb9ee34"},
                "id": "ed242075-5c2b-4364-b652-98a9c3f311cd",
                "intent": "order",
                "resourceType": "ServiceRequest",
                "status": "active"
            },
            "fullUrl": "https://madie.cms.gov/ServiceRequest/ed242075-5c2b-4364-b652-98a9c3f311cd"
        },
        {
            "request": {
                "method": "PUT",
                "url": "MedicationRequest/869750f4-c512-4427-b6fb-fb488ba6571b"
            },
            "resource": {
                "requester": {
                    "reference": "Practitioner/f007",
                    "display": "Patrick Pump"
                },
                "authoredOn": "2026-12-31T10:10:00.000+00:00",
                "meta": {"profile": ["http://hl7.org/fhir/us/qicore/StructureDefinition/qicore-medicationrequest"]},
                "subject": {"reference": "Patient/095ef9fa-0b0e-477f-9fd3-364ccfb9ee34"},
                "id": "869750f4-c512-4427-b6fb-fb488ba6571b",
                "medicationCodeableConcept": {"coding": [{
                    "system": "http://www.nlm.nih.gov/research/umls/rxnorm",
                    "code": "1000001",
                    "userSelected": true,
                    "display": "amlodipine 5 MG / hydrochlorothiazide 25 MG / olmesartan medoxomil 40 MG Oral Tablet"
                }]},
                "intent": "order",
                "resourceType": "MedicationRequest",
                "status": "active"
            },
            "fullUrl": "https://madie.cms.gov/MedicationRequest/869750f4-c512-4427-b6fb-fb488ba6571b"
        },
        {
            "request": {
                "method": "PUT",
                "url": "Observation/eee63cc6-a22d-4ec9-97a9-1873295dbdb7"
            },
            "resource": {
                "component": [
                    {
                        "code": {"coding": [{
                            "system": "http://loinc.org",
                            "code": "8480-6",
                            "display": "Systolic blood pressure"
                        }]},
                        "valueQuantity": {
                            "unit": "mmHg",
                            "system": "http://unitsofmeasure.org",
                            "code": "mm[Hg]",
                            "value": 130
                        }
                    },
                    {
                        "code": {"coding": [{
                            "system": "http://loinc.org",
                            "code": "8462-4",
                            "display": "Diastolic blood pressure"
                        }]},
                        "valueQuantity": {
                            "unit": "mmHg",
                            "system": "http://unitsofmeasure.org",
                            "code": "mm[Hg]",
                            "value": 80
                        }
                    }
                ],
                "code": {"coding": [{
                    "system": "http://loinc.org",
                    "code": "85354-9",
                    "display": "Blood pressure panel"
                }]},
                "effectiveDateTime": "2026-01-01T08:05:00.000+00:00",
                "meta": {"profile": ["http://hl7.org/fhir/us/core/StructureDefinition/us-core-blood-pressure"]},
                "subject": {"reference": "Patient/095ef9fa-0b0e-477f-9fd3-364ccfb9ee34"},
                "id": "eee63cc6-a22d-4ec9-97a9-1873295dbdb7",
                "category": [{
                    "coding": [{
                        "system": "http://terminology.hl7.org/CodeSystem/observation-category",
                        "code": "vital-signs",
                        "display": "Vital Signs"
                    }],
                    "text": "Vital Signs"
                }],
                "resourceType": "Observation",
                "status": "corrected"
            },
            "fullUrl": "https://madie.cms.gov/Observation/eee63cc6-a22d-4ec9-97a9-1873295dbdb7"
        },
        {
            "request": {
                "method": "PUT",
                "url": "Observation/74df44b9-6fd2-4530-8005-4a0f6e779638"
            },
            "resource": {
                "component": [
                    {
                        "code": {"coding": [{
                            "system": "http://loinc.org",
                            "code": "8480-6",
                            "display": "Systolic blood pressure"
                        }]},
                        "valueQuantity": {
                            "unit": "mmHg",
                            "system": "http://unitsofmeasure.org",
                            "code": "mm[Hg]",
                            "value": 131
                        }
                    },
                    {
                        "code": {"coding": [{
                            "system": "http://loinc.org",
                            "code": "8462-4",
                            "display": "Diastolic blood pressure"
                        }]},
                        "valueQuantity": {
                            "unit": "mmHg",
                            "system": "http://unitsofmeasure.org",
                            "code": "mm[Hg]",
                            "value": 80
                        }
                    }
                ],
                "code": {"coding": [{
                    "system": "http://loinc.org",
                    "code": "85354-9",
                    "display": "Blood pressure panel"
                }]},
                "effectiveDateTime": "2026-12-31T10:05:00.000+00:00",
                "meta": {"profile": ["http://hl7.org/fhir/us/core/StructureDefinition/us-core-blood-pressure"]},
                "subject": {"reference": "Patient/095ef9fa-0b0e-477f-9fd3-364ccfb9ee34"},
                "id": "74df44b9-6fd2-4530-8005-4a0f6e779638",
                "category": [{
                    "coding": [{
                        "system": "http://terminology.hl7.org/CodeSystem/observation-category",
                        "code": "vital-signs",
                        "display": "Vital Signs"
                    }],
                    "text": "Vital Signs"
                }],
                "resourceType": "Observation",
                "status": "final"
            },
            "fullUrl": "https://madie.cms.gov/Observation/74df44b9-6fd2-4530-8005-4a0f6e779638"
        },
        {
            "request": {
                "method": "PUT",
                "url": "Coverage/1669bf70-d562-4cbb-b49d-d71a945b879b"
            },
            "resource": {
                "payor": [{"reference": "Organization/98324a8d-13a3-4d25-b887-5765ad08b662"}],
                "beneficiary": {"reference": "Patient/095ef9fa-0b0e-477f-9fd3-364ccfb9ee34"},
                "meta": {"profile": ["http://hl7.org/fhir/us/qicore/StructureDefinition/qicore-coverage"]},
                "id": "1669bf70-d562-4cbb-b49d-d71a945b879b",
                "resourceType": "Coverage",
                "status": "active"
            },
            "fullUrl": "https://madie.cms.gov/Coverage/1669bf70-d562-4cbb-b49d-d71a945b879b"
        },
        {
            "request": {
                "method": "PUT",
                "url": "Organization/98324a8d-13a3-4d25-b887-5765ad08b662"
            },
            "resource": {
                "identifier": [{
                    "system": "urn:oid:2.16.840.1.113883.4.4",
                    "use": "temp",
                    "value": "21-3259825"
                }],
                "address": [{
                    "country": "USA",
                    "city": "Dallas",
                    "use": "billing",
                    "line": ["P.O. Box 660044"],
                    "postalCode": "75266-0044",
                    "state": "TX",
                    "type": "postal"
                }],
                "meta": {"profile": ["http://hl7.org/fhir/us/qicore/StructureDefinition/qicore-organization"]},
                "name": "Blue Cross Blue Shield of Texas",
                "active": true,
                "telecom": [{
                    "system": "phone",
                    "value": "(+1) 972-766-6900"
                }],
                "id": "98324a8d-13a3-4d25-b887-5765ad08b662",
                "type": [{"coding": [{
                    "system": "http://terminology.hl7.org/CodeSystem/organization-type",
                    "code": "pay",
                    "display": "Payer"
                }]}],
                "resourceType": "Organization"
            },
            "fullUrl": "https://madie.cms.gov/Organization/98324a8d-13a3-4d25-b887-5765ad08b662"
        },
        {
            "request": {
                "method": "PUT",
                "url": "MeasureReport/9ceff460-5bb5-4043-921c-5d5e5c67564f"
            },
            "resource": {
                "contained": [{
                    "parameter": [{
                        "valueString": "095ef9fa-0b0e-477f-9fd3-364ccfb9ee34",
                        "name": "subject"
                    }],
                    "id": "580d0b5d-3181-42ac-a572-63b49de86b12-parameters",
                    "resourceType": "Parameters"
                }],
                "extension": [
                    {
                        "valueReference": {"reference": "#580d0b5d-3181-42ac-a572-63b49de86b12-parameters"},
                        "url": "http://hl7.org/fhir/StructureDefinition/cqf-inputParameters"
                    },
                    {
                        "valueMarkdown": "Age 18+, encounter 01/01 0800 - 0845 during MP, second BP reading 130/80 with detox order, f/u in 1 day.\n2nd enc. 12/31 1000-1045, BP 131/80, EKG, lifestyle education, medication, f/u 1 day",
                        "url": "http://hl7.org/fhir/us/cqfmeasures/StructureDefinition/cqfm-testCaseDescription"
                    }
                ],
                "period": {
                    "start": "2026-01-01",
                    "end": "2026-12-31"
                },
                "measure": "https://madie.cms.gov/Measure/CMS22FHIRPCSBPScreeningFollowUp",
                "meta": {"profile": ["http://hl7.org/fhir/us/cqfmeasures/StructureDefinition/test-case-cqfm"]},
                "modifierExtension": [{
                    "valueBoolean": true,
                    "url": "http://hl7.org/fhir/us/cqfmeasures/StructureDefinition/cqfm-isTestCase"
                }],
                "id": "9ceff460-5bb5-4043-921c-5d5e5c67564f",
                "evaluatedResource": [
                    {"reference": "Patient/095ef9fa-0b0e-477f-9fd3-364ccfb9ee34"},
                    {"reference": "Encounter/e25bedb5-fae5-4c5e-ab82-e4b4cd505773"},
                    {"reference": "ServiceRequest/257b746b-f6af-4c72-8845-a7aadb042322"},
                    {"reference": "Encounter/7267c8de-484d-4eff-a1a8-476705654f46"},
                    {"reference": "ServiceRequest/52da13c4-4967-4bbc-8f76-7ab4fde9f3a7"},
                    {"reference": "ServiceRequest/28a113a5-08ad-4b44-8d34-f60090d6414c"},
                    {"reference": "ServiceRequest/0fdc59e2-820b-455b-8625-04be06bcfe02"},
                    {"reference": "ServiceRequest/0fdc59e2-820b-455b-8625-04be06bcfe02"},
                    {"reference": "ServiceRequest/ed242075-5c2b-4364-b652-98a9c3f311cd"},
                    {"reference": "MedicationRequest/869750f4-c512-4427-b6fb-fb488ba6571b"},
                    {"reference": "Observation/eee63cc6-a22d-4ec9-97a9-1873295dbdb7"},
                    {"reference": "Observation/74df44b9-6fd2-4530-8005-4a0f6e779638"},
                    {"reference": "Coverage/1669bf70-d562-4cbb-b49d-d71a945b879b"},
                    {"reference": "Organization/98324a8d-13a3-4d25-b887-5765ad08b662"}
                ],
                "type": "individual",
                "resourceType": "MeasureReport",
                "status": "complete",
                "group": [{
                    "id": "Group_1",
                    "measureScore": {"value": 0},
                    "population": [
                        {
                            "code": {"coding": [{
                                "system": "http://terminology.hl7.org/CodeSystem/measure-population",
                                "code": "initial-population",
                                "display": "Initial Population"
                            }]},
                            "count": 2,
                            "id": "InitialPopulation_1"
                        },
                        {
                            "code": {"coding": [{
                                "system": "http://terminology.hl7.org/CodeSystem/measure-population",
                                "code": "denominator",
                                "display": "Denominator"
                            }]},
                            "count": 2,
                            "id": "Denominator_1"
                        },
                        {
                            "code": {"coding": [{
                                "system": "http://terminology.hl7.org/CodeSystem/measure-population",
                                "code": "denominator-exclusion",
                                "display": "Denominator Exclusion"
                            }]},
                            "count": 0,
                            "id": "DenominatorExclusion_1"
                        },
                        {
                            "code": {"coding": [{
                                "system": "http://terminology.hl7.org/CodeSystem/measure-population",
                                "code": "numerator",
                                "display": "Numerator"
                            }]},
                            "count": 2,
                            "id": "Numerator_1"
                        },
                        {
                            "code": {"coding": [{
                                "system": "http://terminology.hl7.org/CodeSystem/measure-population",
                                "code": "denominator-exception",
                                "display": "Denominator Exception"
                            }]},
                            "count": 0,
                            "id": "DenominatorException_1"
                        }
                    ]
                }]
            },
            "fullUrl": "https://madie.cms.gov/MeasureReport/9ceff460-5bb5-4043-921c-5d5e5c67564f"
        }
    ],
    "id": "62cddc0a62b2323a168e9764",
    "type": "transaction",
    "resourceType": "Bundle"
}