{
  "resourceType": "Bundle",
  "id": "612e6f8d02c62a011f2f23f7",
  "type": "transaction",
  "entry": [ {
    "fullUrl": "https://madie.cms.gov/Patient/1a51a056-fa89-4986-8580-f727a402a441",
    "resource": {
      "resourceType": "Patient",
      "id": "1a51a056-fa89-4986-8580-f727a402a441",
      "meta": {
        "profile": [ "http://hl7.org/fhir/us/qicore/StructureDefinition/qicore-patient" ]
      },
      "text": {
        "status": "generated",
        "div": "<div xmlns=\"http://www.w3.org/1999/xhtml\"><div class=\"hapiHeaderText\">CMPerfRvltPerStartNULLEndsDayOfICU <b>DENEXFAIL </b></div><table class=\"hapiPropertyTable\"><tbody><tr><td>Identifier</td><td>2a65a26f9f7578ed1148174b365eff5a</td></tr><tr><td>Date of birth</td><td><span>03 March 1974</span></td></tr></tbody></table></div>"
      },
      "extension": [ {
        "url": "http://hl7.org/fhir/us/core/StructureDefinition/us-core-race",
        "extension": [ {
          "url": "ombCategory",
          "valueCoding": {
            "system": "urn:oid:2.16.840.1.113883.6.238",
            "code": "1002-5",
            "display": "American Indian or Alaska Native",
            "userSelected": true
          }
        }, {
          "url": "text",
          "valueString": "American Indian or Alaska Native"
        } ]
      }, {
        "url": "http://hl7.org/fhir/us/core/StructureDefinition/us-core-ethnicity",
        "extension": [ {
          "url": "ombCategory",
          "valueCoding": {
            "system": "urn:oid:2.16.840.1.113883.6.238",
            "code": "2135-2",
            "display": "Hispanic or Latino",
            "userSelected": true
          }
        }, {
          "url": "text",
          "valueString": "Hispanic or Latino"
        } ]
      } ],
      "identifier": [ {
        "type": {
          "coding": [ {
            "system": "http://terminology.hl7.org/CodeSystem/v2-0203",
            "code": "MR"
          } ]
        },
        "system": "https://bonnie-fhir.healthit.gov/",
        "value": "612e6f8d02c62a011f2f23f7"
      } ],
      "active": true,
      "name": [ {
        "use": "usual",
        "family": "DENEXFail",
        "given": [ "CMPerfRvltPerStartNULLEndsDayOfICU" ]
      } ],
      "gender": "female",
      "birthDate": "1975-03-03"
    },
    "request": {
      "method": "PUT",
      "url": "Patient/1a51a056-fa89-4986-8580-f727a402a441"
    }
  }, {
    "fullUrl": "https://madie.cms.gov/Encounter/fdab5c39-f97a-43d6-b986-1a2e5fe974d0",
    "resource": {
      "resourceType": "Encounter",
      "id": "fdab5c39-f97a-43d6-b986-1a2e5fe974d0",
      "meta": {
        "profile": [ "http://hl7.org/fhir/us/qicore/StructureDefinition/qicore-encounter" ]
      },
      "status": "finished",
      "class": {
        "system": "http://terminology.hl7.org/CodeSystem/v3-ActCode",
        "code": "IMP",
        "display": "inpatient encounter"
      },
      "type": [ {
        "coding": [ {
          "system": "http://snomed.info/sct",
          "code": "8715000"
        } ]
      } ],
      "subject": {
        "reference": "Patient/1a51a056-fa89-4986-8580-f727a402a441"
      },
      "period": {
        "start": "2026-12-04T08:00:00.000+00:00",
        "end": "2026-12-30T08:15:00.000+00:00"
      },
      "length": {
        "value": 26.0,
        "unit": "days"
      },
      "location": [ {
        "location": {
          "reference": "Location/a0916cae-3997-4d83-b964-b251e8259adf"
        },
        "period": {
          "start": "2026-12-06T08:00:00.000+00:00",
          "end": "2026-12-12T08:15:00.000+00:00"
        }
      } ]
    },
    "request": {
      "method": "PUT",
      "url": "Encounter/fdab5c39-f97a-43d6-b986-1a2e5fe974d0"
    }
  }, {
    "fullUrl": "https://madie.cms.gov/Procedure/5f4642bb-e7b3-46ed-ace8-f4e8d08ca943",
    "resource": {
      "resourceType": "Procedure",
      "id": "5f4642bb-e7b3-46ed-ace8-f4e8d08ca943",
      "meta": {
        "profile": [ "http://hl7.org/fhir/us/qicore/StructureDefinition/qicore-procedure" ]
      },
      "extension": [ {
        "url": "http://hl7.org/fhir/us/qicore/StructureDefinition/qicore-recorded",
        "valueDateTime": "2013-12-04T13:35:00.000+00:00"
      } ],
      "status": "completed",
      "code": {
        "coding": [ {
          "system": "http://snomed.info/sct",
          "code": "133918004"
        } ]
      },
      "subject": {
        "reference": "Patient/1a51a056-fa89-4986-8580-f727a402a441"
      },
      "performedPeriod": {
        "end": "2026-12-06T08:15:00.000+00:00"
      }
    },
    "request": {
      "method": "PUT",
      "url": "Procedure/5f4642bb-e7b3-46ed-ace8-f4e8d08ca943"
    }
  }, {
    "fullUrl": "https://madie.cms.gov/Coverage/f83f4bae-7c2f-46d9-96e4-13666e7e039d",
    "resource": {
      "resourceType": "Coverage",
      "id": "f83f4bae-7c2f-46d9-96e4-13666e7e039d",
      "status": "active",
      "beneficiary": {
        "reference": "Patient/1a51a056-fa89-4986-8580-f727a402a441"
      },
      "period": {
        "start": "1975-03-03T08:00:00.000+00:00"
      },
      "payor": [ {
        "reference": "Organization/951ab8a1-1125-4e91-90e7-0631b06bbfad"
      } ]
    },
    "request": {
      "method": "PUT",
      "url": "Coverage/f83f4bae-7c2f-46d9-96e4-13666e7e039d"
    }
  }, {
    "fullUrl": "https://madie.cms.gov/Location/a0916cae-3997-4d83-b964-b251e8259adf",
    "resource": {
      "resourceType": "Location",
      "id": "a0916cae-3997-4d83-b964-b251e8259adf",
      "meta": {
        "profile": [ "http://hl7.org/fhir/us/qicore/StructureDefinition/qicore-location" ]
      },
      "identifier": [ {
        "use": "usual",
        "system": "http://exampleoflocation.com",
        "value": "B1-S.F2"
      } ],
      "name": "Medical Surgical East, first floor",
      "type": [ {
        "coding": [ {
          "system": "https://www.cdc.gov/nhsn/cdaportal/terminology/codesystem/hsloc.html",
          "code": "1025-6",
          "display": "Trauma Critical Care",
          "userSelected": true
        } ]
      } ]
    },
    "request": {
      "method": "PUT",
      "url": "Location/a0916cae-3997-4d83-b964-b251e8259adf"
    }
  }, {
    "fullUrl": "https://madie.cms.gov/Organization/951ab8a1-1125-4e91-90e7-0631b06bbfad",
    "resource": {
      "resourceType": "Organization",
      "id": "951ab8a1-1125-4e91-90e7-0631b06bbfad",
      "meta": {
        "profile": [ "http://hl7.org/fhir/us/qicore/StructureDefinition/qicore-organization" ]
      },
      "identifier": [ {
        "use": "temp",
        "system": "urn:oid:2.16.840.1.113883.4.4",
        "value": "21-3259825"
      } ],
      "active": true,
      "type": [ {
        "coding": [ {
          "system": "http://terminology.hl7.org/CodeSystem/organization-type",
          "code": "pay",
          "display": "Payer"
        } ]
      } ],
      "name": "Blue Cross Blue Shield of Texas",
      "telecom": [ {
        "system": "phone",
        "value": "(+1) 972-766-6900"
      } ],
      "address": [ {
        "use": "billing",
        "type": "postal",
        "line": [ "P.O. Box 660044" ],
        "city": "Dallas",
        "state": "TX",
        "postalCode": "75266-0044",
        "country": "USA"
      } ]
    },
    "request": {
      "method": "PUT",
      "url": "Organization/951ab8a1-1125-4e91-90e7-0631b06bbfad"
    }
  }, {
    "fullUrl": "https://madie.cms.gov/Practitioner/45be2d2c-8459-4443-8401-8d80ff3b76d4",
    "resource": {
      "resourceType": "Practitioner",
      "id": "45be2d2c-8459-4443-8401-8d80ff3b76d4",
      "identifier": [ {
        "system": "http://hl7.org/fhir/sid/us-npi",
        "value": "123456"
      } ],
      "name": [ {
        "family": "Evil",
        "prefix": [ "Dr" ]
      } ]
    },
    "request": {
      "method": "PUT",
      "url": "Practitioner/45be2d2c-8459-4443-8401-8d80ff3b76d4"
    }
  }, {
    "fullUrl": "https://madie.cms.gov/MeasureReport/7f3a600e-737c-4750-b3da-955e9bd3802b",
    "resource": {
      "resourceType": "MeasureReport",
      "id": "7f3a600e-737c-4750-b3da-955e9bd3802b",
      "meta": {
        "profile": [ "http://hl7.org/fhir/us/cqfmeasures/StructureDefinition/test-case-cqfm" ]
      },
      "contained": [ {
        "resourceType": "Parameters",
        "id": "2b9a9b8e-74ec-4b2e-aaed-d53b93561591-parameters",
        "parameter": [ {
          "name": "subject",
          "valueString": "1a51a056-fa89-4986-8580-f727a402a441"
        } ]
      } ],
      "extension": [ {
        "url": "http://hl7.org/fhir/StructureDefinition/cqf-inputParameters",
        "valueReference": {
          "reference": "#2b9a9b8e-74ec-4b2e-aaed-d53b93561591-parameters"
        }
      }, {
        "url": "http://hl7.org/fhir/us/cqfmeasures/StructureDefinition/cqfm-testCaseDescription",
        "valueMarkdown": "comfort measures Intervention Performed relevant period start time is null and ends on day of ICU\n"
      } ],
      "modifierExtension": [ {
        "url": "http://hl7.org/fhir/us/cqfmeasures/StructureDefinition/cqfm-isTestCase",
        "valueBoolean": true
      } ],
      "status": "complete",
      "type": "individual",
      "measure": "https://madie.cms.gov/Measure/CMS190VTEProphylaxisICUFHIR",
      "period": {
        "start": "2026-01-01",
        "end": "2026-12-31"
      },
      "group": [ {
        "id": "Group_1",
        "population": [ {
          "id": "InitialPopulation_1",
          "code": {
            "coding": [ {
              "system": "http://terminology.hl7.org/CodeSystem/measure-population",
              "code": "initial-population",
              "display": "Initial Population"
            } ]
          },
          "count": 1
        }, {
          "id": "Denominator_1",
          "code": {
            "coding": [ {
              "system": "http://terminology.hl7.org/CodeSystem/measure-population",
              "code": "denominator",
              "display": "Denominator"
            } ]
          },
          "count": 1
        }, {
          "id": "DenominatorExclusion_1",
          "code": {
            "coding": [ {
              "system": "http://terminology.hl7.org/CodeSystem/measure-population",
              "code": "denominator-exclusion",
              "display": "Denominator Exclusion"
            } ]
          },
          "count": 0
        }, {
          "id": "Numerator_1",
          "code": {
            "coding": [ {
              "system": "http://terminology.hl7.org/CodeSystem/measure-population",
              "code": "numerator",
              "display": "Numerator"
            } ]
          },
          "count": 0
        }, {
          "id": "DenominatorException_1",
          "code": {
            "coding": [ {
              "system": "http://terminology.hl7.org/CodeSystem/measure-population",
              "code": "denominator-exception",
              "display": "Denominator Exception"
            } ]
          },
          "count": 0
        } ],
        "measureScore": {
          "value": 0.0
        }
      } ],
      "evaluatedResource": [ {
        "reference": "Patient/1a51a056-fa89-4986-8580-f727a402a441"
      }, {
        "reference": "Encounter/fdab5c39-f97a-43d6-b986-1a2e5fe974d0"
      }, {
        "reference": "Procedure/5f4642bb-e7b3-46ed-ace8-f4e8d08ca943"
      }, {
        "reference": "Coverage/f83f4bae-7c2f-46d9-96e4-13666e7e039d"
      }, {
        "reference": "Location/a0916cae-3997-4d83-b964-b251e8259adf"
      }, {
        "reference": "Organization/951ab8a1-1125-4e91-90e7-0631b06bbfad"
      }, {
        "reference": "Practitioner/45be2d2c-8459-4443-8401-8d80ff3b76d4"
      } ]
    },
    "request": {
      "method": "PUT",
      "url": "MeasureReport/7f3a600e-737c-4750-b3da-955e9bd3802b"
    }
  } ]
}