{
  "resourceType": "Bundle",
  "id": "612e6f6202c62a011f2f1a06",
  "type": "transaction",
  "entry": [ {
    "fullUrl": "https://madie.cms.gov/Patient/d665c40d-2323-471f-9642-983472d2be7b",
    "resource": {
      "resourceType": "Patient",
      "id": "d665c40d-2323-471f-9642-983472d2be7b",
      "meta": {
        "profile": [ "http://hl7.org/fhir/us/qicore/StructureDefinition/qicore-patient" ]
      },
      "text": {
        "status": "generated",
        "div": "<div xmlns=\"http://www.w3.org/1999/xhtml\"><div class=\"hapiHeaderText\">GeneralSurgeryEndsDayOfAfterICUStart <b>DENEXPASS </b></div><table class=\"hapiPropertyTable\"><tbody><tr><td>Identifier</td><td>9214f043f436048cfea186089d4ffb3f1663d62344799d81208efc969b033c47</td></tr><tr><td>Date of birth</td><td><span>03 March 1974</span></td></tr></tbody></table></div>"
      },
      "extension": [ {
        "url": "http://hl7.org/fhir/us/core/StructureDefinition/us-core-race",
        "extension": [ {
          "url": "ombCategory",
          "valueCoding": {
            "system": "urn:oid:2.16.840.1.113883.6.238",
            "code": "1002-5",
            "display": "American Indian or Alaska Native",
            "userSelected": true
          }
        }, {
          "url": "text",
          "valueString": "American Indian or Alaska Native"
        } ]
      }, {
        "url": "http://hl7.org/fhir/us/core/StructureDefinition/us-core-ethnicity",
        "extension": [ {
          "url": "ombCategory",
          "valueCoding": {
            "system": "urn:oid:2.16.840.1.113883.6.238",
            "code": "2135-2",
            "display": "Hispanic or Latino",
            "userSelected": true
          }
        }, {
          "url": "text",
          "valueString": "Hispanic or Latino"
        } ]
      } ],
      "identifier": [ {
        "type": {
          "coding": [ {
            "system": "http://terminology.hl7.org/CodeSystem/v2-0203",
            "code": "MR"
          } ]
        },
        "system": "https://bonnie-fhir.healthit.gov/",
        "value": "612e6f6202c62a011f2f1a06"
      } ],
      "active": true,
      "name": [ {
        "use": "usual",
        "family": "DENEXPass",
        "given": [ "GeneralSurgeryEndsDayOfAfterICUStart" ]
      } ],
      "gender": "male",
      "birthDate": "1975-03-03"
    },
    "request": {
      "method": "PUT",
      "url": "Patient/d665c40d-2323-471f-9642-983472d2be7b"
    }
  }, {
    "fullUrl": "https://madie.cms.gov/Encounter/b9821f25-701a-4457-930a-5d881aeaa450",
    "resource": {
      "resourceType": "Encounter",
      "id": "b9821f25-701a-4457-930a-5d881aeaa450",
      "meta": {
        "profile": [ "http://hl7.org/fhir/us/qicore/StructureDefinition/qicore-encounter" ]
      },
      "status": "finished",
      "class": {
        "system": "http://terminology.hl7.org/CodeSystem/v3-ActCode",
        "code": "IMP",
        "display": "inpatient encounter"
      },
      "type": [ {
        "coding": [ {
          "system": "http://snomed.info/sct",
          "code": "8715000"
        } ]
      } ],
      "subject": {
        "reference": "Patient/d665c40d-2323-471f-9642-983472d2be7b"
      },
      "period": {
        "start": "2026-12-04T08:00:00+00:00",
        "end": "2026-12-30T08:15:00.000+00:00"
      },
      "length": {
        "value": 26,
        "unit": "days"
      },
      "location": [ {
        "location": {
          "reference": "Location/27923bee-1e3c-462e-9705-8e1381735290"
        },
        "period": {
          "start": "2026-12-06T05:00:00+00:00",
          "end": "2026-12-28T08:15:00.000+00:00"
        }
      } ]
    },
    "request": {
      "method": "PUT",
      "url": "Encounter/b9821f25-701a-4457-930a-5d881aeaa450"
    }
  }, {
    "fullUrl": "https://madie.cms.gov/claim/5ca62962b8484628b8de1ec5",
    "resource": {
      "resourceType": "Claim",
      "id": "5ca62962b8484628b8de1ec5",
      "meta": {
        "profile": [ "http://hl7.org/fhir/us/qicore/StructureDefinition/qicore-claim" ]
      },
      "status": "active",
      "type": {
        "coding": [ {
          "system": "http://terminology.hl7.org/CodeSystem/claim-type",
          "code": "institutional"
        } ]
      },
      "use": "claim",
      "patient": {
        "reference": "Patient/d170a0a8-b5ad-4303-b6df-e304dd5f92ad"
      },
      "created": "2026-12-01",
      "provider": {
        "reference": "Practitioner/b346f4ee-66fa-4ed7-8f2c-8077024f3305"
      },
      "priority": {
        "coding": [ {
          "system": "http://terminology.hl7.org/CodeSystem/processpriority",
          "code": "normal"
        } ]
      },
      "procedure": [ {
        "sequence": 1,
        "type": [ {
          "coding": [ {
            "system": "http://terminology.hl7.org/CodeSystem/ex-procedure-type",
            "code": "primary"
          } ]
        } ],
        "procedureCodeableConcept": {
          "coding": [ {
            "system": "http://www.cms.gov/Medicare/Coding/ICD10",
            "code": "0DCC0ZZ"
          } ]
        }
      } ],
      "insurance": [ {
        "sequence": 1,
        "focal": true,
        "coverage": {
          "reference": "Coverage/5fa041661c76ba66d9959367"
        }
      } ],
      "item": [ {
        "sequence": 1,
        "procedureSequence": [ 1 ],
        "productOrService": {
          "coding": [ {
            "system": "http://terminology.hl7.org/CodeSystem/ex-USCLS",
            "code": "99555"
          } ]
        },
        "encounter": [ {
          "reference": "Encounter/b9821f25-701a-4457-930a-5d881aeaa450"
        } ]
      } ]
    },
    "request": {
      "method": "PUT",
      "url": "Claim/5ca62962b8484628b8de1ec5"
    }
  }, {
    "fullUrl": "https://madie.cms.gov/Coverage/204a8cbd-9b40-4ea5-983f-51f96bdf5c0a",
    "resource": {
      "resourceType": "Coverage",
      "id": "204a8cbd-9b40-4ea5-983f-51f96bdf5c0a",
      "status": "active",
      "beneficiary": {
        "reference": "Patient/d665c40d-2323-471f-9642-983472d2be7b"
      },
      "period": {
        "start": "1975-03-03T08:00:00+00:00"
      },
      "payor": [ {
        "reference": "Organization/5fcbce0c-3fb2-4b0c-97d2-2912e8a307b5"
      } ]
    },
    "request": {
      "method": "PUT",
      "url": "Coverage/204a8cbd-9b40-4ea5-983f-51f96bdf5c0a"
    }
  }, {
    "fullUrl": "https://madie.cms.gov/Procedure/e730cfb1-0fee-49ee-804f-11599368a5b0",
    "resource": {
      "resourceType": "Procedure",
      "id": "e730cfb1-0fee-49ee-804f-11599368a5b0",
      "meta": {
        "profile": [ "http://hl7.org/fhir/us/qicore/StructureDefinition/qicore-procedure" ]
      },
      "extension": [ {
        "url": "http://hl7.org/fhir/us/qicore/StructureDefinition/qicore-recorded",
        "valueDateTime": "2013-12-04T13:35:00+00:00"
      } ],
      "status": "completed",
      "code": {
        "coding": [ {
          "system": "http://www.cms.gov/Medicare/Coding/ICD10",
          "code": "0DCC0ZZ"
        } ]
      },
      "subject": {
        "reference": "Patient/d665c40d-2323-471f-9642-983472d2be7b"
      },
      "performedPeriod": {
        "start": "2026-12-06T07:00:00+00:00",
        "end": "2026-12-06T13:00:00.000+00:00"
      }
    },
    "request": {
      "method": "PUT",
      "url": "Procedure/e730cfb1-0fee-49ee-804f-11599368a5b0"
    }
  }, {
    "fullUrl": "https://madie.cms.gov/Location/27923bee-1e3c-462e-9705-8e1381735290",
    "resource": {
      "resourceType": "Location",
      "id": "27923bee-1e3c-462e-9705-8e1381735290",
      "meta": {
        "profile": [ "http://hl7.org/fhir/us/qicore/StructureDefinition/qicore-location" ]
      },
      "identifier": [ {
        "use": "usual",
        "system": "http://exampleoflocation.com",
        "value": "B1-S.F2"
      } ],
      "name": "Medical Surgical East, first floor",
      "type": [ {
        "coding": [ {
          "system": "https://www.cdc.gov/nhsn/cdaportal/terminology/codesystem/hsloc.html",
          "code": "1025-6",
          "display": "Trauma Critical Care",
          "userSelected": true
        } ]
      } ]
    },
    "request": {
      "method": "PUT",
      "url": "Location/27923bee-1e3c-462e-9705-8e1381735290"
    }
  }, {
    "fullUrl": "https://madie.cms.gov/Organization/5fcbce0c-3fb2-4b0c-97d2-2912e8a307b5",
    "resource": {
      "resourceType": "Organization",
      "id": "5fcbce0c-3fb2-4b0c-97d2-2912e8a307b5",
      "meta": {
        "profile": [ "http://hl7.org/fhir/us/qicore/StructureDefinition/qicore-organization" ]
      },
      "identifier": [ {
        "use": "temp",
        "system": "urn:oid:2.16.840.1.113883.4.4",
        "value": "21-3259825"
      } ],
      "active": true,
      "type": [ {
        "coding": [ {
          "system": "http://terminology.hl7.org/CodeSystem/organization-type",
          "code": "pay",
          "display": "Payer"
        } ]
      } ],
      "name": "Blue Cross Blue Shield of Texas",
      "telecom": [ {
        "system": "phone",
        "value": "(+1) 972-766-6900"
      } ],
      "address": [ {
        "use": "billing",
        "type": "postal",
        "line": [ "P.O. Box 660044" ],
        "city": "Dallas",
        "state": "TX",
        "postalCode": "75266-0044",
        "country": "USA"
      } ]
    },
    "request": {
      "method": "PUT",
      "url": "Organization/5fcbce0c-3fb2-4b0c-97d2-2912e8a307b5"
    }
  }, {
    "fullUrl": "https://madie.cms.gov/Practitioner/b346f4ee-66fa-4ed7-8f2c-8077024f3305",
    "resource": {
      "resourceType": "Practitioner",
      "id": "b346f4ee-66fa-4ed7-8f2c-8077024f3305",
      "identifier": [ {
        "system": "http://hl7.org/fhir/sid/us-npi",
        "value": "123456"
      } ],
      "name": [ {
        "family": "Evil",
        "prefix": [ "Dr" ]
      } ]
    },
    "request": {
      "method": "PUT",
      "url": "Practitioner/b346f4ee-66fa-4ed7-8f2c-8077024f3305"
    }
  }, {
    "fullUrl": "https://madie.cms.gov/MeasureReport/de147f93-82a7-41e1-87ac-e39303e8881b",
    "resource": {
      "resourceType": "MeasureReport",
      "id": "de147f93-82a7-41e1-87ac-e39303e8881b",
      "meta": {
        "profile": [ "http://hl7.org/fhir/us/cqfmeasures/StructureDefinition/test-case-cqfm" ]
      },
      "contained": [ {
        "resourceType": "Parameters",
        "id": "8941a9cf-29a3-42c2-91ee-b4ac13f31bb3-parameters",
        "parameter": [ {
          "name": "subject",
          "valueString": "d665c40d-2323-471f-9642-983472d2be7b"
        } ]
      } ],
      "extension": [ {
        "url": "http://hl7.org/fhir/StructureDefinition/cqf-inputParameters",
        "valueReference": {
          "reference": "#8941a9cf-29a3-42c2-91ee-b4ac13f31bb3-parameters"
        }
      }, {
        "url": "http://hl7.org/fhir/us/cqfmeasures/StructureDefinition/cqfm-testCaseDescription",
        "valueMarkdown": "General surgery ends same day after start of ICU admission. \n"
      } ],
      "modifierExtension": [ {
        "url": "http://hl7.org/fhir/us/cqfmeasures/StructureDefinition/cqfm-isTestCase",
        "valueBoolean": true
      } ],
      "status": "complete",
      "type": "individual",
      "measure": "https://madie.cms.gov/Measure/CMS190VTEProphylaxisICUFHIR",
      "period": {
        "start": "2026-01-01",
        "end": "2026-12-31"
      },
      "group": [ {
        "id": "Group_1",
        "population": [ {
          "id": "InitialPopulation_1",
          "code": {
            "coding": [ {
              "system": "http://terminology.hl7.org/CodeSystem/measure-population",
              "code": "initial-population",
              "display": "Initial Population"
            } ]
          },
          "count": 1
        }, {
          "id": "Denominator_1",
          "code": {
            "coding": [ {
              "system": "http://terminology.hl7.org/CodeSystem/measure-population",
              "code": "denominator",
              "display": "Denominator"
            } ]
          },
          "count": 1
        }, {
          "id": "DenominatorExclusion_1",
          "code": {
            "coding": [ {
              "system": "http://terminology.hl7.org/CodeSystem/measure-population",
              "code": "denominator-exclusion",
              "display": "Denominator Exclusion"
            } ]
          },
          "count": 1
        }, {
          "id": "Numerator_1",
          "code": {
            "coding": [ {
              "system": "http://terminology.hl7.org/CodeSystem/measure-population",
              "code": "numerator",
              "display": "Numerator"
            } ]
          },
          "count": 0
        }, {
          "id": "DenominatorException_1",
          "code": {
            "coding": [ {
              "system": "http://terminology.hl7.org/CodeSystem/measure-population",
              "code": "denominator-exception",
              "display": "Denominator Exception"
            } ]
          },
          "count": 0
        } ],
        "measureScore": {
          "value": 0.0
        }
      } ],
      "evaluatedResource": [ {
        "reference": "Patient/d665c40d-2323-471f-9642-983472d2be7b"
      }, {
        "reference": "Encounter/b9821f25-701a-4457-930a-5d881aeaa450"
      }, {
        "reference": "Claim/5ca62962b8484628b8de1ec5"
      }, {
        "reference": "Coverage/204a8cbd-9b40-4ea5-983f-51f96bdf5c0a"
      }, {
        "reference": "Procedure/e730cfb1-0fee-49ee-804f-11599368a5b0"
      }, {
        "reference": "Location/27923bee-1e3c-462e-9705-8e1381735290"
      }, {
        "reference": "Organization/5fcbce0c-3fb2-4b0c-97d2-2912e8a307b5"
      }, {
        "reference": "Practitioner/b346f4ee-66fa-4ed7-8f2c-8077024f3305"
      } ]
    },
    "request": {
      "method": "PUT",
      "url": "MeasureReport/de147f93-82a7-41e1-87ac-e39303e8881b"
    }
  } ]
}