{
  "resourceType": "Bundle",
  "id": "6129134702c62a011f2e6e49",
  "type": "transaction",
  "entry": [ {
    "fullUrl": "https://madie.cms.gov/Patient/e6202628-baf6-4d44-acd6-d1affdf3c989",
    "resource": {
      "resourceType": "Patient",
      "id": "e6202628-baf6-4d44-acd6-d1affdf3c989",
      "meta": {
        "profile": [ "http://hl7.org/fhir/us/qicore/StructureDefinition/qicore-patient" ]
      },
      "text": {
        "status": "generated",
        "div": "<div xmlns=\"http://www.w3.org/1999/xhtml\"><div class=\"hapiHeaderText\">AntithromboticTMeqIPAdmTM <b>NUMERPASS </b></div><table class=\"hapiPropertyTable\"><tbody><tr><td>Identifier</td><td>09185becde4292df8c5ecbeb8287eadc</td></tr><tr><td>Date of birth</td><td><span>31 May 1990</span></td></tr></tbody></table></div>"
      },
      "extension": [ {
        "url": "http://hl7.org/fhir/us/core/StructureDefinition/us-core-race",
        "extension": [ {
          "url": "ombCategory",
          "valueCoding": {
            "system": "urn:oid:2.16.840.1.113883.6.238",
            "code": "1002-5",
            "display": "American Indian or Alaska Native",
            "userSelected": true
          }
        }, {
          "url": "text",
          "valueString": "American Indian or Alaska Native"
        } ]
      }, {
        "url": "http://hl7.org/fhir/us/core/StructureDefinition/us-core-ethnicity",
        "extension": [ {
          "url": "ombCategory",
          "valueCoding": {
            "system": "urn:oid:2.16.840.1.113883.6.238",
            "code": "2135-2",
            "display": "Hispanic or Latino",
            "userSelected": true
          }
        }, {
          "url": "text",
          "valueString": "Hispanic or Latino"
        } ]
      } ],
      "identifier": [ {
        "type": {
          "coding": [ {
            "system": "http://terminology.hl7.org/CodeSystem/v2-0203",
            "code": "MR"
          } ]
        },
        "system": "https://bonnie-fhir.healthit.gov/",
        "value": "6129134702c62a011f2e6e49"
      } ],
      "active": true,
      "name": [ {
        "use": "usual",
        "family": "NUMERPass",
        "given": [ "AntithromboticTMeqIPAdmTM" ]
      } ],
      "gender": "male",
      "birthDate": "1991-05-31"
    },
    "request": {
      "method": "PUT",
      "url": "Patient/e6202628-baf6-4d44-acd6-d1affdf3c989"
    }
  }, {
    "fullUrl": "https://madie.cms.gov/Encounter/c99d664d-201f-46c1-8a8d-ab3b5eb1c23e",
    "resource": {
      "resourceType": "Encounter",
      "id": "c99d664d-201f-46c1-8a8d-ab3b5eb1c23e",
      "meta": {
        "profile": [ "http://hl7.org/fhir/us/qicore/StructureDefinition/qicore-encounter" ]
      },
      "status": "finished",
      "class": {
        "system": "http://terminology.hl7.org/CodeSystem/v3-ActCode",
        "code": "IMP",
        "display": "inpatient encounter",
        "userSelected": true
      },
      "type": [ {
        "coding": [ {
          "system": "http://snomed.info/sct",
          "code": "32485007"
        } ]
      } ],
      "subject": {
        "reference": "Patient/e6202628-baf6-4d44-acd6-d1affdf3c989"
      },
      "period": {
        "start": "2026-06-15T09:30:00Z",
        "end": "2026-10-12T10:30:00Z"
      },
      "length": {
        "value": 119,
        "unit": "days"
      },
      "diagnosis": [ {
        "condition": {
          "reference": "Condition/dd40b1d6-5a09-439f-bce2-435b5ec20b2d"
        },
        "use": {
          "coding": [ {
            "system": "http://terminology.hl7.org/CodeSystem/diagnosis-role",
            "code": "billing",
            "display": "Billing"
          } ]
        },
        "rank": 1
      } ]
    },
    "request": {
      "method": "PUT",
      "url": "Encounter/c99d664d-201f-46c1-8a8d-ab3b5eb1c23e"
    }
  }, {
    "fullUrl": "https://madie.cms.gov/MedicationRequest/f873ae78-d853-44cf-984e-a310af018bab",
    "resource": {
      "resourceType": "MedicationRequest",
      "id": "f873ae78-d853-44cf-984e-a310af018bab",
      "meta": {
        "profile": [ "http://hl7.org/fhir/us/qicore/StructureDefinition/qicore-medicationrequest" ]
      },
      "status": "active",
      "intent": "order",
      "category": [ {
        "coding": [ {
          "system": "http://terminology.hl7.org/CodeSystem/medicationrequest-category",
          "code": "community",
          "display": "Community",
          "userSelected": true
        } ]
      } ],
      "medicationCodeableConcept": {
        "coding": [ {
          "system": "http://www.nlm.nih.gov/research/umls/rxnorm",
          "code": "1037045"
        } ]
      },
      "subject": {
        "reference": "Patient/e6202628-baf6-4d44-acd6-d1affdf3c989"
      },
      "authoredOn": "2026-06-15T09:30:00Z",
      "requester": {
        "reference": "Practitioner/example"
      }
    },
    "request": {
      "method": "PUT",
      "url": "MedicationRequest/f873ae78-d853-44cf-984e-a310af018bab"
    }
  }, {
    "fullUrl": "https://madie.cms.gov/Condition/dd40b1d6-5a09-439f-bce2-435b5ec20b2d",
    "resource": {
      "resourceType": "Condition",
      "id": "dd40b1d6-5a09-439f-bce2-435b5ec20b2d",
      "meta": {
        "profile": [ "http://hl7.org/fhir/us/qicore/StructureDefinition/qicore-condition" ]
      },
      "clinicalStatus": {
        "coding": [ {
          "system": "http://terminology.hl7.org/CodeSystem/condition-clinical",
          "code": "active"
        } ]
      },
      "verificationStatus": {
        "coding": [ {
          "system": "http://terminology.hl7.org/CodeSystem/condition-ver-status",
          "code": "confirmed"
        } ]
      },
      "category": [ {
        "coding": [ {
          "system": "http://terminology.hl7.org/CodeSystem/condition-category",
          "code": "encounter-diagnosis",
          "display": "Encounter Diagnosis"
        } ]
      } ],
      "code": {
        "coding": [ {
          "system": "http://snomed.info/sct",
          "version": "2020-09",
          "code": "111297002",
          "display": "Nonparalytic stroke (disorder)",
          "userSelected": true
        } ]
      },
      "subject": {
        "reference": "Patient/e6202628-baf6-4d44-acd6-d1affdf3c989"
      },
      "recordedDate": "2026-07-15T08:00:00Z"
    },
    "request": {
      "method": "PUT",
      "url": "Condition/dd40b1d6-5a09-439f-bce2-435b5ec20b2d"
    }
  }, {
    "fullUrl": "https://madie.cms.gov/Coverage/7e290df0-d366-4c4b-a22d-14a77b58b385",
    "resource": {
      "resourceType": "Coverage",
      "id": "7e290df0-d366-4c4b-a22d-14a77b58b385",
      "meta": {
        "profile": [ "http://hl7.org/fhir/us/qicore/StructureDefinition/qicore-coverage" ]
      },
      "status": "active",
      "beneficiary": {
        "reference": "Patient/e6202628-baf6-4d44-acd6-d1affdf3c989"
      },
      "payor": [ {
        "reference": "Organization/2e92bb7e-a3e0-4eae-88d3-6049a9d3fee3"
      } ]
    },
    "request": {
      "method": "PUT",
      "url": "Coverage/7e290df0-d366-4c4b-a22d-14a77b58b385"
    }
  }, {
    "fullUrl": "https://madie.cms.gov/Claim/48db326a-69fa-4b78-a242-4a4b264c3c88",
    "resource": {
      "resourceType": "Claim",
      "id": "48db326a-69fa-4b78-a242-4a4b264c3c88",
      "meta": {
        "profile": [ "http://hl7.org/fhir/us/qicore/StructureDefinition/qicore-claim" ]
      },
      "status": "active",
      "type": {
        "coding": [ {
          "system": "http://terminology.hl7.org/CodeSystem/claim-type",
          "code": "institutional"
        } ]
      },
      "use": "claim",
      "patient": {
        "reference": "Patient/e6202628-baf6-4d44-acd6-d1affdf3c989"
      },
      "created": "2026-12-01",
      "provider": {
        "reference": "Practitioner/practitioner-123456"
      },
      "priority": {
        "coding": [ {
          "system": "http://terminology.hl7.org/CodeSystem/processpriority",
          "code": "normal"
        } ]
      },
      "diagnosis": [ {
        "sequence": 1,
        "diagnosisCodeableConcept": {
          "coding": [ {
            "system": "http://hl7.org/fhir/sid/icd-10-cm",
            "code": "I63.00"
          } ]
        },
        "type": [ {
          "coding": [ {
            "system": "http://terminology.hl7.org/CodeSystem/ex-diagnosistype",
            "code": "principal"
          } ]
        } ]
      } ],
      "insurance": [ {
        "sequence": 1,
        "focal": true,
        "coverage": {
          "reference": "Coverage/5fa041661c76ba66d9959367"
        }
      } ],
      "item": [ {
        "sequence": 1,
        "diagnosisSequence": [ 1 ],
        "productOrService": {
          "coding": [ {
            "system": "http://terminology.hl7.org/CodeSystem/ex-USCLS",
            "code": "99555"
          } ]
        },
        "encounter": [ {
          "reference": "Encounter/c99d664d-201f-46c1-8a8d-ab3b5eb1c23e"
        } ]
      } ]
    },
    "request": {
      "method": "PUT",
      "url": "Claim/48db326a-69fa-4b78-a242-4a4b264c3c88"
    }
  }, {
    "fullUrl": "https://madie.cms.gov/Organization/2e92bb7e-a3e0-4eae-88d3-6049a9d3fee3",
    "resource": {
      "resourceType": "Organization",
      "id": "2e92bb7e-a3e0-4eae-88d3-6049a9d3fee3",
      "meta": {
        "profile": [ "http://hl7.org/fhir/us/qicore/StructureDefinition/qicore-organization" ]
      },
      "identifier": [ {
        "use": "temp",
        "system": "urn:oid:2.16.840.1.113883.4.4",
        "value": "21-3259825"
      } ],
      "active": true,
      "type": [ {
        "coding": [ {
          "system": "http://terminology.hl7.org/CodeSystem/organization-type",
          "code": "pay",
          "display": "Payer"
        } ]
      } ],
      "name": "Blue Cross Blue Shield of Texas",
      "telecom": [ {
        "system": "phone",
        "value": "(+1) 972-766-6900"
      } ],
      "address": [ {
        "use": "billing",
        "type": "postal",
        "line": [ "P.O. Box 660044" ],
        "city": "Dallas",
        "state": "TX",
        "postalCode": "75266-0044",
        "country": "USA"
      } ]
    },
    "request": {
      "method": "PUT",
      "url": "Organization/2e92bb7e-a3e0-4eae-88d3-6049a9d3fee3"
    }
  }, {
    "fullUrl": "https://madie.cms.gov/MeasureReport/d8a196fb-e54a-42ce-9812-7a7da788a01e",
    "resource": {
      "resourceType": "MeasureReport",
      "id": "d8a196fb-e54a-42ce-9812-7a7da788a01e",
      "meta": {
        "profile": [ "http://hl7.org/fhir/us/cqfmeasures/StructureDefinition/test-case-cqfm" ]
      },
      "contained": [ {
        "resourceType": "Parameters",
        "id": "37cea8d9-97ca-4fdb-8c12-56e7f0f0dda4-parameters",
        "parameter": [ {
          "name": "subject",
          "valueString": "e6202628-baf6-4d44-acd6-d1affdf3c989"
        } ]
      } ],
      "extension": [ {
        "url": "http://hl7.org/fhir/StructureDefinition/cqf-inputParameters",
        "valueReference": {
          "reference": "#37cea8d9-97ca-4fdb-8c12-56e7f0f0dda4-parameters"
        }
      }, {
        "url": "http://hl7.org/fhir/us/cqfmeasures/StructureDefinition/cqfm-testCaseDescription",
        "valueMarkdown": "Patient is GT 18 with Non-Elective Inpatient Encounter with principal diagnosis of ischemic stroke ends during MP received antithrombotic during IP encounter\n"
      } ],
      "modifierExtension": [ {
        "url": "http://hl7.org/fhir/us/cqfmeasures/StructureDefinition/cqfm-isTestCase",
        "valueBoolean": true
      } ],
      "status": "complete",
      "type": "individual",
      "measure": "https://madie.cms.gov/Measure/CMS104FHIRSTKDCAntithrombotic",
      "period": {
        "start": "2026-01-01",
        "end": "2026-12-31"
      },
      "group": [ {
        "id": "Group_1",
        "population": [ {
          "id": "InitialPopulation_1",
          "code": {
            "coding": [ {
              "system": "http://terminology.hl7.org/CodeSystem/measure-population",
              "code": "initial-population",
              "display": "Initial Population"
            } ]
          },
          "count": 1
        }, {
          "id": "Denominator_1",
          "code": {
            "coding": [ {
              "system": "http://terminology.hl7.org/CodeSystem/measure-population",
              "code": "denominator",
              "display": "Denominator"
            } ]
          },
          "count": 1
        }, {
          "id": "DenominatorExclusion_1",
          "code": {
            "coding": [ {
              "system": "http://terminology.hl7.org/CodeSystem/measure-population",
              "code": "denominator-exclusion",
              "display": "Denominator Exclusion"
            } ]
          },
          "count": 0
        }, {
          "id": "Numerator_1",
          "code": {
            "coding": [ {
              "system": "http://terminology.hl7.org/CodeSystem/measure-population",
              "code": "numerator",
              "display": "Numerator"
            } ]
          },
          "count": 1
        }, {
          "id": "DenominatorException_1",
          "code": {
            "coding": [ {
              "system": "http://terminology.hl7.org/CodeSystem/measure-population",
              "code": "denominator-exception",
              "display": "Denominator Exception"
            } ]
          },
          "count": 0
        } ],
        "measureScore": {
          "value": 0.0
        }
      } ],
      "evaluatedResource": [ {
        "reference": "Patient/e6202628-baf6-4d44-acd6-d1affdf3c989"
      }, {
        "reference": "Encounter/c99d664d-201f-46c1-8a8d-ab3b5eb1c23e"
      }, {
        "reference": "MedicationRequest/f873ae78-d853-44cf-984e-a310af018bab"
      }, {
        "reference": "Condition/dd40b1d6-5a09-439f-bce2-435b5ec20b2d"
      }, {
        "reference": "Coverage/7e290df0-d366-4c4b-a22d-14a77b58b385"
      }, {
        "reference": "Claim/48db326a-69fa-4b78-a242-4a4b264c3c88"
      }, {
        "reference": "Organization/2e92bb7e-a3e0-4eae-88d3-6049a9d3fee3"
      } ]
    },
    "request": {
      "method": "PUT",
      "url": "MeasureReport/d8a196fb-e54a-42ce-9812-7a7da788a01e"
    }
  } ]
}