{
  "resourceType": "Bundle",
  "id": "63487c2e0968f80122540166",
  "type": "transaction",
  "entry": [ {
    "fullUrl": "https://madie.cms.gov/Patient/85099d00-576e-495a-97de-b1cd5d4377cf",
    "resource": {
      "resourceType": "Patient",
      "id": "85099d00-576e-495a-97de-b1cd5d4377cf",
      "meta": {
        "profile": [ "http://hl7.org/fhir/us/qicore/StructureDefinition/qicore-patient" ]
      },
      "text": {
        "status": "generated",
        "div": "<div xmlns=\"http://www.w3.org/1999/xhtml\"><div class=\"hapiHeaderText\">AssessP0RelDateTime42wk1MinB4TimeOfDelivTime <b>DENOMFail</b></div><table class=\"hapiPropertyTable\"><tbody><tr><td>Identifier</td><td>a4f89b063325e93d9c0619322ab83006b1a8a4bc33d4a91258dd77ce8e032520</td></tr><tr><td>Date of birth</td><td><span>14 February 1985</span></td></tr></tbody></table></div>"
      },
      "extension": [ {
        "url": "http://hl7.org/fhir/us/core/StructureDefinition/us-core-race",
        "extension": [ {
          "url": "ombCategory",
          "valueCoding": {
            "system": "urn:oid:2.16.840.1.113883.6.238",
            "code": "1002-5",
            "display": "American Indian or Alaska Native",
            "userSelected": true
          }
        }, {
          "url": "text",
          "valueString": "American Indian or Alaska Native"
        } ]
      }, {
        "url": "http://hl7.org/fhir/us/core/StructureDefinition/us-core-ethnicity",
        "extension": [ {
          "url": "ombCategory",
          "valueCoding": {
            "system": "urn:oid:2.16.840.1.113883.6.238",
            "code": "2135-2",
            "display": "Hispanic or Latino",
            "userSelected": true
          }
        }, {
          "url": "text",
          "valueString": "Hispanic or Latino"
        } ]
      } ],
      "identifier": [ {
        "type": {
          "coding": [ {
            "system": "http://terminology.hl7.org/CodeSystem/v2-0203",
            "code": "MR"
          } ]
        },
        "system": "https://bonnie-fhir.healthit.gov/",
        "value": "63487c2e0968f80122540166"
      } ],
      "active": true,
      "name": [ {
        "use": "usual",
        "family": "DENOMFail",
        "given": [ "AssessP0RelDateTime42wk1MinB4TimeOfDelivTime" ]
      } ],
      "gender": "female",
      "birthDate": "1998-02-14"
    },
    "request": {
      "method": "PUT",
      "url": "Patient/85099d00-576e-495a-97de-b1cd5d4377cf"
    }
  }, {
    "fullUrl": "https://madie.cms.gov/Observation/53aa23ab-9c47-4aa4-a3b4-a17de0d465a6",
    "resource": {
      "resourceType": "Observation",
      "id": "53aa23ab-9c47-4aa4-a3b4-a17de0d465a6",
      "meta": {
        "profile": [ "http://hl7.org/fhir/us/qicore/StructureDefinition/qicore-simple-observation" ]
      },
      "status": "final",
      "category": [ {
        "coding": [ {
          "system": "http://terminology.hl7.org/CodeSystem/observation-category",
          "code": "exam",
          "display": "exam",
          "userSelected": true
        } ]
      } ],
      "code": {
        "coding": [ {
          "system": "http://loinc.org",
          "code": "11977-6"
        } ]
      },
      "subject": {
        "reference": "Patient/85099d00-576e-495a-97de-b1cd5d4377cf"
      },
      "effectiveDateTime": "2012-08-19T19:59:00.000+00:00",
      "valueInteger": 0
    },
    "request": {
      "method": "PUT",
      "url": "Observation/53aa23ab-9c47-4aa4-a3b4-a17de0d465a6"
    }
  }, {
    "fullUrl": "https://madie.cms.gov/Observation/aaa078cb-c017-41ed-aad2-a5f153fd2f77",
    "resource": {
      "resourceType": "Observation",
      "id": "aaa078cb-c017-41ed-aad2-a5f153fd2f77",
      "meta": {
        "profile": [ "http://hl7.org/fhir/us/qicore/StructureDefinition/qicore-simple-observation" ]
      },
      "status": "final",
      "category": [ {
        "coding": [ {
          "system": "http://terminology.hl7.org/CodeSystem/observation-category",
          "code": "exam",
          "display": "exam",
          "userSelected": true
        } ]
      } ],
      "code": {
        "coding": [ {
          "system": "http://loinc.org",
          "code": "11884-4"
        } ]
      },
      "subject": {
        "reference": "Patient/85099d00-576e-495a-97de-b1cd5d4377cf"
      },
      "effectiveDateTime": "2026-06-08T20:00:00.000+00:00",
      "valueQuantity": {
        "value": 37,
        "system": "http://unitsofmeasure.org",
        "code": "wk"
      }
    },
    "request": {
      "method": "PUT",
      "url": "Observation/aaa078cb-c017-41ed-aad2-a5f153fd2f77"
    }
  }, {
    "fullUrl": "https://madie.cms.gov/Observation/8811ccd3-7660-4f27-b62a-40205cac2adf",
    "resource": {
      "resourceType": "Observation",
      "id": "8811ccd3-7660-4f27-b62a-40205cac2adf",
      "meta": {
        "profile": [ "http://hl7.org/fhir/us/qicore/StructureDefinition/qicore-simple-observation" ]
      },
      "status": "final",
      "category": [ {
        "coding": [ {
          "system": "http://terminology.hl7.org/CodeSystem/observation-category",
          "code": "exam",
          "display": "exam",
          "userSelected": true
        } ]
      } ],
      "code": {
        "coding": [ {
          "system": "http://loinc.org",
          "code": "93857-1"
        } ]
      },
      "subject": {
        "reference": "Patient/85099d00-576e-495a-97de-b1cd5d4377cf"
      },
      "effectiveDateTime": "2026-06-08T20:00:00.000+00:00",
      "valueDateTime": "2026-06-08T20:00:00.000+00:00"
    },
    "request": {
      "method": "PUT",
      "url": "Observation/8811ccd3-7660-4f27-b62a-40205cac2adf"
    }
  }, {
    "fullUrl": "https://madie.cms.gov/Encounter/503ad096-c2d9-4a5c-992a-3427239829d7",
    "resource": {
      "resourceType": "Encounter",
      "id": "503ad096-c2d9-4a5c-992a-3427239829d7",
      "meta": {
        "profile": [ "http://hl7.org/fhir/us/qicore/StructureDefinition/qicore-encounter" ]
      },
      "status": "finished",
      "class": {
        "system": "http://terminology.hl7.org/CodeSystem/v3-ActCode",
        "code": "IMP",
        "display": "inpatient encounter"
      },
      "type": [ {
        "coding": [ {
          "system": "http://snomed.info/sct",
          "code": "8715000"
        } ]
      } ],
      "subject": {
        "reference": "Patient/85099d00-576e-495a-97de-b1cd5d4377cf"
      },
      "period": {
        "start": "2026-06-08T08:00:00.000+00:00",
        "end": "2026-06-10T08:15:00.000+00:00"
      },
      "length": {
        "value": 2,
        "unit": "days"
      },
      "reasonReference": [ {
        "reference": "Condition/9b71a468-f752-435a-a9aa-4c0198ab4eb4"
      } ]
    },
    "request": {
      "method": "PUT",
      "url": "Encounter/503ad096-c2d9-4a5c-992a-3427239829d7"
    }
  }, {
    "fullUrl": "https://madie.cms.gov/Procedure/9aca61a3-a15f-4343-ad56-bbc015ca8136",
    "resource": {
      "resourceType": "Procedure",
      "id": "9aca61a3-a15f-4343-ad56-bbc015ca8136",
      "meta": {
        "profile": [ "http://hl7.org/fhir/us/qicore/StructureDefinition/qicore-procedure" ]
      },
      "extension": [ {
        "url": "http://hl7.org/fhir/us/qicore/StructureDefinition/qicore-recorded",
        "valueDateTime": "2014-04-05T13:35:00.000+00:00"
      } ],
      "status": "completed",
      "code": {
        "coding": [ {
          "system": "http://www.cms.gov/Medicare/Coding/ICD10",
          "code": "10D00Z0"
        }, {
          "system": "http://snomed.info/sct",
          "code": "4504004"
        } ]
      },
      "subject": {
        "reference": "Patient/85099d00-576e-495a-97de-b1cd5d4377cf"
      },
      "performedPeriod": {
        "start": "2026-06-08T20:00:00.000+00:00",
        "end": "2026-06-08T20:15:00.000+00:00"
      }
    },
    "request": {
      "method": "PUT",
      "url": "Procedure/9aca61a3-a15f-4343-ad56-bbc015ca8136"
    }
  }, {
    "fullUrl": "https://madie.cms.gov/Condition/9b71a468-f752-435a-a9aa-4c0198ab4eb4",
    "resource": {
      "resourceType": "Condition",
      "id": "9b71a468-f752-435a-a9aa-4c0198ab4eb4",
      "meta": {
        "profile": [ "http://hl7.org/fhir/us/qicore/StructureDefinition/qicore-condition-encounter-diagnosis" ]
      },
      "category": [ {
        "coding": [ {
          "system": "http://terminology.hl7.org/CodeSystem/condition-category",
          "code": "encounter-diagnosis",
          "display": "Encounter Diagnosis"
        } ]
      } ],
      "code": {
        "coding": [ {
          "system": "http://snomed.info/sct",
          "version": "2022-09",
          "code": "169826009",
          "display": "Single live birth from singleton pregnancy (finding)",
          "userSelected": true
        } ]
      },
      "subject": {
        "reference": "Patient/85099d00-576e-495a-97de-b1cd5d4377cf"
      },
      "encounter": {
        "reference": "Encounter/503ad096-c2d9-4a5c-992a-3427239829d7"
      },
      "recordedDate": "2026-10-21T08:00:00.000+00:00"
    },
    "request": {
      "method": "PUT",
      "url": "Condition/9b71a468-f752-435a-a9aa-4c0198ab4eb4"
    }
  }, {
    "fullUrl": "https://madie.cms.gov/Coverage/baaa25dc-38f5-4d26-9a92-5aac9d16e448",
    "resource": {
      "resourceType": "Coverage",
      "id": "baaa25dc-38f5-4d26-9a92-5aac9d16e448",
      "meta": {
        "profile": [ "http://hl7.org/fhir/us/qicore/StructureDefinition/qicore-coverage" ]
      },
      "status": "active",
      "subscriberId": "523435",
      "beneficiary": {
        "reference": "Patient/85099d00-576e-495a-97de-b1cd5d4377cf"
      },
      "relationship": {
        "coding": [ {
          "system": "http://terminology.hl7.org/CodeSystem/subscriber-relationship",
          "code": "self"
        } ]
      },
      "payor": [ {
        "reference": "Organization/a6412057-1422-4262-b3f3-d8ff9683973e"
      } ]
    },
    "request": {
      "method": "PUT",
      "url": "Coverage/baaa25dc-38f5-4d26-9a92-5aac9d16e448"
    }
  }, {
    "fullUrl": "https://madie.cms.gov/Organization/a6412057-1422-4262-b3f3-d8ff9683973e",
    "resource": {
      "resourceType": "Organization",
      "id": "a6412057-1422-4262-b3f3-d8ff9683973e",
      "meta": {
        "profile": [ "http://hl7.org/fhir/us/qicore/StructureDefinition/qicore-organization" ]
      },
      "identifier": [ {
        "use": "temp",
        "system": "urn:oid:2.16.840.1.113883.4.4",
        "value": "21-3259825"
      } ],
      "active": true,
      "type": [ {
        "coding": [ {
          "system": "http://terminology.hl7.org/CodeSystem/organization-type",
          "code": "pay",
          "display": "Payer"
        } ]
      } ],
      "name": "Blue Cross Blue Shield of Texas",
      "telecom": [ {
        "system": "phone",
        "value": "(+1) 972-766-6900"
      } ],
      "address": [ {
        "use": "billing",
        "type": "postal",
        "line": [ "P.O. Box 660044" ],
        "city": "Dallas",
        "state": "TX",
        "postalCode": "75266-0044",
        "country": "USA"
      } ]
    },
    "request": {
      "method": "PUT",
      "url": "Organization/a6412057-1422-4262-b3f3-d8ff9683973e"
    }
  }, {
    "fullUrl": "https://madie.cms.gov/Practitioner/be414d4c-bbeb-4810-89ad-6a32edef9ece",
    "resource": {
      "resourceType": "Practitioner",
      "id": "be414d4c-bbeb-4810-89ad-6a32edef9ece",
      "meta": {
        "profile": [ "http://hl7.org/fhir/us/qicore/StructureDefinition/qicore-practitioner" ]
      },
      "identifier": [ {
        "system": "http://hl7.org/fhir/sid/us-npi",
        "value": "1234567890"
      } ],
      "name": [ {
        "family": "Evil",
        "prefix": [ "Dr" ]
      } ]
    },
    "request": {
      "method": "PUT",
      "url": "Practitioner/be414d4c-bbeb-4810-89ad-6a32edef9ece"
    }
  }, {
    "fullUrl": "https://madie.cms.gov/MeasureReport/84f38ca9-7a60-4923-86b3-ca2801783b8f",
    "resource": {
      "resourceType": "MeasureReport",
      "id": "84f38ca9-7a60-4923-86b3-ca2801783b8f",
      "meta": {
        "profile": [ "http://hl7.org/fhir/us/cqfmeasures/StructureDefinition/test-case-cqfm" ]
      },
      "contained": [ {
        "resourceType": "Parameters",
        "id": "cb979265-2712-4793-8043-f002cda641b1-parameters",
        "parameter": [ {
          "name": "subject",
          "valueString": "85099d00-576e-495a-97de-b1cd5d4377cf"
        } ]
      } ],
      "extension": [ {
        "url": "http://hl7.org/fhir/StructureDefinition/cqf-inputParameters",
        "valueReference": {
          "reference": "#cb979265-2712-4793-8043-f002cda641b1-parameters"
        }
      }, {
        "url": "http://hl7.org/fhir/us/cqfmeasures/StructureDefinition/cqfm-testCaseDescription",
        "valueMarkdown": "Parity=0, Rel date/time before 42 weeks 1min prior to delivery  date/time.  \n"
      } ],
      "modifierExtension": [ {
        "url": "http://hl7.org/fhir/us/cqfmeasures/StructureDefinition/cqfm-isTestCase",
        "valueBoolean": true
      } ],
      "status": "complete",
      "type": "individual",
      "measure": "https://madie.cms.gov/Measure/CMS0334FHIRPCCesareanBirth",
      "period": {
        "start": "2026-01-01",
        "end": "2026-12-31"
      },
      "group": [ {
        "id": "Group_1",
        "population": [ {
          "id": "InitialPopulation_1",
          "code": {
            "coding": [ {
              "system": "http://terminology.hl7.org/CodeSystem/measure-population",
              "code": "initial-population",
              "display": "Initial Population"
            } ]
          },
          "count": 1
        }, {
          "id": "Denominator_1",
          "code": {
            "coding": [ {
              "system": "http://terminology.hl7.org/CodeSystem/measure-population",
              "code": "denominator",
              "display": "Denominator"
            } ]
          },
          "count": 0
        }, {
          "id": "DenominatorExclusion_1",
          "code": {
            "coding": [ {
              "system": "http://terminology.hl7.org/CodeSystem/measure-population",
              "code": "denominator-exclusion",
              "display": "Denominator Exclusion"
            } ]
          },
          "count": 0
        }, {
          "id": "Numerator_1",
          "code": {
            "coding": [ {
              "system": "http://terminology.hl7.org/CodeSystem/measure-population",
              "code": "numerator",
              "display": "Numerator"
            } ]
          },
          "count": 0
        } ],
        "measureScore": {
          "value": 0.0
        }
      } ],
      "evaluatedResource": [ {
        "reference": "Patient/85099d00-576e-495a-97de-b1cd5d4377cf"
      }, {
        "reference": "Observation/53aa23ab-9c47-4aa4-a3b4-a17de0d465a6"
      }, {
        "reference": "Observation/aaa078cb-c017-41ed-aad2-a5f153fd2f77"
      }, {
        "reference": "Observation/8811ccd3-7660-4f27-b62a-40205cac2adf"
      }, {
        "reference": "Encounter/503ad096-c2d9-4a5c-992a-3427239829d7"
      }, {
        "reference": "Procedure/9aca61a3-a15f-4343-ad56-bbc015ca8136"
      }, {
        "reference": "Condition/9b71a468-f752-435a-a9aa-4c0198ab4eb4"
      }, {
        "reference": "Coverage/baaa25dc-38f5-4d26-9a92-5aac9d16e448"
      }, {
        "reference": "Organization/a6412057-1422-4262-b3f3-d8ff9683973e"
      }, {
        "reference": "Practitioner/be414d4c-bbeb-4810-89ad-6a32edef9ece"
      } ]
    },
    "request": {
      "method": "PUT",
      "url": "MeasureReport/84f38ca9-7a60-4923-86b3-ca2801783b8f"
    }
  } ]
}