{
  "resourceType": "Bundle",
  "id": "465460341631",
  "type": "transaction",
  "entry": [ {
    "fullUrl": "https://madie.cms.gov/Patient/767d95ff-7723-4059-aed9-410c57143fa9",
    "resource": {
      "resourceType": "Patient",
      "id": "767d95ff-7723-4059-aed9-410c57143fa9",
      "meta": {
        "profile": [ "http://hl7.org/fhir/us/qicore/StructureDefinition/qicore-patient" ]
      },
      "extension": [ {
        "url": "http://hl7.org/fhir/us/core/StructureDefinition/us-core-race",
        "extension": [ {
          "url": "ombCategory",
          "valueCoding": {
            "system": "urn:oid:2.16.840.1.113883.6.238",
            "code": "2106-3",
            "display": "White"
          }
        }, {
          "url": "text",
          "valueString": "White"
        } ]
      }, {
        "url": "http://hl7.org/fhir/us/core/StructureDefinition/us-core-ethnicity",
        "extension": [ {
          "url": "ombCategory",
          "valueCoding": {
            "system": "urn:oid:2.16.840.1.113883.6.238",
            "code": "2186-5",
            "display": "Not Hispanic or Latino"
          }
        }, {
          "url": "text",
          "valueString": "Not Hispanic or Latino"
        } ]
      } ],
      "identifier": [ {
        "type": {
          "coding": [ {
            "system": "http://terminology.hl7.org/CodeSystem/v2-0203",
            "code": "MR"
          } ]
        },
        "system": "https://bonnie-fhir.healthit.gov/",
        "value": "41835164313131"
      } ],
      "name": [ {
        "family": "IPFail",
        "given": [ "OV1DayPriorToMP" ]
      } ],
      "gender": "male",
      "birthDate": "1926-04-01"
    },
    "request": {
      "method": "PUT",
      "url": "Patient/767d95ff-7723-4059-aed9-410c57143fa9"
    }
  }, {
    "fullUrl": "https://madie.cms.gov/Encounter/cf9c7a58-92c4-4699-ae83-7e5052a41f31",
    "resource": {
      "resourceType": "Encounter",
      "id": "cf9c7a58-92c4-4699-ae83-7e5052a41f31",
      "meta": {
        "profile": [ "http://hl7.org/fhir/us/qicore/StructureDefinition/qicore-encounter" ]
      },
      "status": "finished",
      "class": {
        "system": "http://terminology.hl7.org/CodeSystem/v3-ActCode",
        "code": "AMB",
        "display": "ambulatory"
      },
      "type": [ {
        "coding": [ {
          "system": "http://www.ama-assn.org/go/cpt",
          "version": "2024",
          "code": "99213",
          "display": "Established patient office or other outpatient visit, 20-29 minutes"
        } ]
      } ],
      "subject": {
        "reference": "Patient/767d95ff-7723-4059-aed9-410c57143fa9"
      },
      "period": {
        "start": "2025-12-31T08:00:00.000+00:00",
        "end": "2025-12-31T08:15:00.000+00:00"
      }
    },
    "request": {
      "method": "PUT",
      "url": "Encounter/cf9c7a58-92c4-4699-ae83-7e5052a41f31"
    }
  }, {
    "fullUrl": "https://madie.cms.gov/Condition/53d02166-e112-4b85-8893-5bc2b7173301",
    "resource": {
      "resourceType": "Condition",
      "id": "53d02166-e112-4b85-8893-5bc2b7173301",
      "meta": {
        "profile": [ "http://hl7.org/fhir/us/qicore/StructureDefinition/qicore-condition-problems-health-concerns" ]
      },
      "clinicalStatus": {
        "coding": [ {
          "system": "http://terminology.hl7.org/CodeSystem/condition-clinical",
          "code": "active",
          "display": "Active"
        } ]
      },
      "verificationStatus": {
        "coding": [ {
          "system": "http://terminology.hl7.org/CodeSystem/condition-ver-status",
          "code": "confirmed",
          "display": "Confirmed"
        } ]
      },
      "category": [ {
        "coding": [ {
          "system": "http://terminology.hl7.org/CodeSystem/condition-category",
          "code": "problem-list-item",
          "display": "Problem List Item"
        } ]
      } ],
      "code": {
        "coding": [ {
          "system": "http://hl7.org/fhir/sid/icd-10-cm",
          "version": "2024",
          "code": "C67.1",
          "display": "Malignant neoplasm of dome of bladder"
        } ]
      },
      "subject": {
        "reference": "Patient/767d95ff-7723-4059-aed9-410c57143fa9"
      },
      "onsetDateTime": "2025-12-20T08:00:00.000+00:00"
    },
    "request": {
      "method": "PUT",
      "url": "Condition/53d02166-e112-4b85-8893-5bc2b7173301"
    }
  }, {
    "fullUrl": "https://madie.cms.gov/Observation/b214ce02-ce83-4a2d-b71e-32d97dd8d0be",
    "resource": {
      "resourceType": "Observation",
      "id": "b214ce02-ce83-4a2d-b71e-32d97dd8d0be",
      "meta": {
        "profile": [ "http://hl7.org/fhir/us/qicore/StructureDefinition/qicore-observation-lab" ]
      },
      "partOf": [ {
        "reference": "Procedure/a36d43ff-d684-428b-b2cb-13d0ae1935a0"
      } ],
      "status": "final",
      "category": [ {
        "coding": [ {
          "system": "http://terminology.hl7.org/CodeSystem/observation-category",
          "code": "procedure",
          "display": "Procedure"
        } ]
      } ],
      "code": {
        "coding": [ {
          "system": "http://loinc.org",
          "version": "2.76",
          "code": "21902-2",
          "display": "Stage group.pathology Cancer"
        } ]
      },
      "subject": {
        "reference": "Patient/767d95ff-7723-4059-aed9-410c57143fa9"
      },
      "effectivePeriod": {
        "start": "2025-12-22T08:00:00.000+00:00",
        "end": "2025-12-22T08:15:00.000+00:00"
      },
      "issued": "2025-12-22T08:15:00.000+00:00",
      "valueCodeableConcept": {
        "coding": [ {
          "system": "http://snomed.info/sct",
          "version": "http://snomed.info/sct/731000124108/version/20240301",
          "code": "369935001",
          "display": "T1: Urinary tract tumor invades subepithelial connective tissue (finding)"
        } ]
      }
    },
    "request": {
      "method": "PUT",
      "url": "Observation/b214ce02-ce83-4a2d-b71e-32d97dd8d0be"
    }
  }, {
    "fullUrl": "https://madie.cms.gov/Procedure/a36d43ff-d684-428b-b2cb-13d0ae1935a0",
    "resource": {
      "resourceType": "Procedure",
      "id": "a36d43ff-d684-428b-b2cb-13d0ae1935a0",
      "meta": {
        "profile": [ "http://hl7.org/fhir/us/qicore/StructureDefinition/qicore-procedure" ]
      },
      "extension": [ {
        "url": "http://hl7.org/fhir/us/qicore/StructureDefinition/qicore-recorded",
        "valueDateTime": "2025-12-22T08:00:00.000+00:00"
      } ],
      "status": "completed",
      "code": {
        "coding": [ {
          "system": "http://snomed.info/sct",
          "version": "http://snomed.info/sct/731000124108/version/20240301",
          "code": "254292007",
          "display": "Tumor staging"
        } ]
      },
      "subject": {
        "reference": "Patient/767d95ff-7723-4059-aed9-410c57143fa9"
      },
      "performedPeriod": {
        "start": "2025-12-22T08:00:00.000+00:00",
        "end": "2025-12-22T08:15:00.000+00:00"
      }
    },
    "request": {
      "method": "PUT",
      "url": "Procedure/a36d43ff-d684-428b-b2cb-13d0ae1935a0"
    }
  }, {
    "fullUrl": "https://madie.cms.gov/MeasureReport/0d22d055-1aa3-4524-8fbe-5ea3c314b5e2",
    "resource": {
      "resourceType": "MeasureReport",
      "id": "0d22d055-1aa3-4524-8fbe-5ea3c314b5e2",
      "meta": {
        "profile": [ "http://hl7.org/fhir/us/cqfmeasures/StructureDefinition/test-case-cqfm" ]
      },
      "contained": [ {
        "resourceType": "Parameters",
        "id": "4a9a6527-8457-4d03-978c-ba7f2d919281-parameters",
        "parameter": [ {
          "name": "subject",
          "valueString": "767d95ff-7723-4059-aed9-410c57143fa9"
        } ]
      } ],
      "extension": [ {
        "url": "http://hl7.org/fhir/StructureDefinition/cqf-inputParameters",
        "valueReference": {
          "reference": "#4a9a6527-8457-4d03-978c-ba7f2d919281-parameters"
        }
      }, {
        "url": "http://hl7.org/fhir/us/cqfmeasures/StructureDefinition/cqfm-testCaseDescription",
        "valueMarkdown": "Patient has Bladder Cancer and Bladder Cancer staging ,but office visit is 1 day prior to MP"
      } ],
      "modifierExtension": [ {
        "url": "http://hl7.org/fhir/us/cqfmeasures/StructureDefinition/cqfm-isTestCase",
        "valueBoolean": true
      } ],
      "status": "complete",
      "type": "individual",
      "measure": "https://madie.cms.gov/Measure/CMS646FHIRIntravesicalBacillusCalmetteGuerinForBladderCancer",
      "period": {
        "start": "2026-01-01",
        "end": "2026-12-31"
      },
      "group": [ {
        "id": "Group_1",
        "population": [ {
          "id": "InitialPopulation_1",
          "code": {
            "coding": [ {
              "system": "http://terminology.hl7.org/CodeSystem/measure-population",
              "code": "initial-population",
              "display": "Initial Population"
            } ]
          },
          "count": 0
        }, {
          "id": "Denominator_1",
          "code": {
            "coding": [ {
              "system": "http://terminology.hl7.org/CodeSystem/measure-population",
              "code": "denominator",
              "display": "Denominator"
            } ]
          },
          "count": 0
        }, {
          "id": "DenominatorExclusion_1",
          "code": {
            "coding": [ {
              "system": "http://terminology.hl7.org/CodeSystem/measure-population",
              "code": "denominator-exclusion",
              "display": "Denominator Exclusion"
            } ]
          },
          "count": 0
        }, {
          "id": "Numerator_1",
          "code": {
            "coding": [ {
              "system": "http://terminology.hl7.org/CodeSystem/measure-population",
              "code": "numerator",
              "display": "Numerator"
            } ]
          },
          "count": 0
        }, {
          "id": "DenominatorException_1",
          "code": {
            "coding": [ {
              "system": "http://terminology.hl7.org/CodeSystem/measure-population",
              "code": "denominator-exception",
              "display": "Denominator Exception"
            } ]
          },
          "count": 0
        } ],
        "measureScore": {
          "value": 1.0
        }
      } ],
      "evaluatedResource": [ {
        "reference": "Patient/767d95ff-7723-4059-aed9-410c57143fa9"
      }, {
        "reference": "Encounter/cf9c7a58-92c4-4699-ae83-7e5052a41f31"
      }, {
        "reference": "Condition/53d02166-e112-4b85-8893-5bc2b7173301"
      }, {
        "reference": "Observation/b214ce02-ce83-4a2d-b71e-32d97dd8d0be"
      }, {
        "reference": "Procedure/a36d43ff-d684-428b-b2cb-13d0ae1935a0"
      } ]
    },
    "request": {
      "method": "PUT",
      "url": "MeasureReport/0d22d055-1aa3-4524-8fbe-5ea3c314b5e2"
    }
  } ]
}