{"resourceType":"Bundle","id":"tests-326c7237-c7a4-4e1b-bd1d-ba518dc942dd-bundle","type":"transaction","entry":[{"resource":{"resourceType":"Bundle","id":"DENEXPass-HospiceProcedureOverlapsMP","type":"transaction","entry":[{"fullUrl":"https://madie.cms.gov/Patient/326c7237-c7a4-4e1b-bd1d-ba518dc942dd","resource":{"resourceType":"Patient","id":"326c7237-c7a4-4e1b-bd1d-ba518dc942dd","meta":{"profile":["http://hl7.org/fhir/us/qicore/StructureDefinition/qicore-patient"]},"extension":[{"url":"http://hl7.org/fhir/us/core/StructureDefinition/us-core-race","extension":[{"url":"ombCategory","valueCoding":{"system":"urn:oid:2.16.840.1.113883.6.238","code":"2028-9","display":"Asian"}},{"url":"text","valueString":"Asian"}]},{"url":"http://hl7.org/fhir/us/core/StructureDefinition/us-core-ethnicity","extension":[{"url":"ombCategory","valueCoding":{"system":"urn:oid:2.16.840.1.113883.6.238","code":"2135-2","display":"Hispanic or Latino"}},{"url":"text","valueString":"Hispanic or Latino"}]}],"identifier":[{"system":"http://hospital.smarthealthit.org","value":"999999995"}],"name":[{"family":"Bertha","given":["Betty"]}],"gender":"female","birthDate":"2006-01-01"},"request":{"method":"PUT","url":"Patient/326c7237-c7a4-4e1b-bd1d-ba518dc942dd"}},{"fullUrl":"https://madie.cms.gov/Encounter/2d3f64dc-e798-43c8-bb02-b866ee315f31","resource":{"resourceType":"Encounter","id":"2d3f64dc-e798-43c8-bb02-b866ee315f31","meta":{"profile":["http://hl7.org/fhir/us/qicore/StructureDefinition/qicore-encounter"]},"status":"finished","class":{"system":"http://terminology.hl7.org/CodeSystem/v3-ActCode","code":"AMB","display":"ambulatory"},"type":[{"coding":[{"system":"http://www.ada.org/cdt","code":"D0120","display":"periodic oral evaluation - established patient"}]}],"subject":{"reference":"Patient/326c7237-c7a4-4e1b-bd1d-ba518dc942dd"},"period":{"start":"2026-01-01T00:00:00.000Z","end":"2026-01-01T01:15:00.000Z"}},"request":{"method":"PUT","url":"Encounter/2d3f64dc-e798-43c8-bb02-b866ee315f31"}},{"fullUrl":"https://madie.cms.gov/Procedure/60e4c454-834a-416a-97cf-dcd53c317609","resource":{"resourceType":"Procedure","id":"60e4c454-834a-416a-97cf-dcd53c317609","meta":{"profile":["http://hl7.org/fhir/us/qicore/StructureDefinition/qicore-procedure"]},"extension":[{"url":"http://hl7.org/fhir/us/qicore/StructureDefinition/qicore-recorded","valueDateTime":"2025-12-31T23:00:00.000Z"}],"status":"completed","code":{"coding":[{"system":"http://snomed.info/sct","code":"385763009","display":"Hospice care (regime/therapy)"}]},"subject":{"reference":"Patient/326c7237-c7a4-4e1b-bd1d-ba518dc942dd"},"performedPeriod":{"start":"2025-12-31T00:00:00.000Z","end":"2026-01-01T00:00:00.000Z"}},"request":{"method":"PUT","url":"Procedure/60e4c454-834a-416a-97cf-dcd53c317609"}},{"fullUrl":"https://madie.cms.gov/MeasureReport/e213acc8-c3f8-44e7-be8e-dd3830367b22","resource":{"resourceType":"MeasureReport","id":"e213acc8-c3f8-44e7-be8e-dd3830367b22","meta":{"profile":["http://hl7.org/fhir/us/cqfmeasures/StructureDefinition/test-case-cqfm"]},"contained":[{"resourceType":"Parameters","id":"f9255fc7-f41b-428b-9ad5-4bec645ef709-parameters","parameter":[{"name":"subject","valueString":"326c7237-c7a4-4e1b-bd1d-ba518dc942dd"}]}],"extension":[{"url":"http://hl7.org/fhir/StructureDefinition/cqf-inputParameters","valueReference":{"reference":"#f9255fc7-f41b-428b-9ad5-4bec645ef709-parameters"}},{"url":"http://hl7.org/fhir/us/cqfmeasures/StructureDefinition/cqfm-testCaseDescription","valueMarkdown":"Hospice Procedure - For meeting 100% coverage"}],"modifierExtension":[{"url":"http://hl7.org/fhir/us/cqfmeasures/StructureDefinition/cqfm-isTestCase","valueBoolean":true}],"status":"complete","type":"individual","measure":"https://madie.cms.gov/Measure/CMS75FHIRChildrenWhoHaveDentalDecayOrCavities","period":{"start":"2026-01-01","end":"2026-12-31"},"group":[{"id":"Group_1","population":[{"id":"InitialPopulation_1","code":{"coding":[{"system":"http://terminology.hl7.org/CodeSystem/measure-population","code":"initial-population","display":"Initial Population"}]},"count":1},{"id":"Denominator_1","code":{"coding":[{"system":"http://terminology.hl7.org/CodeSystem/measure-population","code":"denominator","display":"Denominator"}]},"count":1},{"id":"DenominatorExclusion_1","code":{"coding":[{"system":"http://terminology.hl7.org/CodeSystem/measure-population","code":"denominator-exclusion","display":"Denominator Exclusion"}]},"count":1},{"id":"Numerator_1","code":{"coding":[{"system":"http://terminology.hl7.org/CodeSystem/measure-population","code":"numerator","display":"Numerator"}]},"count":0}],"measureScore":{"value":1.0}}],"evaluatedResource":[{"reference":"Patient/326c7237-c7a4-4e1b-bd1d-ba518dc942dd"},{"reference":"Encounter/2d3f64dc-e798-43c8-bb02-b866ee315f31"},{"reference":"Procedure/60e4c454-834a-416a-97cf-dcd53c317609"}]},"request":{"method":"PUT","url":"MeasureReport/e213acc8-c3f8-44e7-be8e-dd3830367b22"}}]},"request":{"method":"PUT","url":"Bundle/DENEXPass-HospiceProcedureOverlapsMP"}},{"resource":{"resourceType":"Procedure","id":"60e4c454-834a-416a-97cf-dcd53c317609","meta":{"profile":["http://hl7.org/fhir/us/qicore/StructureDefinition/qicore-procedure"]},"extension":[{"url":"http://hl7.org/fhir/us/qicore/StructureDefinition/qicore-recorded","valueDateTime":"2025-12-31T23:00:00.000Z"}],"status":"completed","code":{"coding":[{"system":"http://snomed.info/sct","code":"385763009","display":"Hospice care (regime/therapy)"}]},"subject":{"reference":"Patient/326c7237-c7a4-4e1b-bd1d-ba518dc942dd"},"performedPeriod":{"start":"2025-12-31T00:00:00.000Z","end":"2026-01-01T00:00:00.000Z"}},"request":{"method":"PUT","url":"Procedure/60e4c454-834a-416a-97cf-dcd53c317609"}},{"resource":{"resourceType":"MeasureReport","id":"e213acc8-c3f8-44e7-be8e-dd3830367b22","meta":{"profile":["http://hl7.org/fhir/us/cqfmeasures/StructureDefinition/test-case-cqfm"]},"contained":[{"resourceType":"Parameters","id":"f9255fc7-f41b-428b-9ad5-4bec645ef709-parameters","parameter":[{"name":"subject","valueString":"326c7237-c7a4-4e1b-bd1d-ba518dc942dd"}]}],"extension":[{"url":"http://hl7.org/fhir/StructureDefinition/cqf-inputParameters","valueReference":{"reference":"#f9255fc7-f41b-428b-9ad5-4bec645ef709-parameters"}},{"url":"http://hl7.org/fhir/us/cqfmeasures/StructureDefinition/cqfm-testCaseDescription","valueMarkdown":"Hospice Procedure - For meeting 100% coverage"}],"modifierExtension":[{"url":"http://hl7.org/fhir/us/cqfmeasures/StructureDefinition/cqfm-isTestCase","valueBoolean":true}],"status":"complete","type":"individual","measure":"https://madie.cms.gov/Measure/CMS75FHIRChildrenWhoHaveDentalDecayOrCavities","period":{"start":"2026-01-01","end":"2026-12-31"},"group":[{"id":"Group_1","population":[{"id":"InitialPopulation_1","code":{"coding":[{"system":"http://terminology.hl7.org/CodeSystem/measure-population","code":"initial-population","display":"Initial Population"}]},"count":1},{"id":"Denominator_1","code":{"coding":[{"system":"http://terminology.hl7.org/CodeSystem/measure-population","code":"denominator","display":"Denominator"}]},"count":1},{"id":"DenominatorExclusion_1","code":{"coding":[{"system":"http://terminology.hl7.org/CodeSystem/measure-population","code":"denominator-exclusion","display":"Denominator Exclusion"}]},"count":1},{"id":"Numerator_1","code":{"coding":[{"system":"http://terminology.hl7.org/CodeSystem/measure-population","code":"numerator","display":"Numerator"}]},"count":0}],"measureScore":{"value":1.0}}],"evaluatedResource":[{"reference":"Patient/326c7237-c7a4-4e1b-bd1d-ba518dc942dd"},{"reference":"Encounter/2d3f64dc-e798-43c8-bb02-b866ee315f31"},{"reference":"Procedure/60e4c454-834a-416a-97cf-dcd53c317609"}]},"request":{"method":"PUT","url":"MeasureReport/e213acc8-c3f8-44e7-be8e-dd3830367b22"}},{"resource":{"resourceType":"Encounter","id":"2d3f64dc-e798-43c8-bb02-b866ee315f31","meta":{"profile":["http://hl7.org/fhir/us/qicore/StructureDefinition/qicore-encounter"]},"status":"finished","class":{"system":"http://terminology.hl7.org/CodeSystem/v3-ActCode","code":"AMB","display":"ambulatory"},"type":[{"coding":[{"system":"http://www.ada.org/cdt","code":"D0120","display":"periodic oral evaluation - established patient"}]}],"subject":{"reference":"Patient/326c7237-c7a4-4e1b-bd1d-ba518dc942dd"},"period":{"start":"2026-01-01T00:00:00.000Z","end":"2026-01-01T01:15:00.000Z"}},"request":{"method":"PUT","url":"Encounter/2d3f64dc-e798-43c8-bb02-b866ee315f31"}},{"resource":{"resourceType":"Patient","id":"326c7237-c7a4-4e1b-bd1d-ba518dc942dd","meta":{"profile":["http://hl7.org/fhir/us/qicore/StructureDefinition/qicore-patient"]},"extension":[{"url":"http://hl7.org/fhir/us/core/StructureDefinition/us-core-race","extension":[{"url":"ombCategory","valueCoding":{"system":"urn:oid:2.16.840.1.113883.6.238","code":"2028-9","display":"Asian"}},{"url":"text","valueString":"Asian"}]},{"url":"http://hl7.org/fhir/us/core/StructureDefinition/us-core-ethnicity","extension":[{"url":"ombCategory","valueCoding":{"system":"urn:oid:2.16.840.1.113883.6.238","code":"2135-2","display":"Hispanic or Latino"}},{"url":"text","valueString":"Hispanic or Latino"}]}],"identifier":[{"system":"http://hospital.smarthealthit.org","value":"999999995"}],"name":[{"family":"Bertha","given":["Betty"]}],"gender":"female","birthDate":"2006-01-01"},"request":{"method":"PUT","url":"Patient/326c7237-c7a4-4e1b-bd1d-ba518dc942dd"}}]}