{"resourceType":"Bundle","id":"tests-f076026e-a9df-4c3c-acc9-8c3af6845543-bundle","type":"transaction","entry":[{"resource":{"resourceType":"MeasureReport","id":"288e2af1-c879-4fa5-98b3-87fff1bc9f86","meta":{"profile":["http://hl7.org/fhir/us/cqfmeasures/StructureDefinition/test-case-cqfm"]},"contained":[{"resourceType":"Parameters","id":"eb893d8b-51c8-4364-b3f8-d958c8d091a0-parameters","parameter":[{"name":"subject","valueString":"f076026e-a9df-4c3c-acc9-8c3af6845543"}]}],"extension":[{"url":"http://hl7.org/fhir/StructureDefinition/cqf-inputParameters","valueReference":{"reference":"#eb893d8b-51c8-4364-b3f8-d958c8d091a0-parameters"}},{"url":"http://hl7.org/fhir/us/cqfmeasures/StructureDefinition/cqfm-testCaseDescription","valueMarkdown":"Patient 20yo w/ an Oral Evaluation Encounter 1/1 of the MP & Dental Caries Condition that ends on 1/1 during the MP."}],"modifierExtension":[{"url":"http://hl7.org/fhir/us/cqfmeasures/StructureDefinition/cqfm-isTestCase","valueBoolean":true}],"status":"complete","type":"individual","measure":"https://madie.cms.gov/Measure/CMS75FHIRChildrenWhoHaveDentalDecayOrCavities","period":{"start":"2026-01-01","end":"2026-12-31"},"group":[{"id":"Group_1","population":[{"id":"InitialPopulation_1","code":{"coding":[{"system":"http://terminology.hl7.org/CodeSystem/measure-population","code":"initial-population","display":"Initial Population"}]},"count":1},{"id":"Denominator_1","code":{"coding":[{"system":"http://terminology.hl7.org/CodeSystem/measure-population","code":"denominator","display":"Denominator"}]},"count":1},{"id":"DenominatorExclusion_1","code":{"coding":[{"system":"http://terminology.hl7.org/CodeSystem/measure-population","code":"denominator-exclusion","display":"Denominator Exclusion"}]},"count":0},{"id":"Numerator_1","code":{"coding":[{"system":"http://terminology.hl7.org/CodeSystem/measure-population","code":"numerator","display":"Numerator"}]},"count":1}],"measureScore":{"value":1.0}}],"evaluatedResource":[{"reference":"Patient/f076026e-a9df-4c3c-acc9-8c3af6845543"},{"reference":"Encounter/aad943b9-7f22-47d1-9d53-7f729b53862c"},{"reference":"Condition/d2e27493-9e50-4481-b2da-f4d5f8042fac"},{"reference":"Condition/d2e27493-9e50-4481-b2da-f4d5f8042fac"}]},"request":{"method":"PUT","url":"MeasureReport/288e2af1-c879-4fa5-98b3-87fff1bc9f86"}},{"resource":{"resourceType":"Patient","id":"f076026e-a9df-4c3c-acc9-8c3af6845543","meta":{"profile":["http://hl7.org/fhir/us/qicore/StructureDefinition/qicore-patient"]},"extension":[{"url":"http://hl7.org/fhir/us/core/StructureDefinition/us-core-race","extension":[{"url":"ombCategory","valueCoding":{"system":"urn:oid:2.16.840.1.113883.6.238","code":"2028-9","display":"Asian"}},{"url":"text","valueString":"Asian"}]},{"url":"http://hl7.org/fhir/us/core/StructureDefinition/us-core-ethnicity","extension":[{"url":"ombCategory","valueCoding":{"system":"urn:oid:2.16.840.1.113883.6.238","code":"2135-2","display":"Hispanic or Latino"}},{"url":"text","valueString":"Hispanic or Latino"}]}],"identifier":[{"system":"http://hospital.smarthealthit.org","value":"999999995"}],"name":[{"family":"Bertha","given":["Betty"]}],"gender":"female","birthDate":"2006-01-01"},"request":{"method":"PUT","url":"Patient/f076026e-a9df-4c3c-acc9-8c3af6845543"}},{"resource":{"resourceType":"Bundle","id":"NUMPass-DentalCariesCondEndsJan1OfMP","type":"transaction","entry":[{"fullUrl":"https://madie.cms.gov/Patient/f076026e-a9df-4c3c-acc9-8c3af6845543","resource":{"resourceType":"Patient","id":"f076026e-a9df-4c3c-acc9-8c3af6845543","meta":{"profile":["http://hl7.org/fhir/us/qicore/StructureDefinition/qicore-patient"]},"extension":[{"url":"http://hl7.org/fhir/us/core/StructureDefinition/us-core-race","extension":[{"url":"ombCategory","valueCoding":{"system":"urn:oid:2.16.840.1.113883.6.238","code":"2028-9","display":"Asian"}},{"url":"text","valueString":"Asian"}]},{"url":"http://hl7.org/fhir/us/core/StructureDefinition/us-core-ethnicity","extension":[{"url":"ombCategory","valueCoding":{"system":"urn:oid:2.16.840.1.113883.6.238","code":"2135-2","display":"Hispanic or Latino"}},{"url":"text","valueString":"Hispanic or Latino"}]}],"identifier":[{"system":"http://hospital.smarthealthit.org","value":"999999995"}],"name":[{"family":"Bertha","given":["Betty"]}],"gender":"female","birthDate":"2006-01-01"},"request":{"method":"PUT","url":"Patient/f076026e-a9df-4c3c-acc9-8c3af6845543"}},{"fullUrl":"https://madie.cms.gov/Encounter/aad943b9-7f22-47d1-9d53-7f729b53862c","resource":{"resourceType":"Encounter","id":"aad943b9-7f22-47d1-9d53-7f729b53862c","meta":{"profile":["http://hl7.org/fhir/us/qicore/StructureDefinition/qicore-encounter"]},"status":"finished","class":{"system":"http://terminology.hl7.org/CodeSystem/v3-ActCode","code":"AMB","display":"ambulatory"},"type":[{"coding":[{"system":"http://www.ada.org/cdt","code":"D0120","display":"periodic oral evaluation - established patient"}]}],"subject":{"reference":"Patient/f076026e-a9df-4c3c-acc9-8c3af6845543"},"period":{"start":"2026-01-01T00:00:00.000Z","end":"2026-01-01T01:15:00.000Z"}},"request":{"method":"PUT","url":"Encounter/aad943b9-7f22-47d1-9d53-7f729b53862c"}},{"fullUrl":"https://madie.cms.gov/Condition/d2e27493-9e50-4481-b2da-f4d5f8042fac","resource":{"resourceType":"Condition","id":"d2e27493-9e50-4481-b2da-f4d5f8042fac","meta":{"profile":["http://hl7.org/fhir/us/qicore/StructureDefinition/qicore-condition-problems-health-concerns"]},"clinicalStatus":{"coding":[{"system":"http://terminology.hl7.org/CodeSystem/condition-clinical","code":"resolved"}]},"category":[{"coding":[{"system":"http://terminology.hl7.org/CodeSystem/condition-category","code":"problem-list-item","display":"Problem List Item"}]}],"code":{"coding":[{"system":"http://snomed.info/sct","code":"109564008","display":"Dental caries associated with enamel hypomineralization (disorder)"}]},"subject":{"reference":"Patient/f076026e-a9df-4c3c-acc9-8c3af6845543"},"onsetDateTime":"2026-01-01T00:00:00.000Z","abatementDateTime":"2026-01-01T00:00:00.000Z"},"request":{"method":"PUT","url":"Condition/d2e27493-9e50-4481-b2da-f4d5f8042fac"}},{"fullUrl":"https://madie.cms.gov/Condition/d2e27493-9e50-4481-b2da-f4d5f8042fac","resource":{"resourceType":"Condition","id":"d2e27493-9e50-4481-b2da-f4d5f8042fac","meta":{"profile":["http://hl7.org/fhir/us/qicore/StructureDefinition/qicore-condition-encounter-diagnosis"]},"clinicalStatus":{"coding":[{"system":"http://terminology.hl7.org/CodeSystem/condition-clinical","code":"resolved"}]},"category":[{"coding":[{"system":"http://terminology.hl7.org/CodeSystem/condition-category","code":"encounter-diagnosis","display":"Encounter Diagnosis"}]}],"code":{"coding":[{"system":"http://snomed.info/sct","code":"109564008","display":"Dental caries associated with enamel hypomineralization (disorder)"}]},"subject":{"reference":"Patient/f076026e-a9df-4c3c-acc9-8c3af6845543"},"onsetDateTime":"2026-01-01T00:00:00.000Z","abatementDateTime":"2026-01-01T00:00:00.000Z"},"request":{"method":"PUT","url":"Condition/d2e27493-9e50-4481-b2da-f4d5f8042fac"}},{"fullUrl":"https://madie.cms.gov/MeasureReport/288e2af1-c879-4fa5-98b3-87fff1bc9f86","resource":{"resourceType":"MeasureReport","id":"288e2af1-c879-4fa5-98b3-87fff1bc9f86","meta":{"profile":["http://hl7.org/fhir/us/cqfmeasures/StructureDefinition/test-case-cqfm"]},"contained":[{"resourceType":"Parameters","id":"eb893d8b-51c8-4364-b3f8-d958c8d091a0-parameters","parameter":[{"name":"subject","valueString":"f076026e-a9df-4c3c-acc9-8c3af6845543"}]}],"extension":[{"url":"http://hl7.org/fhir/StructureDefinition/cqf-inputParameters","valueReference":{"reference":"#eb893d8b-51c8-4364-b3f8-d958c8d091a0-parameters"}},{"url":"http://hl7.org/fhir/us/cqfmeasures/StructureDefinition/cqfm-testCaseDescription","valueMarkdown":"Patient 20yo w/ an Oral Evaluation Encounter 1/1 of the MP & Dental Caries Condition that ends on 1/1 during the MP."}],"modifierExtension":[{"url":"http://hl7.org/fhir/us/cqfmeasures/StructureDefinition/cqfm-isTestCase","valueBoolean":true}],"status":"complete","type":"individual","measure":"https://madie.cms.gov/Measure/CMS75FHIRChildrenWhoHaveDentalDecayOrCavities","period":{"start":"2026-01-01","end":"2026-12-31"},"group":[{"id":"Group_1","population":[{"id":"InitialPopulation_1","code":{"coding":[{"system":"http://terminology.hl7.org/CodeSystem/measure-population","code":"initial-population","display":"Initial Population"}]},"count":1},{"id":"Denominator_1","code":{"coding":[{"system":"http://terminology.hl7.org/CodeSystem/measure-population","code":"denominator","display":"Denominator"}]},"count":1},{"id":"DenominatorExclusion_1","code":{"coding":[{"system":"http://terminology.hl7.org/CodeSystem/measure-population","code":"denominator-exclusion","display":"Denominator Exclusion"}]},"count":0},{"id":"Numerator_1","code":{"coding":[{"system":"http://terminology.hl7.org/CodeSystem/measure-population","code":"numerator","display":"Numerator"}]},"count":1}],"measureScore":{"value":1.0}}],"evaluatedResource":[{"reference":"Patient/f076026e-a9df-4c3c-acc9-8c3af6845543"},{"reference":"Encounter/aad943b9-7f22-47d1-9d53-7f729b53862c"},{"reference":"Condition/d2e27493-9e50-4481-b2da-f4d5f8042fac"},{"reference":"Condition/d2e27493-9e50-4481-b2da-f4d5f8042fac"}]},"request":{"method":"PUT","url":"MeasureReport/288e2af1-c879-4fa5-98b3-87fff1bc9f86"}}]},"request":{"method":"PUT","url":"Bundle/NUMPass-DentalCariesCondEndsJan1OfMP"}},{"resource":{"resourceType":"Encounter","id":"aad943b9-7f22-47d1-9d53-7f729b53862c","meta":{"profile":["http://hl7.org/fhir/us/qicore/StructureDefinition/qicore-encounter"]},"status":"finished","class":{"system":"http://terminology.hl7.org/CodeSystem/v3-ActCode","code":"AMB","display":"ambulatory"},"type":[{"coding":[{"system":"http://www.ada.org/cdt","code":"D0120","display":"periodic oral evaluation - established patient"}]}],"subject":{"reference":"Patient/f076026e-a9df-4c3c-acc9-8c3af6845543"},"period":{"start":"2026-01-01T00:00:00.000Z","end":"2026-01-01T01:15:00.000Z"}},"request":{"method":"PUT","url":"Encounter/aad943b9-7f22-47d1-9d53-7f729b53862c"}},{"resource":{"resourceType":"Condition","id":"d2e27493-9e50-4481-b2da-f4d5f8042fac","meta":{"profile":["http://hl7.org/fhir/us/qicore/StructureDefinition/qicore-condition-encounter-diagnosis"]},"clinicalStatus":{"coding":[{"system":"http://terminology.hl7.org/CodeSystem/condition-clinical","code":"resolved"}]},"category":[{"coding":[{"system":"http://terminology.hl7.org/CodeSystem/condition-category","code":"encounter-diagnosis","display":"Encounter Diagnosis"}]}],"code":{"coding":[{"system":"http://snomed.info/sct","code":"109564008","display":"Dental caries associated with enamel hypomineralization (disorder)"}]},"subject":{"reference":"Patient/f076026e-a9df-4c3c-acc9-8c3af6845543"},"onsetDateTime":"2026-01-01T00:00:00.000Z","abatementDateTime":"2026-01-01T00:00:00.000Z"},"request":{"method":"PUT","url":"Condition/d2e27493-9e50-4481-b2da-f4d5f8042fac"}}]}