{"resourceType":"Bundle","id":"tests-d1b991a9-34a5-4926-8b52-694e5bc41bae-bundle","type":"transaction","entry":[{"fullUrl":"Encounter/52ea1bad-3c3f-473f-990f-30f5a026b096","resource":{"resourceType":"Encounter","id":"52ea1bad-3c3f-473f-990f-30f5a026b096","meta":{"profile":["http://hl7.org/fhir/us/qicore/StructureDefinition/qicore-encounter"]},"status":"finished","class":{"system":"http://terminology.hl7.org/CodeSystem/v3-ActCode","code":"AMB","display":"ambulatory"},"type":[{"coding":[{"system":"http://www.ada.org/cdt","code":"D0120","display":"periodic oral evaluation - established patient"}]}],"subject":{"reference":"Patient/d1b991a9-34a5-4926-8b52-694e5bc41bae"},"period":{"start":"2025-12-31T23:59:59.000Z","end":"2025-12-31T23:59:59.000Z"}},"request":{"method":"PUT","url":"Encounter/52ea1bad-3c3f-473f-990f-30f5a026b096"}},{"fullUrl":"Bundle/IPFail-20yrsWithOralEvalEncDec31B4MP","resource":{"resourceType":"Bundle","id":"IPFail-20yrsWithOralEvalEncDec31B4MP","type":"transaction","entry":[{"fullUrl":"https://madie.cms.gov/Patient/d1b991a9-34a5-4926-8b52-694e5bc41bae","resource":{"resourceType":"Patient","id":"d1b991a9-34a5-4926-8b52-694e5bc41bae","meta":{"profile":["http://hl7.org/fhir/us/qicore/StructureDefinition/qicore-patient"]},"extension":[{"url":"http://hl7.org/fhir/us/core/StructureDefinition/us-core-race","extension":[{"url":"ombCategory","valueCoding":{"system":"urn:oid:2.16.840.1.113883.6.238","code":"2028-9","display":"Asian"}},{"url":"text","valueString":"Asian"}]},{"url":"http://hl7.org/fhir/us/core/StructureDefinition/us-core-ethnicity","extension":[{"url":"ombCategory","valueCoding":{"system":"urn:oid:2.16.840.1.113883.6.238","code":"2135-2","display":"Hispanic or Latino"}},{"url":"text","valueString":"Hispanic or Latino"}]}],"identifier":[{"system":"http://hospital.smarthealthit.org","value":"999999995"}],"name":[{"family":"Bertha","given":["Betty"]}],"gender":"female","birthDate":"2006-01-01"},"request":{"method":"PUT","url":"Patient/d1b991a9-34a5-4926-8b52-694e5bc41bae"}},{"fullUrl":"https://madie.cms.gov/Encounter/52ea1bad-3c3f-473f-990f-30f5a026b096","resource":{"resourceType":"Encounter","id":"52ea1bad-3c3f-473f-990f-30f5a026b096","meta":{"profile":["http://hl7.org/fhir/us/qicore/StructureDefinition/qicore-encounter"]},"status":"finished","class":{"system":"http://terminology.hl7.org/CodeSystem/v3-ActCode","code":"AMB","display":"ambulatory"},"type":[{"coding":[{"system":"http://www.ada.org/cdt","code":"D0120","display":"periodic oral evaluation - established patient"}]}],"subject":{"reference":"Patient/d1b991a9-34a5-4926-8b52-694e5bc41bae"},"period":{"start":"2025-12-31T23:59:59.000Z","end":"2025-12-31T23:59:59.000Z"}},"request":{"method":"PUT","url":"Encounter/52ea1bad-3c3f-473f-990f-30f5a026b096"}},{"fullUrl":"https://madie.cms.gov/MeasureReport/8b0fec4f-fd40-492b-93b1-ba0699dcc012","resource":{"resourceType":"MeasureReport","id":"8b0fec4f-fd40-492b-93b1-ba0699dcc012","meta":{"profile":["http://hl7.org/fhir/us/cqfmeasures/StructureDefinition/test-case-cqfm"]},"contained":[{"resourceType":"Parameters","id":"8e645b6b-718c-4449-a59e-2b73874f015c-parameters","parameter":[{"name":"subject","valueString":"d1b991a9-34a5-4926-8b52-694e5bc41bae"}]}],"extension":[{"url":"http://hl7.org/fhir/StructureDefinition/cqf-inputParameters","valueReference":{"reference":"#8e645b6b-718c-4449-a59e-2b73874f015c-parameters"}},{"url":"http://hl7.org/fhir/us/cqfmeasures/StructureDefinition/cqfm-testCaseDescription","valueMarkdown":"Patient 20yo w/ an Oral Evaluation Encounter 12/31 before the Measurement Period."}],"modifierExtension":[{"url":"http://hl7.org/fhir/us/cqfmeasures/StructureDefinition/cqfm-isTestCase","valueBoolean":true}],"status":"complete","type":"individual","measure":"https://madie.cms.gov/Measure/CMS75FHIRChildrenWhoHaveDentalDecayOrCavities","period":{"start":"2026-01-01","end":"2026-12-31"},"group":[{"id":"Group_1","population":[{"id":"InitialPopulation_1","code":{"coding":[{"system":"http://terminology.hl7.org/CodeSystem/measure-population","code":"initial-population","display":"Initial Population"}]},"count":0},{"id":"Denominator_1","code":{"coding":[{"system":"http://terminology.hl7.org/CodeSystem/measure-population","code":"denominator","display":"Denominator"}]},"count":0},{"id":"DenominatorExclusion_1","code":{"coding":[{"system":"http://terminology.hl7.org/CodeSystem/measure-population","code":"denominator-exclusion","display":"Denominator Exclusion"}]},"count":0},{"id":"Numerator_1","code":{"coding":[{"system":"http://terminology.hl7.org/CodeSystem/measure-population","code":"numerator","display":"Numerator"}]},"count":0}],"measureScore":{"value":1.0}}],"evaluatedResource":[{"reference":"Patient/d1b991a9-34a5-4926-8b52-694e5bc41bae"},{"reference":"Encounter/52ea1bad-3c3f-473f-990f-30f5a026b096"}]},"request":{"method":"PUT","url":"MeasureReport/8b0fec4f-fd40-492b-93b1-ba0699dcc012"}}]},"request":{"method":"PUT","url":"Bundle/IPFail-20yrsWithOralEvalEncDec31B4MP"}},{"fullUrl":"Patient/d1b991a9-34a5-4926-8b52-694e5bc41bae","resource":{"resourceType":"Patient","id":"d1b991a9-34a5-4926-8b52-694e5bc41bae","meta":{"profile":["http://hl7.org/fhir/us/qicore/StructureDefinition/qicore-patient"]},"extension":[{"url":"http://hl7.org/fhir/us/core/StructureDefinition/us-core-race","extension":[{"url":"ombCategory","valueCoding":{"system":"urn:oid:2.16.840.1.113883.6.238","code":"2028-9","display":"Asian"}},{"url":"text","valueString":"Asian"}]},{"url":"http://hl7.org/fhir/us/core/StructureDefinition/us-core-ethnicity","extension":[{"url":"ombCategory","valueCoding":{"system":"urn:oid:2.16.840.1.113883.6.238","code":"2135-2","display":"Hispanic or Latino"}},{"url":"text","valueString":"Hispanic or Latino"}]}],"identifier":[{"system":"http://hospital.smarthealthit.org","value":"999999995"}],"name":[{"family":"Bertha","given":["Betty"]}],"gender":"female","birthDate":"2006-01-01"},"request":{"method":"PUT","url":"Patient/d1b991a9-34a5-4926-8b52-694e5bc41bae"}},{"fullUrl":"MeasureReport/8b0fec4f-fd40-492b-93b1-ba0699dcc012","resource":{"resourceType":"MeasureReport","id":"8b0fec4f-fd40-492b-93b1-ba0699dcc012","meta":{"profile":["http://hl7.org/fhir/us/cqfmeasures/StructureDefinition/test-case-cqfm"]},"contained":[{"resourceType":"Parameters","id":"8e645b6b-718c-4449-a59e-2b73874f015c-parameters","parameter":[{"name":"subject","valueString":"d1b991a9-34a5-4926-8b52-694e5bc41bae"}]}],"extension":[{"url":"http://hl7.org/fhir/StructureDefinition/cqf-inputParameters","valueReference":{"reference":"#8e645b6b-718c-4449-a59e-2b73874f015c-parameters"}},{"url":"http://hl7.org/fhir/us/cqfmeasures/StructureDefinition/cqfm-testCaseDescription","valueMarkdown":"Patient 20yo w/ an Oral Evaluation Encounter 12/31 before the Measurement Period."}],"modifierExtension":[{"url":"http://hl7.org/fhir/us/cqfmeasures/StructureDefinition/cqfm-isTestCase","valueBoolean":true}],"status":"complete","type":"individual","measure":"https://madie.cms.gov/Measure/CMS75FHIRChildrenWhoHaveDentalDecayOrCavities","period":{"start":"2026-01-01","end":"2026-12-31"},"group":[{"id":"Group_1","population":[{"id":"InitialPopulation_1","code":{"coding":[{"system":"http://terminology.hl7.org/CodeSystem/measure-population","code":"initial-population","display":"Initial Population"}]},"count":0},{"id":"Denominator_1","code":{"coding":[{"system":"http://terminology.hl7.org/CodeSystem/measure-population","code":"denominator","display":"Denominator"}]},"count":0},{"id":"DenominatorExclusion_1","code":{"coding":[{"system":"http://terminology.hl7.org/CodeSystem/measure-population","code":"denominator-exclusion","display":"Denominator Exclusion"}]},"count":0},{"id":"Numerator_1","code":{"coding":[{"system":"http://terminology.hl7.org/CodeSystem/measure-population","code":"numerator","display":"Numerator"}]},"count":0}],"measureScore":{"value":1.0}}],"evaluatedResource":[{"reference":"Patient/d1b991a9-34a5-4926-8b52-694e5bc41bae"},{"reference":"Encounter/52ea1bad-3c3f-473f-990f-30f5a026b096"}]},"request":{"method":"PUT","url":"MeasureReport/8b0fec4f-fd40-492b-93b1-ba0699dcc012"}}]}