{"resourceType":"Bundle","id":"tests-bed5f054-2f38-4b02-998f-e7e64012cfb9-bundle","type":"transaction","entry":[{"fullUrl":"Bundle/DENEXFail-HospiceServicesEndOnJan1AfterMP","resource":{"resourceType":"Bundle","id":"DENEXFail-HospiceServicesEndOnJan1AfterMP","type":"transaction","entry":[{"fullUrl":"https://madie.cms.gov/Patient/bed5f054-2f38-4b02-998f-e7e64012cfb9","resource":{"resourceType":"Patient","id":"bed5f054-2f38-4b02-998f-e7e64012cfb9","meta":{"profile":["http://hl7.org/fhir/us/qicore/StructureDefinition/qicore-patient"]},"extension":[{"url":"http://hl7.org/fhir/us/core/StructureDefinition/us-core-race","extension":[{"url":"ombCategory","valueCoding":{"system":"urn:oid:2.16.840.1.113883.6.238","code":"2028-9","display":"Asian"}},{"url":"text","valueString":"Asian"}]},{"url":"http://hl7.org/fhir/us/core/StructureDefinition/us-core-ethnicity","extension":[{"url":"ombCategory","valueCoding":{"system":"urn:oid:2.16.840.1.113883.6.238","code":"2135-2","display":"Hispanic or Latino"}},{"url":"text","valueString":"Hispanic or Latino"}]}],"identifier":[{"system":"http://hospital.smarthealthit.org","value":"999999995"}],"name":[{"family":"Bertha","given":["Betty"]}],"gender":"female","birthDate":"2006-01-01"},"request":{"method":"PUT","url":"Patient/bed5f054-2f38-4b02-998f-e7e64012cfb9"}},{"fullUrl":"https://madie.cms.gov/Encounter/f6954743-75cf-4dec-90a2-2942059083e9","resource":{"resourceType":"Encounter","id":"f6954743-75cf-4dec-90a2-2942059083e9","meta":{"profile":["http://hl7.org/fhir/us/qicore/StructureDefinition/qicore-encounter"]},"status":"finished","class":{"system":"http://terminology.hl7.org/CodeSystem/v3-ActCode","code":"AMB","display":"ambulatory"},"type":[{"coding":[{"system":"http://www.ada.org/cdt","code":"D0120","display":"periodic oral evaluation - established patient"}]}],"subject":{"reference":"Patient/bed5f054-2f38-4b02-998f-e7e64012cfb9"},"period":{"start":"2026-01-01T00:00:00.000Z","end":"2026-01-01T01:15:00.000Z"}},"request":{"method":"PUT","url":"Encounter/f6954743-75cf-4dec-90a2-2942059083e9"}},{"fullUrl":"https://madie.cms.gov/Encounter/f6954743-75cf-4dec-90a2-2942059083e9.1","resource":{"resourceType":"Encounter","id":"f6954743-75cf-4dec-90a2-2942059083e9.1","meta":{"profile":["http://hl7.org/fhir/us/qicore/StructureDefinition/qicore-encounter"]},"status":"finished","class":{"system":"http://terminology.hl7.org/CodeSystem/v3-ActCode","code":"AMB","display":"ambulatory"},"type":[{"coding":[{"system":"http://snomed.info/sct","code":"183452005","display":"Emergency hospital admission (procedure)"}]}],"subject":{"reference":"Patient/bed5f054-2f38-4b02-998f-e7e64012cfb9"},"period":{"start":"2027-01-01T00:00:00.000Z","end":"2027-01-01T01:00:00.000Z"},"hospitalization":{"dischargeDisposition":{"coding":[{"system":"http://snomed.info/sct","code":"428371000124100","display":"Discharge to healthcare facility for hospice care (procedure)"}]}}},"request":{"method":"PUT","url":"Encounter/f6954743-75cf-4dec-90a2-2942059083e9.1"}},{"fullUrl":"https://madie.cms.gov/MeasureReport/b9f130ce-a936-43f1-bd17-c370e862c8da","resource":{"resourceType":"MeasureReport","id":"b9f130ce-a936-43f1-bd17-c370e862c8da","meta":{"profile":["http://hl7.org/fhir/us/cqfmeasures/StructureDefinition/test-case-cqfm"]},"contained":[{"resourceType":"Parameters","id":"ad042ea5-99cd-462d-bdee-f0d72d3fd2f9-parameters","parameter":[{"name":"subject","valueString":"bed5f054-2f38-4b02-998f-e7e64012cfb9"}]}],"extension":[{"url":"http://hl7.org/fhir/StructureDefinition/cqf-inputParameters","valueReference":{"reference":"#ad042ea5-99cd-462d-bdee-f0d72d3fd2f9-parameters"}},{"url":"http://hl7.org/fhir/us/cqfmeasures/StructureDefinition/cqfm-testCaseDescription","valueMarkdown":"Patient 20yo w/ an Oral Evaluation Encounter 1/1 of the MP & Hospice Encounter that ends on 1/1 after the MP.\""}],"modifierExtension":[{"url":"http://hl7.org/fhir/us/cqfmeasures/StructureDefinition/cqfm-isTestCase","valueBoolean":true}],"status":"complete","type":"individual","measure":"https://madie.cms.gov/Measure/CMS75FHIRChildrenWhoHaveDentalDecayOrCavities","period":{"start":"2026-01-01","end":"2026-12-31"},"group":[{"id":"Group_1","population":[{"id":"InitialPopulation_1","code":{"coding":[{"system":"http://terminology.hl7.org/CodeSystem/measure-population","code":"initial-population","display":"Initial Population"}]},"count":1},{"id":"Denominator_1","code":{"coding":[{"system":"http://terminology.hl7.org/CodeSystem/measure-population","code":"denominator","display":"Denominator"}]},"count":1},{"id":"DenominatorExclusion_1","code":{"coding":[{"system":"http://terminology.hl7.org/CodeSystem/measure-population","code":"denominator-exclusion","display":"Denominator Exclusion"}]},"count":0},{"id":"Numerator_1","code":{"coding":[{"system":"http://terminology.hl7.org/CodeSystem/measure-population","code":"numerator","display":"Numerator"}]},"count":0}],"measureScore":{"value":1.0}}],"evaluatedResource":[{"reference":"Patient/bed5f054-2f38-4b02-998f-e7e64012cfb9"},{"reference":"Encounter/f6954743-75cf-4dec-90a2-2942059083e9"},{"reference":"Encounter/f6954743-75cf-4dec-90a2-2942059083e9.1"}]},"request":{"method":"PUT","url":"MeasureReport/b9f130ce-a936-43f1-bd17-c370e862c8da"}}]},"request":{"method":"PUT","url":"Bundle/DENEXFail-HospiceServicesEndOnJan1AfterMP"}},{"fullUrl":"Patient/bed5f054-2f38-4b02-998f-e7e64012cfb9","resource":{"resourceType":"Patient","id":"bed5f054-2f38-4b02-998f-e7e64012cfb9","meta":{"profile":["http://hl7.org/fhir/us/qicore/StructureDefinition/qicore-patient"]},"extension":[{"url":"http://hl7.org/fhir/us/core/StructureDefinition/us-core-race","extension":[{"url":"ombCategory","valueCoding":{"system":"urn:oid:2.16.840.1.113883.6.238","code":"2028-9","display":"Asian"}},{"url":"text","valueString":"Asian"}]},{"url":"http://hl7.org/fhir/us/core/StructureDefinition/us-core-ethnicity","extension":[{"url":"ombCategory","valueCoding":{"system":"urn:oid:2.16.840.1.113883.6.238","code":"2135-2","display":"Hispanic or Latino"}},{"url":"text","valueString":"Hispanic or Latino"}]}],"identifier":[{"system":"http://hospital.smarthealthit.org","value":"999999995"}],"name":[{"family":"Bertha","given":["Betty"]}],"gender":"female","birthDate":"2006-01-01"},"request":{"method":"PUT","url":"Patient/bed5f054-2f38-4b02-998f-e7e64012cfb9"}},{"fullUrl":"MeasureReport/b9f130ce-a936-43f1-bd17-c370e862c8da","resource":{"resourceType":"MeasureReport","id":"b9f130ce-a936-43f1-bd17-c370e862c8da","meta":{"profile":["http://hl7.org/fhir/us/cqfmeasures/StructureDefinition/test-case-cqfm"]},"contained":[{"resourceType":"Parameters","id":"ad042ea5-99cd-462d-bdee-f0d72d3fd2f9-parameters","parameter":[{"name":"subject","valueString":"bed5f054-2f38-4b02-998f-e7e64012cfb9"}]}],"extension":[{"url":"http://hl7.org/fhir/StructureDefinition/cqf-inputParameters","valueReference":{"reference":"#ad042ea5-99cd-462d-bdee-f0d72d3fd2f9-parameters"}},{"url":"http://hl7.org/fhir/us/cqfmeasures/StructureDefinition/cqfm-testCaseDescription","valueMarkdown":"Patient 20yo w/ an Oral Evaluation Encounter 1/1 of the MP & Hospice Encounter that ends on 1/1 after the MP.\""}],"modifierExtension":[{"url":"http://hl7.org/fhir/us/cqfmeasures/StructureDefinition/cqfm-isTestCase","valueBoolean":true}],"status":"complete","type":"individual","measure":"https://madie.cms.gov/Measure/CMS75FHIRChildrenWhoHaveDentalDecayOrCavities","period":{"start":"2026-01-01","end":"2026-12-31"},"group":[{"id":"Group_1","population":[{"id":"InitialPopulation_1","code":{"coding":[{"system":"http://terminology.hl7.org/CodeSystem/measure-population","code":"initial-population","display":"Initial Population"}]},"count":1},{"id":"Denominator_1","code":{"coding":[{"system":"http://terminology.hl7.org/CodeSystem/measure-population","code":"denominator","display":"Denominator"}]},"count":1},{"id":"DenominatorExclusion_1","code":{"coding":[{"system":"http://terminology.hl7.org/CodeSystem/measure-population","code":"denominator-exclusion","display":"Denominator Exclusion"}]},"count":0},{"id":"Numerator_1","code":{"coding":[{"system":"http://terminology.hl7.org/CodeSystem/measure-population","code":"numerator","display":"Numerator"}]},"count":0}],"measureScore":{"value":1.0}}],"evaluatedResource":[{"reference":"Patient/bed5f054-2f38-4b02-998f-e7e64012cfb9"},{"reference":"Encounter/f6954743-75cf-4dec-90a2-2942059083e9"},{"reference":"Encounter/f6954743-75cf-4dec-90a2-2942059083e9.1"}]},"request":{"method":"PUT","url":"MeasureReport/b9f130ce-a936-43f1-bd17-c370e862c8da"}},{"fullUrl":"Encounter/f6954743-75cf-4dec-90a2-2942059083e9.1","resource":{"resourceType":"Encounter","id":"f6954743-75cf-4dec-90a2-2942059083e9.1","meta":{"profile":["http://hl7.org/fhir/us/qicore/StructureDefinition/qicore-encounter"]},"status":"finished","class":{"system":"http://terminology.hl7.org/CodeSystem/v3-ActCode","code":"AMB","display":"ambulatory"},"type":[{"coding":[{"system":"http://snomed.info/sct","code":"183452005","display":"Emergency hospital admission (procedure)"}]}],"subject":{"reference":"Patient/bed5f054-2f38-4b02-998f-e7e64012cfb9"},"period":{"start":"2027-01-01T00:00:00.000Z","end":"2027-01-01T01:00:00.000Z"},"hospitalization":{"dischargeDisposition":{"coding":[{"system":"http://snomed.info/sct","code":"428371000124100","display":"Discharge to healthcare facility for hospice care (procedure)"}]}}},"request":{"method":"PUT","url":"Encounter/f6954743-75cf-4dec-90a2-2942059083e9.1"}},{"fullUrl":"Encounter/f6954743-75cf-4dec-90a2-2942059083e9","resource":{"resourceType":"Encounter","id":"f6954743-75cf-4dec-90a2-2942059083e9","meta":{"profile":["http://hl7.org/fhir/us/qicore/StructureDefinition/qicore-encounter"]},"status":"finished","class":{"system":"http://terminology.hl7.org/CodeSystem/v3-ActCode","code":"AMB","display":"ambulatory"},"type":[{"coding":[{"system":"http://www.ada.org/cdt","code":"D0120","display":"periodic oral evaluation - established patient"}]}],"subject":{"reference":"Patient/bed5f054-2f38-4b02-998f-e7e64012cfb9"},"period":{"start":"2026-01-01T00:00:00.000Z","end":"2026-01-01T01:15:00.000Z"}},"request":{"method":"PUT","url":"Encounter/f6954743-75cf-4dec-90a2-2942059083e9"}}]}