{"resourceType":"Bundle","id":"tests-ebb4d1e8-32af-4811-adc5-f84a7318c5b8-bundle","type":"transaction","entry":[{"resource":{"resourceType":"Encounter","id":"b1dff03f-dfbd-4e7b-b6a0-cabf012dc158.1","meta":{"profile":["http://hl7.org/fhir/us/qicore/StructureDefinition/qicore-encounter"]},"status":"finished","class":{"system":"http://terminology.hl7.org/CodeSystem/v3-ActCode","code":"AMB","display":"ambulatory"},"type":[{"coding":[{"system":"http://snomed.info/sct","code":"183452005","display":"Emergency hospital admission (procedure)"}]}],"subject":{"reference":"Patient/ebb4d1e8-32af-4811-adc5-f84a7318c5b8"},"period":{"start":"2026-01-01T00:00:00.000Z","end":"2026-01-01T01:00:00.000Z"},"hospitalization":{"dischargeDisposition":{"coding":[{"system":"http://snomed.info/sct","code":"428371000124100","display":"Discharge to healthcare facility for hospice care (procedure)"}]}}},"request":{"method":"PUT","url":"Encounter/b1dff03f-dfbd-4e7b-b6a0-cabf012dc158.1"}},{"resource":{"resourceType":"Patient","id":"ebb4d1e8-32af-4811-adc5-f84a7318c5b8","meta":{"profile":["http://hl7.org/fhir/us/qicore/StructureDefinition/qicore-patient"]},"extension":[{"url":"http://hl7.org/fhir/us/core/StructureDefinition/us-core-race","extension":[{"url":"ombCategory","valueCoding":{"system":"urn:oid:2.16.840.1.113883.6.238","code":"2028-9","display":"Asian"}},{"url":"text","valueString":"Asian"}]},{"url":"http://hl7.org/fhir/us/core/StructureDefinition/us-core-ethnicity","extension":[{"url":"ombCategory","valueCoding":{"system":"urn:oid:2.16.840.1.113883.6.238","code":"2135-2","display":"Hispanic or Latino"}},{"url":"text","valueString":"Hispanic or Latino"}]}],"identifier":[{"system":"http://hospital.smarthealthit.org","value":"999999995"}],"name":[{"family":"Bertha","given":["Betty"]}],"gender":"female","birthDate":"2006-01-01"},"request":{"method":"PUT","url":"Patient/ebb4d1e8-32af-4811-adc5-f84a7318c5b8"}},{"resource":{"resourceType":"Bundle","id":"DENEXPass-HospiceServicesEndOnJan1OfMP","type":"transaction","entry":[{"fullUrl":"https://madie.cms.gov/Patient/ebb4d1e8-32af-4811-adc5-f84a7318c5b8","resource":{"resourceType":"Patient","id":"ebb4d1e8-32af-4811-adc5-f84a7318c5b8","meta":{"profile":["http://hl7.org/fhir/us/qicore/StructureDefinition/qicore-patient"]},"extension":[{"url":"http://hl7.org/fhir/us/core/StructureDefinition/us-core-race","extension":[{"url":"ombCategory","valueCoding":{"system":"urn:oid:2.16.840.1.113883.6.238","code":"2028-9","display":"Asian"}},{"url":"text","valueString":"Asian"}]},{"url":"http://hl7.org/fhir/us/core/StructureDefinition/us-core-ethnicity","extension":[{"url":"ombCategory","valueCoding":{"system":"urn:oid:2.16.840.1.113883.6.238","code":"2135-2","display":"Hispanic or Latino"}},{"url":"text","valueString":"Hispanic or Latino"}]}],"identifier":[{"system":"http://hospital.smarthealthit.org","value":"999999995"}],"name":[{"family":"Bertha","given":["Betty"]}],"gender":"female","birthDate":"2006-01-01"},"request":{"method":"PUT","url":"Patient/ebb4d1e8-32af-4811-adc5-f84a7318c5b8"}},{"fullUrl":"https://madie.cms.gov/Encounter/b1dff03f-dfbd-4e7b-b6a0-cabf012dc158","resource":{"resourceType":"Encounter","id":"b1dff03f-dfbd-4e7b-b6a0-cabf012dc158","meta":{"profile":["http://hl7.org/fhir/us/qicore/StructureDefinition/qicore-encounter"]},"status":"finished","class":{"system":"http://terminology.hl7.org/CodeSystem/v3-ActCode","code":"AMB","display":"ambulatory"},"type":[{"coding":[{"system":"http://www.ada.org/cdt","code":"D0120","display":"periodic oral evaluation - established patient"}]}],"subject":{"reference":"Patient/ebb4d1e8-32af-4811-adc5-f84a7318c5b8"},"period":{"start":"2026-01-01T00:00:00.000Z","end":"2026-01-01T01:15:00.000Z"}},"request":{"method":"PUT","url":"Encounter/b1dff03f-dfbd-4e7b-b6a0-cabf012dc158"}},{"fullUrl":"https://madie.cms.gov/Encounter/b1dff03f-dfbd-4e7b-b6a0-cabf012dc158.1","resource":{"resourceType":"Encounter","id":"b1dff03f-dfbd-4e7b-b6a0-cabf012dc158.1","meta":{"profile":["http://hl7.org/fhir/us/qicore/StructureDefinition/qicore-encounter"]},"status":"finished","class":{"system":"http://terminology.hl7.org/CodeSystem/v3-ActCode","code":"AMB","display":"ambulatory"},"type":[{"coding":[{"system":"http://snomed.info/sct","code":"183452005","display":"Emergency hospital admission (procedure)"}]}],"subject":{"reference":"Patient/ebb4d1e8-32af-4811-adc5-f84a7318c5b8"},"period":{"start":"2026-01-01T00:00:00.000Z","end":"2026-01-01T01:00:00.000Z"},"hospitalization":{"dischargeDisposition":{"coding":[{"system":"http://snomed.info/sct","code":"428371000124100","display":"Discharge to healthcare facility for hospice care (procedure)"}]}}},"request":{"method":"PUT","url":"Encounter/b1dff03f-dfbd-4e7b-b6a0-cabf012dc158.1"}},{"fullUrl":"https://madie.cms.gov/MeasureReport/567096e9-858e-4fe2-9a1a-092b5df8c8f1","resource":{"resourceType":"MeasureReport","id":"567096e9-858e-4fe2-9a1a-092b5df8c8f1","meta":{"profile":["http://hl7.org/fhir/us/cqfmeasures/StructureDefinition/test-case-cqfm"]},"contained":[{"resourceType":"Parameters","id":"144a349f-0c69-42cd-9816-7d8a0e182bc3-parameters","parameter":[{"name":"subject","valueString":"ebb4d1e8-32af-4811-adc5-f84a7318c5b8"}]}],"extension":[{"url":"http://hl7.org/fhir/StructureDefinition/cqf-inputParameters","valueReference":{"reference":"#144a349f-0c69-42cd-9816-7d8a0e182bc3-parameters"}},{"url":"http://hl7.org/fhir/us/cqfmeasures/StructureDefinition/cqfm-testCaseDescription","valueMarkdown":"Patient 20yo w/ an Oral Evaluation Encounter 1/1 of the MP & Hospice Encounter that ends on 1/1 during the MP."}],"modifierExtension":[{"url":"http://hl7.org/fhir/us/cqfmeasures/StructureDefinition/cqfm-isTestCase","valueBoolean":true}],"status":"complete","type":"individual","measure":"https://madie.cms.gov/Measure/CMS75FHIRChildrenWhoHaveDentalDecayOrCavities","period":{"start":"2026-01-01","end":"2026-12-31"},"group":[{"id":"Group_1","population":[{"id":"InitialPopulation_1","code":{"coding":[{"system":"http://terminology.hl7.org/CodeSystem/measure-population","code":"initial-population","display":"Initial Population"}]},"count":1},{"id":"Denominator_1","code":{"coding":[{"system":"http://terminology.hl7.org/CodeSystem/measure-population","code":"denominator","display":"Denominator"}]},"count":1},{"id":"DenominatorExclusion_1","code":{"coding":[{"system":"http://terminology.hl7.org/CodeSystem/measure-population","code":"denominator-exclusion","display":"Denominator Exclusion"}]},"count":1},{"id":"Numerator_1","code":{"coding":[{"system":"http://terminology.hl7.org/CodeSystem/measure-population","code":"numerator","display":"Numerator"}]},"count":0}],"measureScore":{"value":1.0}}],"evaluatedResource":[{"reference":"Patient/ebb4d1e8-32af-4811-adc5-f84a7318c5b8"},{"reference":"Encounter/b1dff03f-dfbd-4e7b-b6a0-cabf012dc158"},{"reference":"Encounter/b1dff03f-dfbd-4e7b-b6a0-cabf012dc158.1"}]},"request":{"method":"PUT","url":"MeasureReport/567096e9-858e-4fe2-9a1a-092b5df8c8f1"}}]},"request":{"method":"PUT","url":"Bundle/DENEXPass-HospiceServicesEndOnJan1OfMP"}},{"resource":{"resourceType":"MeasureReport","id":"567096e9-858e-4fe2-9a1a-092b5df8c8f1","meta":{"profile":["http://hl7.org/fhir/us/cqfmeasures/StructureDefinition/test-case-cqfm"]},"contained":[{"resourceType":"Parameters","id":"144a349f-0c69-42cd-9816-7d8a0e182bc3-parameters","parameter":[{"name":"subject","valueString":"ebb4d1e8-32af-4811-adc5-f84a7318c5b8"}]}],"extension":[{"url":"http://hl7.org/fhir/StructureDefinition/cqf-inputParameters","valueReference":{"reference":"#144a349f-0c69-42cd-9816-7d8a0e182bc3-parameters"}},{"url":"http://hl7.org/fhir/us/cqfmeasures/StructureDefinition/cqfm-testCaseDescription","valueMarkdown":"Patient 20yo w/ an Oral Evaluation Encounter 1/1 of the MP & Hospice Encounter that ends on 1/1 during the MP."}],"modifierExtension":[{"url":"http://hl7.org/fhir/us/cqfmeasures/StructureDefinition/cqfm-isTestCase","valueBoolean":true}],"status":"complete","type":"individual","measure":"https://madie.cms.gov/Measure/CMS75FHIRChildrenWhoHaveDentalDecayOrCavities","period":{"start":"2026-01-01","end":"2026-12-31"},"group":[{"id":"Group_1","population":[{"id":"InitialPopulation_1","code":{"coding":[{"system":"http://terminology.hl7.org/CodeSystem/measure-population","code":"initial-population","display":"Initial Population"}]},"count":1},{"id":"Denominator_1","code":{"coding":[{"system":"http://terminology.hl7.org/CodeSystem/measure-population","code":"denominator","display":"Denominator"}]},"count":1},{"id":"DenominatorExclusion_1","code":{"coding":[{"system":"http://terminology.hl7.org/CodeSystem/measure-population","code":"denominator-exclusion","display":"Denominator Exclusion"}]},"count":1},{"id":"Numerator_1","code":{"coding":[{"system":"http://terminology.hl7.org/CodeSystem/measure-population","code":"numerator","display":"Numerator"}]},"count":0}],"measureScore":{"value":1.0}}],"evaluatedResource":[{"reference":"Patient/ebb4d1e8-32af-4811-adc5-f84a7318c5b8"},{"reference":"Encounter/b1dff03f-dfbd-4e7b-b6a0-cabf012dc158"},{"reference":"Encounter/b1dff03f-dfbd-4e7b-b6a0-cabf012dc158.1"}]},"request":{"method":"PUT","url":"MeasureReport/567096e9-858e-4fe2-9a1a-092b5df8c8f1"}},{"resource":{"resourceType":"Encounter","id":"b1dff03f-dfbd-4e7b-b6a0-cabf012dc158","meta":{"profile":["http://hl7.org/fhir/us/qicore/StructureDefinition/qicore-encounter"]},"status":"finished","class":{"system":"http://terminology.hl7.org/CodeSystem/v3-ActCode","code":"AMB","display":"ambulatory"},"type":[{"coding":[{"system":"http://www.ada.org/cdt","code":"D0120","display":"periodic oral evaluation - established patient"}]}],"subject":{"reference":"Patient/ebb4d1e8-32af-4811-adc5-f84a7318c5b8"},"period":{"start":"2026-01-01T00:00:00.000Z","end":"2026-01-01T01:15:00.000Z"}},"request":{"method":"PUT","url":"Encounter/b1dff03f-dfbd-4e7b-b6a0-cabf012dc158"}}]}