{"resourceType":"Bundle","id":"tests-02b613cd-c4f0-431d-8799-2ed39b11785f-bundle","type":"transaction","entry":[{"fullUrl":"Condition/86816a5d-4aea-4480-93c7-5350aebf5d04","resource":{"resourceType":"Condition","id":"86816a5d-4aea-4480-93c7-5350aebf5d04","meta":{"profile":["http://hl7.org/fhir/us/qicore/StructureDefinition/qicore-condition-problems-health-concerns"]},"clinicalStatus":{"coding":[{"system":"http://terminology.hl7.org/CodeSystem/condition-clinical","code":"resolved"}]},"category":[{"coding":[{"system":"http://terminology.hl7.org/CodeSystem/condition-category","code":"problem-list-item","display":"Problem List Item"}]}],"code":{"coding":[{"system":"http://snomed.info/sct","code":"109564008","display":"Dental caries associated with enamel hypomineralization (disorder)"}]},"subject":{"reference":"Patient/02b613cd-c4f0-431d-8799-2ed39b11785f"},"onsetDateTime":"2027-01-01T00:00:00.000Z","abatementDateTime":"2027-01-01T00:00:00.000Z"},"request":{"method":"PUT","url":"Condition/86816a5d-4aea-4480-93c7-5350aebf5d04"}},{"fullUrl":"Encounter/5111f056-0dca-4d73-afe8-6d3d9638d20e","resource":{"resourceType":"Encounter","id":"5111f056-0dca-4d73-afe8-6d3d9638d20e","meta":{"profile":["http://hl7.org/fhir/us/qicore/StructureDefinition/qicore-encounter"]},"status":"finished","class":{"system":"http://terminology.hl7.org/CodeSystem/v3-ActCode","code":"AMB","display":"ambulatory"},"type":[{"coding":[{"system":"http://www.ada.org/cdt","code":"D0120","display":"periodic oral evaluation - established patient"}]}],"subject":{"reference":"Patient/02b613cd-c4f0-431d-8799-2ed39b11785f"},"period":{"start":"2026-01-01T00:00:00.000Z","end":"2026-01-01T01:15:00.000Z"}},"request":{"method":"PUT","url":"Encounter/5111f056-0dca-4d73-afe8-6d3d9638d20e"}},{"fullUrl":"MeasureReport/fdd35f55-d836-4107-b208-192cb4cbeda5","resource":{"resourceType":"MeasureReport","id":"fdd35f55-d836-4107-b208-192cb4cbeda5","meta":{"profile":["http://hl7.org/fhir/us/cqfmeasures/StructureDefinition/test-case-cqfm"]},"contained":[{"resourceType":"Parameters","id":"987bcab5-5505-439d-9b57-280d730d2f7d-parameters","parameter":[{"name":"subject","valueString":"02b613cd-c4f0-431d-8799-2ed39b11785f"}]}],"extension":[{"url":"http://hl7.org/fhir/StructureDefinition/cqf-inputParameters","valueReference":{"reference":"#987bcab5-5505-439d-9b57-280d730d2f7d-parameters"}},{"url":"http://hl7.org/fhir/us/cqfmeasures/StructureDefinition/cqfm-testCaseDescription","valueMarkdown":"Patient 20yo w/ an Oral Evaluation Encounter 1/1 of the MP & Dental Caries Condition that ends on 1/1 after the MP.\""}],"modifierExtension":[{"url":"http://hl7.org/fhir/us/cqfmeasures/StructureDefinition/cqfm-isTestCase","valueBoolean":true}],"status":"complete","type":"individual","measure":"https://madie.cms.gov/Measure/CMS75FHIRChildrenWhoHaveDentalDecayOrCavities","period":{"start":"2026-01-01","end":"2026-12-31"},"group":[{"id":"Group_1","population":[{"id":"InitialPopulation_1","code":{"coding":[{"system":"http://terminology.hl7.org/CodeSystem/measure-population","code":"initial-population","display":"Initial Population"}]},"count":1},{"id":"Denominator_1","code":{"coding":[{"system":"http://terminology.hl7.org/CodeSystem/measure-population","code":"denominator","display":"Denominator"}]},"count":1},{"id":"DenominatorExclusion_1","code":{"coding":[{"system":"http://terminology.hl7.org/CodeSystem/measure-population","code":"denominator-exclusion","display":"Denominator Exclusion"}]},"count":0},{"id":"Numerator_1","code":{"coding":[{"system":"http://terminology.hl7.org/CodeSystem/measure-population","code":"numerator","display":"Numerator"}]},"count":0}],"measureScore":{"value":1.0}}],"evaluatedResource":[{"reference":"Patient/02b613cd-c4f0-431d-8799-2ed39b11785f"},{"reference":"Encounter/5111f056-0dca-4d73-afe8-6d3d9638d20e"},{"reference":"Condition/86816a5d-4aea-4480-93c7-5350aebf5d04"}]},"request":{"method":"PUT","url":"MeasureReport/fdd35f55-d836-4107-b208-192cb4cbeda5"}},{"fullUrl":"Patient/02b613cd-c4f0-431d-8799-2ed39b11785f","resource":{"resourceType":"Patient","id":"02b613cd-c4f0-431d-8799-2ed39b11785f","meta":{"profile":["http://hl7.org/fhir/us/qicore/StructureDefinition/qicore-patient"]},"extension":[{"url":"http://hl7.org/fhir/us/core/StructureDefinition/us-core-race","extension":[{"url":"ombCategory","valueCoding":{"system":"urn:oid:2.16.840.1.113883.6.238","code":"2028-9","display":"Asian"}},{"url":"text","valueString":"Asian"}]},{"url":"http://hl7.org/fhir/us/core/StructureDefinition/us-core-ethnicity","extension":[{"url":"ombCategory","valueCoding":{"system":"urn:oid:2.16.840.1.113883.6.238","code":"2135-2","display":"Hispanic or Latino"}},{"url":"text","valueString":"Hispanic or Latino"}]}],"identifier":[{"system":"http://hospital.smarthealthit.org","value":"999999995"}],"name":[{"family":"Bertha","given":["Betty"]}],"gender":"female","birthDate":"2006-01-01"},"request":{"method":"PUT","url":"Patient/02b613cd-c4f0-431d-8799-2ed39b11785f"}},{"fullUrl":"Bundle/NUMFail-DentalCariesCondEndsJan1AfterMP","resource":{"resourceType":"Bundle","id":"NUMFail-DentalCariesCondEndsJan1AfterMP","type":"transaction","entry":[{"fullUrl":"https://madie.cms.gov/Patient/02b613cd-c4f0-431d-8799-2ed39b11785f","resource":{"resourceType":"Patient","id":"02b613cd-c4f0-431d-8799-2ed39b11785f","meta":{"profile":["http://hl7.org/fhir/us/qicore/StructureDefinition/qicore-patient"]},"extension":[{"url":"http://hl7.org/fhir/us/core/StructureDefinition/us-core-race","extension":[{"url":"ombCategory","valueCoding":{"system":"urn:oid:2.16.840.1.113883.6.238","code":"2028-9","display":"Asian"}},{"url":"text","valueString":"Asian"}]},{"url":"http://hl7.org/fhir/us/core/StructureDefinition/us-core-ethnicity","extension":[{"url":"ombCategory","valueCoding":{"system":"urn:oid:2.16.840.1.113883.6.238","code":"2135-2","display":"Hispanic or Latino"}},{"url":"text","valueString":"Hispanic or Latino"}]}],"identifier":[{"system":"http://hospital.smarthealthit.org","value":"999999995"}],"name":[{"family":"Bertha","given":["Betty"]}],"gender":"female","birthDate":"2006-01-01"},"request":{"method":"PUT","url":"Patient/02b613cd-c4f0-431d-8799-2ed39b11785f"}},{"fullUrl":"https://madie.cms.gov/Encounter/5111f056-0dca-4d73-afe8-6d3d9638d20e","resource":{"resourceType":"Encounter","id":"5111f056-0dca-4d73-afe8-6d3d9638d20e","meta":{"profile":["http://hl7.org/fhir/us/qicore/StructureDefinition/qicore-encounter"]},"status":"finished","class":{"system":"http://terminology.hl7.org/CodeSystem/v3-ActCode","code":"AMB","display":"ambulatory"},"type":[{"coding":[{"system":"http://www.ada.org/cdt","code":"D0120","display":"periodic oral evaluation - established patient"}]}],"subject":{"reference":"Patient/02b613cd-c4f0-431d-8799-2ed39b11785f"},"period":{"start":"2026-01-01T00:00:00.000Z","end":"2026-01-01T01:15:00.000Z"}},"request":{"method":"PUT","url":"Encounter/5111f056-0dca-4d73-afe8-6d3d9638d20e"}},{"fullUrl":"https://madie.cms.gov/Condition/86816a5d-4aea-4480-93c7-5350aebf5d04","resource":{"resourceType":"Condition","id":"86816a5d-4aea-4480-93c7-5350aebf5d04","meta":{"profile":["http://hl7.org/fhir/us/qicore/StructureDefinition/qicore-condition-problems-health-concerns"]},"clinicalStatus":{"coding":[{"system":"http://terminology.hl7.org/CodeSystem/condition-clinical","code":"resolved"}]},"category":[{"coding":[{"system":"http://terminology.hl7.org/CodeSystem/condition-category","code":"problem-list-item","display":"Problem List Item"}]}],"code":{"coding":[{"system":"http://snomed.info/sct","code":"109564008","display":"Dental caries associated with enamel hypomineralization (disorder)"}]},"subject":{"reference":"Patient/02b613cd-c4f0-431d-8799-2ed39b11785f"},"onsetDateTime":"2027-01-01T00:00:00.000Z","abatementDateTime":"2027-01-01T00:00:00.000Z"},"request":{"method":"PUT","url":"Condition/86816a5d-4aea-4480-93c7-5350aebf5d04"}},{"fullUrl":"https://madie.cms.gov/MeasureReport/fdd35f55-d836-4107-b208-192cb4cbeda5","resource":{"resourceType":"MeasureReport","id":"fdd35f55-d836-4107-b208-192cb4cbeda5","meta":{"profile":["http://hl7.org/fhir/us/cqfmeasures/StructureDefinition/test-case-cqfm"]},"contained":[{"resourceType":"Parameters","id":"987bcab5-5505-439d-9b57-280d730d2f7d-parameters","parameter":[{"name":"subject","valueString":"02b613cd-c4f0-431d-8799-2ed39b11785f"}]}],"extension":[{"url":"http://hl7.org/fhir/StructureDefinition/cqf-inputParameters","valueReference":{"reference":"#987bcab5-5505-439d-9b57-280d730d2f7d-parameters"}},{"url":"http://hl7.org/fhir/us/cqfmeasures/StructureDefinition/cqfm-testCaseDescription","valueMarkdown":"Patient 20yo w/ an Oral Evaluation Encounter 1/1 of the MP & Dental Caries Condition that ends on 1/1 after the MP.\""}],"modifierExtension":[{"url":"http://hl7.org/fhir/us/cqfmeasures/StructureDefinition/cqfm-isTestCase","valueBoolean":true}],"status":"complete","type":"individual","measure":"https://madie.cms.gov/Measure/CMS75FHIRChildrenWhoHaveDentalDecayOrCavities","period":{"start":"2026-01-01","end":"2026-12-31"},"group":[{"id":"Group_1","population":[{"id":"InitialPopulation_1","code":{"coding":[{"system":"http://terminology.hl7.org/CodeSystem/measure-population","code":"initial-population","display":"Initial Population"}]},"count":1},{"id":"Denominator_1","code":{"coding":[{"system":"http://terminology.hl7.org/CodeSystem/measure-population","code":"denominator","display":"Denominator"}]},"count":1},{"id":"DenominatorExclusion_1","code":{"coding":[{"system":"http://terminology.hl7.org/CodeSystem/measure-population","code":"denominator-exclusion","display":"Denominator Exclusion"}]},"count":0},{"id":"Numerator_1","code":{"coding":[{"system":"http://terminology.hl7.org/CodeSystem/measure-population","code":"numerator","display":"Numerator"}]},"count":0}],"measureScore":{"value":1.0}}],"evaluatedResource":[{"reference":"Patient/02b613cd-c4f0-431d-8799-2ed39b11785f"},{"reference":"Encounter/5111f056-0dca-4d73-afe8-6d3d9638d20e"},{"reference":"Condition/86816a5d-4aea-4480-93c7-5350aebf5d04"}]},"request":{"method":"PUT","url":"MeasureReport/fdd35f55-d836-4107-b208-192cb4cbeda5"}}]},"request":{"method":"PUT","url":"Bundle/NUMFail-DentalCariesCondEndsJan1AfterMP"}}]}