{"resourceType":"Bundle","id":"tests-a1d949ba-b8dd-453d-8565-f168e027b329-bundle","type":"transaction","entry":[{"fullUrl":"Patient/a1d949ba-b8dd-453d-8565-f168e027b329","resource":{"resourceType":"Patient","id":"a1d949ba-b8dd-453d-8565-f168e027b329","meta":{"profile":["http://hl7.org/fhir/us/qicore/StructureDefinition/qicore-patient"]},"extension":[{"url":"http://hl7.org/fhir/us/core/StructureDefinition/us-core-race","extension":[{"url":"ombCategory","valueCoding":{"system":"urn:oid:2.16.840.1.113883.6.238","code":"2028-9","display":"Asian"}},{"url":"text","valueString":"Asian"}]},{"url":"http://hl7.org/fhir/us/core/StructureDefinition/us-core-ethnicity","extension":[{"url":"ombCategory","valueCoding":{"system":"urn:oid:2.16.840.1.113883.6.238","code":"2135-2","display":"Hispanic or Latino"}},{"url":"text","valueString":"Hispanic or Latino"}]}],"identifier":[{"system":"http://hospital.smarthealthit.org","value":"999999995"}],"name":[{"family":"Bertha","given":["Betty"]}],"gender":"female","birthDate":"2006-01-01"},"request":{"method":"PUT","url":"Patient/a1d949ba-b8dd-453d-8565-f168e027b329"}},{"fullUrl":"Bundle/NUMFail-DentalCariesCondEndsDec31B4MP","resource":{"resourceType":"Bundle","id":"NUMFail-DentalCariesCondEndsDec31B4MP","type":"transaction","entry":[{"fullUrl":"https://madie.cms.gov/Patient/a1d949ba-b8dd-453d-8565-f168e027b329","resource":{"resourceType":"Patient","id":"a1d949ba-b8dd-453d-8565-f168e027b329","meta":{"profile":["http://hl7.org/fhir/us/qicore/StructureDefinition/qicore-patient"]},"extension":[{"url":"http://hl7.org/fhir/us/core/StructureDefinition/us-core-race","extension":[{"url":"ombCategory","valueCoding":{"system":"urn:oid:2.16.840.1.113883.6.238","code":"2028-9","display":"Asian"}},{"url":"text","valueString":"Asian"}]},{"url":"http://hl7.org/fhir/us/core/StructureDefinition/us-core-ethnicity","extension":[{"url":"ombCategory","valueCoding":{"system":"urn:oid:2.16.840.1.113883.6.238","code":"2135-2","display":"Hispanic or Latino"}},{"url":"text","valueString":"Hispanic or Latino"}]}],"identifier":[{"system":"http://hospital.smarthealthit.org","value":"999999995"}],"name":[{"family":"Bertha","given":["Betty"]}],"gender":"female","birthDate":"2006-01-01"},"request":{"method":"PUT","url":"Patient/a1d949ba-b8dd-453d-8565-f168e027b329"}},{"fullUrl":"https://madie.cms.gov/Encounter/77c1d85f-b669-475d-8491-a6d485b34355","resource":{"resourceType":"Encounter","id":"77c1d85f-b669-475d-8491-a6d485b34355","meta":{"profile":["http://hl7.org/fhir/us/qicore/StructureDefinition/qicore-encounter"]},"status":"finished","class":{"system":"http://terminology.hl7.org/CodeSystem/v3-ActCode","code":"AMB","display":"ambulatory"},"type":[{"coding":[{"system":"http://www.ada.org/cdt","code":"D0120","display":"periodic oral evaluation - established patient"}]}],"subject":{"reference":"Patient/a1d949ba-b8dd-453d-8565-f168e027b329"},"period":{"start":"2026-01-01T00:00:00.000Z","end":"2026-01-01T01:15:00.000Z"}},"request":{"method":"PUT","url":"Encounter/77c1d85f-b669-475d-8491-a6d485b34355"}},{"fullUrl":"https://madie.cms.gov/Condition/cc759ff8-1157-4ca2-bc70-4174ccc833fb","resource":{"resourceType":"Condition","id":"cc759ff8-1157-4ca2-bc70-4174ccc833fb","meta":{"profile":["http://hl7.org/fhir/us/qicore/StructureDefinition/qicore-condition-problems-health-concerns"]},"clinicalStatus":{"coding":[{"system":"http://terminology.hl7.org/CodeSystem/condition-clinical","code":"resolved"}]},"category":[{"coding":[{"system":"http://terminology.hl7.org/CodeSystem/condition-category","code":"problem-list-item","display":"Problem List Item"}]}],"code":{"coding":[{"system":"http://snomed.info/sct","code":"109564008","display":"Dental caries associated with enamel hypomineralization (disorder)"}]},"subject":{"reference":"Patient/a1d949ba-b8dd-453d-8565-f168e027b329"},"onsetDateTime":"2025-12-31T23:59:59.000Z","abatementDateTime":"2025-12-31T23:59:59.000Z"},"request":{"method":"PUT","url":"Condition/cc759ff8-1157-4ca2-bc70-4174ccc833fb"}},{"fullUrl":"https://madie.cms.gov/MeasureReport/4c087570-c73a-4e74-bf0b-fc0b47b25106","resource":{"resourceType":"MeasureReport","id":"4c087570-c73a-4e74-bf0b-fc0b47b25106","meta":{"profile":["http://hl7.org/fhir/us/cqfmeasures/StructureDefinition/test-case-cqfm"]},"contained":[{"resourceType":"Parameters","id":"8f73a5e8-a89c-425e-9e0c-54824c0cb8ef-parameters","parameter":[{"name":"subject","valueString":"a1d949ba-b8dd-453d-8565-f168e027b329"}]}],"extension":[{"url":"http://hl7.org/fhir/StructureDefinition/cqf-inputParameters","valueReference":{"reference":"#8f73a5e8-a89c-425e-9e0c-54824c0cb8ef-parameters"}},{"url":"http://hl7.org/fhir/us/cqfmeasures/StructureDefinition/cqfm-testCaseDescription","valueMarkdown":"Patient 20yo w/ an Oral Evaluation Encounter 1/1 of the MP & Dental Caries Condition that ends on 12/31 before the MP."}],"modifierExtension":[{"url":"http://hl7.org/fhir/us/cqfmeasures/StructureDefinition/cqfm-isTestCase","valueBoolean":true}],"status":"complete","type":"individual","measure":"https://madie.cms.gov/Measure/CMS75FHIRChildrenWhoHaveDentalDecayOrCavities","period":{"start":"2026-01-01","end":"2026-12-31"},"group":[{"id":"Group_1","population":[{"id":"InitialPopulation_1","code":{"coding":[{"system":"http://terminology.hl7.org/CodeSystem/measure-population","code":"initial-population","display":"Initial Population"}]},"count":1},{"id":"Denominator_1","code":{"coding":[{"system":"http://terminology.hl7.org/CodeSystem/measure-population","code":"denominator","display":"Denominator"}]},"count":1},{"id":"DenominatorExclusion_1","code":{"coding":[{"system":"http://terminology.hl7.org/CodeSystem/measure-population","code":"denominator-exclusion","display":"Denominator Exclusion"}]},"count":0},{"id":"Numerator_1","code":{"coding":[{"system":"http://terminology.hl7.org/CodeSystem/measure-population","code":"numerator","display":"Numerator"}]},"count":0}],"measureScore":{"value":1.0}}],"evaluatedResource":[{"reference":"Patient/a1d949ba-b8dd-453d-8565-f168e027b329"},{"reference":"Encounter/77c1d85f-b669-475d-8491-a6d485b34355"},{"reference":"Condition/cc759ff8-1157-4ca2-bc70-4174ccc833fb"}]},"request":{"method":"PUT","url":"MeasureReport/4c087570-c73a-4e74-bf0b-fc0b47b25106"}}]},"request":{"method":"PUT","url":"Bundle/NUMFail-DentalCariesCondEndsDec31B4MP"}},{"fullUrl":"Condition/cc759ff8-1157-4ca2-bc70-4174ccc833fb","resource":{"resourceType":"Condition","id":"cc759ff8-1157-4ca2-bc70-4174ccc833fb","meta":{"profile":["http://hl7.org/fhir/us/qicore/StructureDefinition/qicore-condition-problems-health-concerns"]},"clinicalStatus":{"coding":[{"system":"http://terminology.hl7.org/CodeSystem/condition-clinical","code":"resolved"}]},"category":[{"coding":[{"system":"http://terminology.hl7.org/CodeSystem/condition-category","code":"problem-list-item","display":"Problem List Item"}]}],"code":{"coding":[{"system":"http://snomed.info/sct","code":"109564008","display":"Dental caries associated with enamel hypomineralization (disorder)"}]},"subject":{"reference":"Patient/a1d949ba-b8dd-453d-8565-f168e027b329"},"onsetDateTime":"2025-12-31T23:59:59.000Z","abatementDateTime":"2025-12-31T23:59:59.000Z"},"request":{"method":"PUT","url":"Condition/cc759ff8-1157-4ca2-bc70-4174ccc833fb"}},{"fullUrl":"MeasureReport/4c087570-c73a-4e74-bf0b-fc0b47b25106","resource":{"resourceType":"MeasureReport","id":"4c087570-c73a-4e74-bf0b-fc0b47b25106","meta":{"profile":["http://hl7.org/fhir/us/cqfmeasures/StructureDefinition/test-case-cqfm"]},"contained":[{"resourceType":"Parameters","id":"8f73a5e8-a89c-425e-9e0c-54824c0cb8ef-parameters","parameter":[{"name":"subject","valueString":"a1d949ba-b8dd-453d-8565-f168e027b329"}]}],"extension":[{"url":"http://hl7.org/fhir/StructureDefinition/cqf-inputParameters","valueReference":{"reference":"#8f73a5e8-a89c-425e-9e0c-54824c0cb8ef-parameters"}},{"url":"http://hl7.org/fhir/us/cqfmeasures/StructureDefinition/cqfm-testCaseDescription","valueMarkdown":"Patient 20yo w/ an Oral Evaluation Encounter 1/1 of the MP & Dental Caries Condition that ends on 12/31 before the MP."}],"modifierExtension":[{"url":"http://hl7.org/fhir/us/cqfmeasures/StructureDefinition/cqfm-isTestCase","valueBoolean":true}],"status":"complete","type":"individual","measure":"https://madie.cms.gov/Measure/CMS75FHIRChildrenWhoHaveDentalDecayOrCavities","period":{"start":"2026-01-01","end":"2026-12-31"},"group":[{"id":"Group_1","population":[{"id":"InitialPopulation_1","code":{"coding":[{"system":"http://terminology.hl7.org/CodeSystem/measure-population","code":"initial-population","display":"Initial Population"}]},"count":1},{"id":"Denominator_1","code":{"coding":[{"system":"http://terminology.hl7.org/CodeSystem/measure-population","code":"denominator","display":"Denominator"}]},"count":1},{"id":"DenominatorExclusion_1","code":{"coding":[{"system":"http://terminology.hl7.org/CodeSystem/measure-population","code":"denominator-exclusion","display":"Denominator Exclusion"}]},"count":0},{"id":"Numerator_1","code":{"coding":[{"system":"http://terminology.hl7.org/CodeSystem/measure-population","code":"numerator","display":"Numerator"}]},"count":0}],"measureScore":{"value":1.0}}],"evaluatedResource":[{"reference":"Patient/a1d949ba-b8dd-453d-8565-f168e027b329"},{"reference":"Encounter/77c1d85f-b669-475d-8491-a6d485b34355"},{"reference":"Condition/cc759ff8-1157-4ca2-bc70-4174ccc833fb"}]},"request":{"method":"PUT","url":"MeasureReport/4c087570-c73a-4e74-bf0b-fc0b47b25106"}},{"fullUrl":"Encounter/77c1d85f-b669-475d-8491-a6d485b34355","resource":{"resourceType":"Encounter","id":"77c1d85f-b669-475d-8491-a6d485b34355","meta":{"profile":["http://hl7.org/fhir/us/qicore/StructureDefinition/qicore-encounter"]},"status":"finished","class":{"system":"http://terminology.hl7.org/CodeSystem/v3-ActCode","code":"AMB","display":"ambulatory"},"type":[{"coding":[{"system":"http://www.ada.org/cdt","code":"D0120","display":"periodic oral evaluation - established patient"}]}],"subject":{"reference":"Patient/a1d949ba-b8dd-453d-8565-f168e027b329"},"period":{"start":"2026-01-01T00:00:00.000Z","end":"2026-01-01T01:15:00.000Z"}},"request":{"method":"PUT","url":"Encounter/77c1d85f-b669-475d-8491-a6d485b34355"}}]}