{"resourceType":"Bundle","id":"tests-26549e84-fbf3-43dc-8971-2f3baaf508d7-bundle","type":"transaction","entry":[{"resource":{"resourceType":"Encounter","id":"6698131d-cb4d-4f38-93ee-dc296d750bed","meta":{"profile":["http://hl7.org/fhir/us/qicore/StructureDefinition/qicore-encounter"]},"status":"finished","class":{"system":"http://terminology.hl7.org/CodeSystem/v3-ActCode","code":"AMB","display":"ambulatory"},"type":[{"coding":[{"system":"http://www.ada.org/cdt","code":"D0120","display":"periodic oral evaluation - established patient"}]}],"subject":{"reference":"Patient/26549e84-fbf3-43dc-8971-2f3baaf508d7"},"period":{"start":"2026-01-01T00:00:00.000Z","end":"2026-01-01T01:15:00.000Z"}},"request":{"method":"PUT","url":"Encounter/6698131d-cb4d-4f38-93ee-dc296d750bed"}},{"resource":{"resourceType":"MeasureReport","id":"e11de834-8c57-467b-b373-72c1d41bad21","meta":{"profile":["http://hl7.org/fhir/us/cqfmeasures/StructureDefinition/test-case-cqfm"]},"contained":[{"resourceType":"Parameters","id":"537d7d84-eab0-4308-846f-962c2d6475ef-parameters","parameter":[{"name":"subject","valueString":"26549e84-fbf3-43dc-8971-2f3baaf508d7"}]}],"extension":[{"url":"http://hl7.org/fhir/StructureDefinition/cqf-inputParameters","valueReference":{"reference":"#537d7d84-eab0-4308-846f-962c2d6475ef-parameters"}},{"url":"http://hl7.org/fhir/us/cqfmeasures/StructureDefinition/cqfm-testCaseDescription","valueMarkdown":"Hospice Condition - For meeting 100% coverage"}],"modifierExtension":[{"url":"http://hl7.org/fhir/us/cqfmeasures/StructureDefinition/cqfm-isTestCase","valueBoolean":true}],"status":"complete","type":"individual","measure":"https://madie.cms.gov/Measure/CMS75FHIRChildrenWhoHaveDentalDecayOrCavities","period":{"start":"2026-01-01","end":"2026-12-31"},"group":[{"id":"Group_1","population":[{"id":"InitialPopulation_1","code":{"coding":[{"system":"http://terminology.hl7.org/CodeSystem/measure-population","code":"initial-population","display":"Initial Population"}]},"count":1},{"id":"Denominator_1","code":{"coding":[{"system":"http://terminology.hl7.org/CodeSystem/measure-population","code":"denominator","display":"Denominator"}]},"count":1},{"id":"DenominatorExclusion_1","code":{"coding":[{"system":"http://terminology.hl7.org/CodeSystem/measure-population","code":"denominator-exclusion","display":"Denominator Exclusion"}]},"count":1},{"id":"Numerator_1","code":{"coding":[{"system":"http://terminology.hl7.org/CodeSystem/measure-population","code":"numerator","display":"Numerator"}]},"count":0}],"measureScore":{"value":1.0}}],"evaluatedResource":[{"reference":"Patient/26549e84-fbf3-43dc-8971-2f3baaf508d7"},{"reference":"Encounter/6698131d-cb4d-4f38-93ee-dc296d750bed"},{"reference":"Condition/e04fb8a4-139a-4667-95fd-470185fdec05"},{"reference":"Condition/e04fb8a4-139a-4667-95fd-470185fdec05"}]},"request":{"method":"PUT","url":"MeasureReport/e11de834-8c57-467b-b373-72c1d41bad21"}},{"resource":{"resourceType":"Condition","id":"e04fb8a4-139a-4667-95fd-470185fdec05","meta":{"profile":["http://hl7.org/fhir/us/qicore/StructureDefinition/qicore-condition-encounter-diagnosis"]},"clinicalStatus":{"coding":[{"system":"http://terminology.hl7.org/CodeSystem/condition-clinical","code":"active"}]},"category":[{"coding":[{"system":"http://terminology.hl7.org/CodeSystem/condition-category","code":"encounter-diagnosis","display":"Encounter Diagnosis"}]}],"code":{"coding":[{"system":"http://snomed.info/sct","code":"170935008","display":"Full care by hospice (finding)"}]},"subject":{"reference":"Patient/26549e84-fbf3-43dc-8971-2f3baaf508d7"},"onsetDateTime":"2026-01-01T00:00:00.000Z"},"request":{"method":"PUT","url":"Condition/e04fb8a4-139a-4667-95fd-470185fdec05"}},{"resource":{"resourceType":"Patient","id":"26549e84-fbf3-43dc-8971-2f3baaf508d7","meta":{"profile":["http://hl7.org/fhir/us/qicore/StructureDefinition/qicore-patient"]},"extension":[{"url":"http://hl7.org/fhir/us/core/StructureDefinition/us-core-race","extension":[{"url":"ombCategory","valueCoding":{"system":"urn:oid:2.16.840.1.113883.6.238","code":"2028-9","display":"Asian"}},{"url":"text","valueString":"Asian"}]},{"url":"http://hl7.org/fhir/us/core/StructureDefinition/us-core-ethnicity","extension":[{"url":"ombCategory","valueCoding":{"system":"urn:oid:2.16.840.1.113883.6.238","code":"2135-2","display":"Hispanic or Latino"}},{"url":"text","valueString":"Hispanic or Latino"}]}],"identifier":[{"system":"http://hospital.smarthealthit.org","value":"999999995"}],"name":[{"family":"Bertha","given":["Betty"]}],"gender":"female","birthDate":"2006-01-01"},"request":{"method":"PUT","url":"Patient/26549e84-fbf3-43dc-8971-2f3baaf508d7"}},{"resource":{"resourceType":"Bundle","id":"DENEXPass-HospiceDiagnosisStartsDuringMP","type":"transaction","entry":[{"fullUrl":"https://madie.cms.gov/Patient/26549e84-fbf3-43dc-8971-2f3baaf508d7","resource":{"resourceType":"Patient","id":"26549e84-fbf3-43dc-8971-2f3baaf508d7","meta":{"profile":["http://hl7.org/fhir/us/qicore/StructureDefinition/qicore-patient"]},"extension":[{"url":"http://hl7.org/fhir/us/core/StructureDefinition/us-core-race","extension":[{"url":"ombCategory","valueCoding":{"system":"urn:oid:2.16.840.1.113883.6.238","code":"2028-9","display":"Asian"}},{"url":"text","valueString":"Asian"}]},{"url":"http://hl7.org/fhir/us/core/StructureDefinition/us-core-ethnicity","extension":[{"url":"ombCategory","valueCoding":{"system":"urn:oid:2.16.840.1.113883.6.238","code":"2135-2","display":"Hispanic or Latino"}},{"url":"text","valueString":"Hispanic or Latino"}]}],"identifier":[{"system":"http://hospital.smarthealthit.org","value":"999999995"}],"name":[{"family":"Bertha","given":["Betty"]}],"gender":"female","birthDate":"2006-01-01"},"request":{"method":"PUT","url":"Patient/26549e84-fbf3-43dc-8971-2f3baaf508d7"}},{"fullUrl":"https://madie.cms.gov/Encounter/6698131d-cb4d-4f38-93ee-dc296d750bed","resource":{"resourceType":"Encounter","id":"6698131d-cb4d-4f38-93ee-dc296d750bed","meta":{"profile":["http://hl7.org/fhir/us/qicore/StructureDefinition/qicore-encounter"]},"status":"finished","class":{"system":"http://terminology.hl7.org/CodeSystem/v3-ActCode","code":"AMB","display":"ambulatory"},"type":[{"coding":[{"system":"http://www.ada.org/cdt","code":"D0120","display":"periodic oral evaluation - established patient"}]}],"subject":{"reference":"Patient/26549e84-fbf3-43dc-8971-2f3baaf508d7"},"period":{"start":"2026-01-01T00:00:00.000Z","end":"2026-01-01T01:15:00.000Z"}},"request":{"method":"PUT","url":"Encounter/6698131d-cb4d-4f38-93ee-dc296d750bed"}},{"fullUrl":"https://madie.cms.gov/Condition/e04fb8a4-139a-4667-95fd-470185fdec05","resource":{"resourceType":"Condition","id":"e04fb8a4-139a-4667-95fd-470185fdec05","meta":{"profile":["http://hl7.org/fhir/us/qicore/StructureDefinition/qicore-condition-problems-health-concerns"]},"clinicalStatus":{"coding":[{"system":"http://terminology.hl7.org/CodeSystem/condition-clinical","code":"active"}]},"category":[{"coding":[{"system":"http://terminology.hl7.org/CodeSystem/condition-category","code":"problem-list-item","display":"Problem List Item"}]}],"code":{"coding":[{"system":"http://snomed.info/sct","code":"170935008","display":"Full care by hospice (finding)"}]},"subject":{"reference":"Patient/26549e84-fbf3-43dc-8971-2f3baaf508d7"},"onsetDateTime":"2026-01-01T00:00:00.000Z"},"request":{"method":"PUT","url":"Condition/e04fb8a4-139a-4667-95fd-470185fdec05"}},{"fullUrl":"https://madie.cms.gov/Condition/e04fb8a4-139a-4667-95fd-470185fdec05","resource":{"resourceType":"Condition","id":"e04fb8a4-139a-4667-95fd-470185fdec05","meta":{"profile":["http://hl7.org/fhir/us/qicore/StructureDefinition/qicore-condition-encounter-diagnosis"]},"clinicalStatus":{"coding":[{"system":"http://terminology.hl7.org/CodeSystem/condition-clinical","code":"active"}]},"category":[{"coding":[{"system":"http://terminology.hl7.org/CodeSystem/condition-category","code":"encounter-diagnosis","display":"Encounter Diagnosis"}]}],"code":{"coding":[{"system":"http://snomed.info/sct","code":"170935008","display":"Full care by hospice (finding)"}]},"subject":{"reference":"Patient/26549e84-fbf3-43dc-8971-2f3baaf508d7"},"onsetDateTime":"2026-01-01T00:00:00.000Z"},"request":{"method":"PUT","url":"Condition/e04fb8a4-139a-4667-95fd-470185fdec05"}},{"fullUrl":"https://madie.cms.gov/MeasureReport/e11de834-8c57-467b-b373-72c1d41bad21","resource":{"resourceType":"MeasureReport","id":"e11de834-8c57-467b-b373-72c1d41bad21","meta":{"profile":["http://hl7.org/fhir/us/cqfmeasures/StructureDefinition/test-case-cqfm"]},"contained":[{"resourceType":"Parameters","id":"537d7d84-eab0-4308-846f-962c2d6475ef-parameters","parameter":[{"name":"subject","valueString":"26549e84-fbf3-43dc-8971-2f3baaf508d7"}]}],"extension":[{"url":"http://hl7.org/fhir/StructureDefinition/cqf-inputParameters","valueReference":{"reference":"#537d7d84-eab0-4308-846f-962c2d6475ef-parameters"}},{"url":"http://hl7.org/fhir/us/cqfmeasures/StructureDefinition/cqfm-testCaseDescription","valueMarkdown":"Hospice Condition - For meeting 100% coverage"}],"modifierExtension":[{"url":"http://hl7.org/fhir/us/cqfmeasures/StructureDefinition/cqfm-isTestCase","valueBoolean":true}],"status":"complete","type":"individual","measure":"https://madie.cms.gov/Measure/CMS75FHIRChildrenWhoHaveDentalDecayOrCavities","period":{"start":"2026-01-01","end":"2026-12-31"},"group":[{"id":"Group_1","population":[{"id":"InitialPopulation_1","code":{"coding":[{"system":"http://terminology.hl7.org/CodeSystem/measure-population","code":"initial-population","display":"Initial Population"}]},"count":1},{"id":"Denominator_1","code":{"coding":[{"system":"http://terminology.hl7.org/CodeSystem/measure-population","code":"denominator","display":"Denominator"}]},"count":1},{"id":"DenominatorExclusion_1","code":{"coding":[{"system":"http://terminology.hl7.org/CodeSystem/measure-population","code":"denominator-exclusion","display":"Denominator Exclusion"}]},"count":1},{"id":"Numerator_1","code":{"coding":[{"system":"http://terminology.hl7.org/CodeSystem/measure-population","code":"numerator","display":"Numerator"}]},"count":0}],"measureScore":{"value":1.0}}],"evaluatedResource":[{"reference":"Patient/26549e84-fbf3-43dc-8971-2f3baaf508d7"},{"reference":"Encounter/6698131d-cb4d-4f38-93ee-dc296d750bed"},{"reference":"Condition/e04fb8a4-139a-4667-95fd-470185fdec05"},{"reference":"Condition/e04fb8a4-139a-4667-95fd-470185fdec05"}]},"request":{"method":"PUT","url":"MeasureReport/e11de834-8c57-467b-b373-72c1d41bad21"}}]},"request":{"method":"PUT","url":"Bundle/DENEXPass-HospiceDiagnosisStartsDuringMP"}}]}