{"resourceType":"Bundle","id":"tests-303676f7-30b4-4324-8ab3-8d5ab7e92102-bundle","type":"transaction","entry":[{"fullUrl":"Encounter/1fab5c45-8569-478b-81a1-bf4a3cdf67bd","resource":{"resourceType":"Encounter","id":"1fab5c45-8569-478b-81a1-bf4a3cdf67bd","meta":{"profile":["http://hl7.org/fhir/us/qicore/StructureDefinition/qicore-encounter"]},"status":"finished","class":{"system":"http://terminology.hl7.org/CodeSystem/v3-ActCode","code":"AMB","display":"ambulatory"},"type":[{"coding":[{"system":"http://www.ada.org/cdt","code":"D0120","display":"periodic oral evaluation - established patient"}]}],"subject":{"reference":"Patient/303676f7-30b4-4324-8ab3-8d5ab7e92102"},"period":{"start":"2026-01-01T00:00:00.000Z","end":"2026-01-01T01:15:00.000Z"}},"request":{"method":"PUT","url":"Encounter/1fab5c45-8569-478b-81a1-bf4a3cdf67bd"}},{"fullUrl":"Patient/303676f7-30b4-4324-8ab3-8d5ab7e92102","resource":{"resourceType":"Patient","id":"303676f7-30b4-4324-8ab3-8d5ab7e92102","meta":{"profile":["http://hl7.org/fhir/us/qicore/StructureDefinition/qicore-patient"]},"extension":[{"url":"http://hl7.org/fhir/us/core/StructureDefinition/us-core-race","extension":[{"url":"ombCategory","valueCoding":{"system":"urn:oid:2.16.840.1.113883.6.238","code":"2028-9","display":"Asian"}},{"url":"text","valueString":"Asian"}]},{"url":"http://hl7.org/fhir/us/core/StructureDefinition/us-core-ethnicity","extension":[{"url":"ombCategory","valueCoding":{"system":"urn:oid:2.16.840.1.113883.6.238","code":"2135-2","display":"Hispanic or Latino"}},{"url":"text","valueString":"Hispanic or Latino"}]}],"identifier":[{"system":"http://hospital.smarthealthit.org","value":"999999995"}],"name":[{"family":"Bertha","given":["Betty"]}],"gender":"female","birthDate":"2006-01-01"},"request":{"method":"PUT","url":"Patient/303676f7-30b4-4324-8ab3-8d5ab7e92102"}},{"fullUrl":"MeasureReport/5f63635c-2e1f-40bc-9061-0fc85d125bfe","resource":{"resourceType":"MeasureReport","id":"5f63635c-2e1f-40bc-9061-0fc85d125bfe","meta":{"profile":["http://hl7.org/fhir/us/cqfmeasures/StructureDefinition/test-case-cqfm"]},"contained":[{"resourceType":"Parameters","id":"0f1390e3-6986-44d5-add3-dc4f84830310-parameters","parameter":[{"name":"subject","valueString":"303676f7-30b4-4324-8ab3-8d5ab7e92102"}]}],"extension":[{"url":"http://hl7.org/fhir/StructureDefinition/cqf-inputParameters","valueReference":{"reference":"#0f1390e3-6986-44d5-add3-dc4f84830310-parameters"}},{"url":"http://hl7.org/fhir/us/cqfmeasures/StructureDefinition/cqfm-testCaseDescription","valueMarkdown":"Hospice Observation - For meeting 100% coverage"}],"modifierExtension":[{"url":"http://hl7.org/fhir/us/cqfmeasures/StructureDefinition/cqfm-isTestCase","valueBoolean":true}],"status":"complete","type":"individual","measure":"https://madie.cms.gov/Measure/CMS75FHIRChildrenWhoHaveDentalDecayOrCavities","period":{"start":"2026-01-01","end":"2026-12-31"},"group":[{"id":"Group_1","population":[{"id":"InitialPopulation_1","code":{"coding":[{"system":"http://terminology.hl7.org/CodeSystem/measure-population","code":"initial-population","display":"Initial Population"}]},"count":1},{"id":"Denominator_1","code":{"coding":[{"system":"http://terminology.hl7.org/CodeSystem/measure-population","code":"denominator","display":"Denominator"}]},"count":1},{"id":"DenominatorExclusion_1","code":{"coding":[{"system":"http://terminology.hl7.org/CodeSystem/measure-population","code":"denominator-exclusion","display":"Denominator Exclusion"}]},"count":1},{"id":"Numerator_1","code":{"coding":[{"system":"http://terminology.hl7.org/CodeSystem/measure-population","code":"numerator","display":"Numerator"}]},"count":0}],"measureScore":{"value":1.0}}],"evaluatedResource":[{"reference":"Patient/303676f7-30b4-4324-8ab3-8d5ab7e92102"},{"reference":"Encounter/1fab5c45-8569-478b-81a1-bf4a3cdf67bd"},{"reference":"Observation/63a22f62-28b6-442f-8eb4-78403a580b6d"}]},"request":{"method":"PUT","url":"MeasureReport/5f63635c-2e1f-40bc-9061-0fc85d125bfe"}},{"fullUrl":"Bundle/DENEXPass-HospiceObsValueIsYes","resource":{"resourceType":"Bundle","id":"DENEXPass-HospiceObsValueIsYes","type":"transaction","entry":[{"fullUrl":"https://madie.cms.gov/Patient/303676f7-30b4-4324-8ab3-8d5ab7e92102","resource":{"resourceType":"Patient","id":"303676f7-30b4-4324-8ab3-8d5ab7e92102","meta":{"profile":["http://hl7.org/fhir/us/qicore/StructureDefinition/qicore-patient"]},"extension":[{"url":"http://hl7.org/fhir/us/core/StructureDefinition/us-core-race","extension":[{"url":"ombCategory","valueCoding":{"system":"urn:oid:2.16.840.1.113883.6.238","code":"2028-9","display":"Asian"}},{"url":"text","valueString":"Asian"}]},{"url":"http://hl7.org/fhir/us/core/StructureDefinition/us-core-ethnicity","extension":[{"url":"ombCategory","valueCoding":{"system":"urn:oid:2.16.840.1.113883.6.238","code":"2135-2","display":"Hispanic or Latino"}},{"url":"text","valueString":"Hispanic or Latino"}]}],"identifier":[{"system":"http://hospital.smarthealthit.org","value":"999999995"}],"name":[{"family":"Bertha","given":["Betty"]}],"gender":"female","birthDate":"2006-01-01"},"request":{"method":"PUT","url":"Patient/303676f7-30b4-4324-8ab3-8d5ab7e92102"}},{"fullUrl":"https://madie.cms.gov/Encounter/1fab5c45-8569-478b-81a1-bf4a3cdf67bd","resource":{"resourceType":"Encounter","id":"1fab5c45-8569-478b-81a1-bf4a3cdf67bd","meta":{"profile":["http://hl7.org/fhir/us/qicore/StructureDefinition/qicore-encounter"]},"status":"finished","class":{"system":"http://terminology.hl7.org/CodeSystem/v3-ActCode","code":"AMB","display":"ambulatory"},"type":[{"coding":[{"system":"http://www.ada.org/cdt","code":"D0120","display":"periodic oral evaluation - established patient"}]}],"subject":{"reference":"Patient/303676f7-30b4-4324-8ab3-8d5ab7e92102"},"period":{"start":"2026-01-01T00:00:00.000Z","end":"2026-01-01T01:15:00.000Z"}},"request":{"method":"PUT","url":"Encounter/1fab5c45-8569-478b-81a1-bf4a3cdf67bd"}},{"fullUrl":"https://madie.cms.gov/Observation/63a22f62-28b6-442f-8eb4-78403a580b6d","resource":{"resourceType":"Observation","id":"63a22f62-28b6-442f-8eb4-78403a580b6d","meta":{"profile":["http://hl7.org/fhir/us/qicore/StructureDefinition/qicore-observation-screening-assessment"]},"status":"final","category":[{"coding":[{"system":"http://terminology.hl7.org/CodeSystem/observation-category","code":"survey"}]}],"code":{"coding":[{"system":"http://loinc.org","code":"45755-6","display":"Hospice care [Minimum Data Set]"}]},"subject":{"reference":"Patient/303676f7-30b4-4324-8ab3-8d5ab7e92102"},"effectivePeriod":{"start":"2025-12-31T00:00:00.000Z","end":"2026-01-01T00:00:00.000Z"},"valueCodeableConcept":{"coding":[{"system":"http://snomed.info/sct","code":"373066001","display":"Yes (qualifier value)"}]}},"request":{"method":"PUT","url":"Observation/63a22f62-28b6-442f-8eb4-78403a580b6d"}},{"fullUrl":"https://madie.cms.gov/MeasureReport/5f63635c-2e1f-40bc-9061-0fc85d125bfe","resource":{"resourceType":"MeasureReport","id":"5f63635c-2e1f-40bc-9061-0fc85d125bfe","meta":{"profile":["http://hl7.org/fhir/us/cqfmeasures/StructureDefinition/test-case-cqfm"]},"contained":[{"resourceType":"Parameters","id":"0f1390e3-6986-44d5-add3-dc4f84830310-parameters","parameter":[{"name":"subject","valueString":"303676f7-30b4-4324-8ab3-8d5ab7e92102"}]}],"extension":[{"url":"http://hl7.org/fhir/StructureDefinition/cqf-inputParameters","valueReference":{"reference":"#0f1390e3-6986-44d5-add3-dc4f84830310-parameters"}},{"url":"http://hl7.org/fhir/us/cqfmeasures/StructureDefinition/cqfm-testCaseDescription","valueMarkdown":"Hospice Observation - For meeting 100% coverage"}],"modifierExtension":[{"url":"http://hl7.org/fhir/us/cqfmeasures/StructureDefinition/cqfm-isTestCase","valueBoolean":true}],"status":"complete","type":"individual","measure":"https://madie.cms.gov/Measure/CMS75FHIRChildrenWhoHaveDentalDecayOrCavities","period":{"start":"2026-01-01","end":"2026-12-31"},"group":[{"id":"Group_1","population":[{"id":"InitialPopulation_1","code":{"coding":[{"system":"http://terminology.hl7.org/CodeSystem/measure-population","code":"initial-population","display":"Initial Population"}]},"count":1},{"id":"Denominator_1","code":{"coding":[{"system":"http://terminology.hl7.org/CodeSystem/measure-population","code":"denominator","display":"Denominator"}]},"count":1},{"id":"DenominatorExclusion_1","code":{"coding":[{"system":"http://terminology.hl7.org/CodeSystem/measure-population","code":"denominator-exclusion","display":"Denominator Exclusion"}]},"count":1},{"id":"Numerator_1","code":{"coding":[{"system":"http://terminology.hl7.org/CodeSystem/measure-population","code":"numerator","display":"Numerator"}]},"count":0}],"measureScore":{"value":1.0}}],"evaluatedResource":[{"reference":"Patient/303676f7-30b4-4324-8ab3-8d5ab7e92102"},{"reference":"Encounter/1fab5c45-8569-478b-81a1-bf4a3cdf67bd"},{"reference":"Observation/63a22f62-28b6-442f-8eb4-78403a580b6d"}]},"request":{"method":"PUT","url":"MeasureReport/5f63635c-2e1f-40bc-9061-0fc85d125bfe"}}]},"request":{"method":"PUT","url":"Bundle/DENEXPass-HospiceObsValueIsYes"}},{"fullUrl":"Observation/63a22f62-28b6-442f-8eb4-78403a580b6d","resource":{"resourceType":"Observation","id":"63a22f62-28b6-442f-8eb4-78403a580b6d","meta":{"profile":["http://hl7.org/fhir/us/qicore/StructureDefinition/qicore-observation-screening-assessment"]},"status":"final","category":[{"coding":[{"system":"http://terminology.hl7.org/CodeSystem/observation-category","code":"survey"}]}],"code":{"coding":[{"system":"http://loinc.org","code":"45755-6","display":"Hospice care [Minimum Data Set]"}]},"subject":{"reference":"Patient/303676f7-30b4-4324-8ab3-8d5ab7e92102"},"effectivePeriod":{"start":"2025-12-31T00:00:00.000Z","end":"2026-01-01T00:00:00.000Z"},"valueCodeableConcept":{"coding":[{"system":"http://snomed.info/sct","code":"373066001","display":"Yes (qualifier value)"}]}},"request":{"method":"PUT","url":"Observation/63a22f62-28b6-442f-8eb4-78403a580b6d"}}]}