{"resourceType":"Bundle","id":"tests-e72e9b43-d488-41d1-835d-9222337639b2-bundle","type":"transaction","entry":[{"resource":{"resourceType":"Encounter","id":"b1f4f5cf-fcad-4e8e-9974-28226f4d2f1d","meta":{"profile":["http://hl7.org/fhir/us/qicore/StructureDefinition/qicore-encounter"]},"status":"finished","class":{"system":"http://terminology.hl7.org/CodeSystem/v3-ActCode","code":"AMB","display":"ambulatory"},"type":[{"coding":[{"system":"http://www.ada.org/cdt","code":"D0120","display":"periodic oral evaluation - established patient"}]}],"subject":{"reference":"Patient/e72e9b43-d488-41d1-835d-9222337639b2"},"period":{"start":"2026-01-01T00:00:00.000Z","end":"2026-01-01T01:15:00.000Z"}},"request":{"method":"PUT","url":"Encounter/b1f4f5cf-fcad-4e8e-9974-28226f4d2f1d"}},{"resource":{"resourceType":"Patient","id":"e72e9b43-d488-41d1-835d-9222337639b2","meta":{"profile":["http://hl7.org/fhir/us/qicore/StructureDefinition/qicore-patient"]},"extension":[{"url":"http://hl7.org/fhir/us/core/StructureDefinition/us-core-race","extension":[{"url":"ombCategory","valueCoding":{"system":"urn:oid:2.16.840.1.113883.6.238","code":"2028-9","display":"Asian"}},{"url":"text","valueString":"Asian"}]},{"url":"http://hl7.org/fhir/us/core/StructureDefinition/us-core-ethnicity","extension":[{"url":"ombCategory","valueCoding":{"system":"urn:oid:2.16.840.1.113883.6.238","code":"2135-2","display":"Hispanic or Latino"}},{"url":"text","valueString":"Hispanic or Latino"}]}],"identifier":[{"system":"http://hospital.smarthealthit.org","value":"999999995"}],"name":[{"family":"Bertha","given":["Betty"]}],"gender":"female","birthDate":"2006-01-01"},"request":{"method":"PUT","url":"Patient/e72e9b43-d488-41d1-835d-9222337639b2"}},{"resource":{"resourceType":"Encounter","id":"b1f4f5cf-fcad-4e8e-9974-28226f4d2f1d.1","meta":{"profile":["http://hl7.org/fhir/us/qicore/StructureDefinition/qicore-encounter"]},"status":"finished","class":{"system":"http://terminology.hl7.org/CodeSystem/v3-ActCode","code":"AMB","display":"ambulatory"},"type":[{"coding":[{"system":"http://snomed.info/sct","code":"183452005","display":"Emergency hospital admission (procedure)"}]}],"subject":{"reference":"Patient/e72e9b43-d488-41d1-835d-9222337639b2"},"period":{"start":"2025-12-31T00:00:00.000Z","end":"2025-12-31T23:59:59.000Z"},"hospitalization":{"dischargeDisposition":{"coding":[{"system":"http://snomed.info/sct","code":"428361000124107","display":"Discharge to home for hospice care (procedure)"}]}}},"request":{"method":"PUT","url":"Encounter/b1f4f5cf-fcad-4e8e-9974-28226f4d2f1d.1"}},{"resource":{"resourceType":"Bundle","id":"DENEXFail-DischargeToHomeInpatient","type":"transaction","entry":[{"fullUrl":"https://madie.cms.gov/Patient/e72e9b43-d488-41d1-835d-9222337639b2","resource":{"resourceType":"Patient","id":"e72e9b43-d488-41d1-835d-9222337639b2","meta":{"profile":["http://hl7.org/fhir/us/qicore/StructureDefinition/qicore-patient"]},"extension":[{"url":"http://hl7.org/fhir/us/core/StructureDefinition/us-core-race","extension":[{"url":"ombCategory","valueCoding":{"system":"urn:oid:2.16.840.1.113883.6.238","code":"2028-9","display":"Asian"}},{"url":"text","valueString":"Asian"}]},{"url":"http://hl7.org/fhir/us/core/StructureDefinition/us-core-ethnicity","extension":[{"url":"ombCategory","valueCoding":{"system":"urn:oid:2.16.840.1.113883.6.238","code":"2135-2","display":"Hispanic or Latino"}},{"url":"text","valueString":"Hispanic or Latino"}]}],"identifier":[{"system":"http://hospital.smarthealthit.org","value":"999999995"}],"name":[{"family":"Bertha","given":["Betty"]}],"gender":"female","birthDate":"2006-01-01"},"request":{"method":"PUT","url":"Patient/e72e9b43-d488-41d1-835d-9222337639b2"}},{"fullUrl":"https://madie.cms.gov/Encounter/b1f4f5cf-fcad-4e8e-9974-28226f4d2f1d","resource":{"resourceType":"Encounter","id":"b1f4f5cf-fcad-4e8e-9974-28226f4d2f1d","meta":{"profile":["http://hl7.org/fhir/us/qicore/StructureDefinition/qicore-encounter"]},"status":"finished","class":{"system":"http://terminology.hl7.org/CodeSystem/v3-ActCode","code":"AMB","display":"ambulatory"},"type":[{"coding":[{"system":"http://www.ada.org/cdt","code":"D0120","display":"periodic oral evaluation - established patient"}]}],"subject":{"reference":"Patient/e72e9b43-d488-41d1-835d-9222337639b2"},"period":{"start":"2026-01-01T00:00:00.000Z","end":"2026-01-01T01:15:00.000Z"}},"request":{"method":"PUT","url":"Encounter/b1f4f5cf-fcad-4e8e-9974-28226f4d2f1d"}},{"fullUrl":"https://madie.cms.gov/Encounter/b1f4f5cf-fcad-4e8e-9974-28226f4d2f1d.1","resource":{"resourceType":"Encounter","id":"b1f4f5cf-fcad-4e8e-9974-28226f4d2f1d.1","meta":{"profile":["http://hl7.org/fhir/us/qicore/StructureDefinition/qicore-encounter"]},"status":"finished","class":{"system":"http://terminology.hl7.org/CodeSystem/v3-ActCode","code":"AMB","display":"ambulatory"},"type":[{"coding":[{"system":"http://snomed.info/sct","code":"183452005","display":"Emergency hospital admission (procedure)"}]}],"subject":{"reference":"Patient/e72e9b43-d488-41d1-835d-9222337639b2"},"period":{"start":"2025-12-31T00:00:00.000Z","end":"2025-12-31T23:59:59.000Z"},"hospitalization":{"dischargeDisposition":{"coding":[{"system":"http://snomed.info/sct","code":"428361000124107","display":"Discharge to home for hospice care (procedure)"}]}}},"request":{"method":"PUT","url":"Encounter/b1f4f5cf-fcad-4e8e-9974-28226f4d2f1d.1"}},{"fullUrl":"https://madie.cms.gov/MeasureReport/cd0e44d5-14df-45cb-9e86-36af496116c5","resource":{"resourceType":"MeasureReport","id":"cd0e44d5-14df-45cb-9e86-36af496116c5","meta":{"profile":["http://hl7.org/fhir/us/cqfmeasures/StructureDefinition/test-case-cqfm"]},"contained":[{"resourceType":"Parameters","id":"9e4596e2-3ab3-4dfb-ae39-551f11eb2932-parameters","parameter":[{"name":"subject","valueString":"e72e9b43-d488-41d1-835d-9222337639b2"}]}],"extension":[{"url":"http://hl7.org/fhir/StructureDefinition/cqf-inputParameters","valueReference":{"reference":"#9e4596e2-3ab3-4dfb-ae39-551f11eb2932-parameters"}},{"url":"http://hl7.org/fhir/us/cqfmeasures/StructureDefinition/cqfm-testCaseDescription","valueMarkdown":"Encounter Inpatient Discharge to Home - For meeting 100% coverage"}],"modifierExtension":[{"url":"http://hl7.org/fhir/us/cqfmeasures/StructureDefinition/cqfm-isTestCase","valueBoolean":true}],"status":"complete","type":"individual","measure":"https://madie.cms.gov/Measure/CMS75FHIRChildrenWhoHaveDentalDecayOrCavities","period":{"start":"2026-01-01","end":"2026-12-31"},"group":[{"id":"Group_1","population":[{"id":"InitialPopulation_1","code":{"coding":[{"system":"http://terminology.hl7.org/CodeSystem/measure-population","code":"initial-population","display":"Initial Population"}]},"count":1},{"id":"Denominator_1","code":{"coding":[{"system":"http://terminology.hl7.org/CodeSystem/measure-population","code":"denominator","display":"Denominator"}]},"count":1},{"id":"DenominatorExclusion_1","code":{"coding":[{"system":"http://terminology.hl7.org/CodeSystem/measure-population","code":"denominator-exclusion","display":"Denominator Exclusion"}]},"count":0},{"id":"Numerator_1","code":{"coding":[{"system":"http://terminology.hl7.org/CodeSystem/measure-population","code":"numerator","display":"Numerator"}]},"count":0}],"measureScore":{"value":1.0}}],"evaluatedResource":[{"reference":"Patient/e72e9b43-d488-41d1-835d-9222337639b2"},{"reference":"Encounter/b1f4f5cf-fcad-4e8e-9974-28226f4d2f1d"},{"reference":"Encounter/b1f4f5cf-fcad-4e8e-9974-28226f4d2f1d.1"}]},"request":{"method":"PUT","url":"MeasureReport/cd0e44d5-14df-45cb-9e86-36af496116c5"}}]},"request":{"method":"PUT","url":"Bundle/DENEXFail-DischargeToHomeInpatient"}},{"resource":{"resourceType":"MeasureReport","id":"cd0e44d5-14df-45cb-9e86-36af496116c5","meta":{"profile":["http://hl7.org/fhir/us/cqfmeasures/StructureDefinition/test-case-cqfm"]},"contained":[{"resourceType":"Parameters","id":"9e4596e2-3ab3-4dfb-ae39-551f11eb2932-parameters","parameter":[{"name":"subject","valueString":"e72e9b43-d488-41d1-835d-9222337639b2"}]}],"extension":[{"url":"http://hl7.org/fhir/StructureDefinition/cqf-inputParameters","valueReference":{"reference":"#9e4596e2-3ab3-4dfb-ae39-551f11eb2932-parameters"}},{"url":"http://hl7.org/fhir/us/cqfmeasures/StructureDefinition/cqfm-testCaseDescription","valueMarkdown":"Encounter Inpatient Discharge to Home - For meeting 100% coverage"}],"modifierExtension":[{"url":"http://hl7.org/fhir/us/cqfmeasures/StructureDefinition/cqfm-isTestCase","valueBoolean":true}],"status":"complete","type":"individual","measure":"https://madie.cms.gov/Measure/CMS75FHIRChildrenWhoHaveDentalDecayOrCavities","period":{"start":"2026-01-01","end":"2026-12-31"},"group":[{"id":"Group_1","population":[{"id":"InitialPopulation_1","code":{"coding":[{"system":"http://terminology.hl7.org/CodeSystem/measure-population","code":"initial-population","display":"Initial Population"}]},"count":1},{"id":"Denominator_1","code":{"coding":[{"system":"http://terminology.hl7.org/CodeSystem/measure-population","code":"denominator","display":"Denominator"}]},"count":1},{"id":"DenominatorExclusion_1","code":{"coding":[{"system":"http://terminology.hl7.org/CodeSystem/measure-population","code":"denominator-exclusion","display":"Denominator Exclusion"}]},"count":0},{"id":"Numerator_1","code":{"coding":[{"system":"http://terminology.hl7.org/CodeSystem/measure-population","code":"numerator","display":"Numerator"}]},"count":0}],"measureScore":{"value":1.0}}],"evaluatedResource":[{"reference":"Patient/e72e9b43-d488-41d1-835d-9222337639b2"},{"reference":"Encounter/b1f4f5cf-fcad-4e8e-9974-28226f4d2f1d"},{"reference":"Encounter/b1f4f5cf-fcad-4e8e-9974-28226f4d2f1d.1"}]},"request":{"method":"PUT","url":"MeasureReport/cd0e44d5-14df-45cb-9e86-36af496116c5"}}]}