{
  "resourceType": "Bundle",
  "id": "4613103634163131",
  "type": "transaction",
  "entry": [ {
    "fullUrl": "https://madie.cms.gov/Patient/132a7880-8f4a-4b0c-a7d6-3f5a8d6df0b3",
    "resource": {
      "resourceType": "Patient",
      "id": "132a7880-8f4a-4b0c-a7d6-3f5a8d6df0b3",
      "meta": {
        "profile": [ "http://hl7.org/fhir/us/qicore/StructureDefinition/qicore-patient" ]
      },
      "extension": [ {
        "url": "http://hl7.org/fhir/us/core/StructureDefinition/us-core-race",
        "extension": [ {
          "url": "ombCategory",
          "valueCoding": {
            "system": "urn:oid:2.16.840.1.113883.6.238",
            "code": "2076-8",
            "display": "Native Hawaiian or Other Pacific Islander"
          }
        }, {
          "url": "text",
          "valueString": "Native Hawaiian or Other Pacific Islander"
        } ]
      }, {
        "url": "http://hl7.org/fhir/us/core/StructureDefinition/us-core-ethnicity",
        "extension": [ {
          "url": "ombCategory",
          "valueCoding": {
            "system": "urn:oid:2.16.840.1.113883.6.238",
            "code": "2186-5",
            "display": "Not Hispanic or Latino"
          }
        }, {
          "url": "text",
          "valueString": "Not Hispanic or Latino"
        } ]
      } ],
      "identifier": [ {
        "type": {
          "coding": [ {
            "system": "http://terminology.hl7.org/CodeSystem/v2-0203",
            "code": "MR"
          } ]
        },
        "system": "https://bonnie-fhir.healthit.gov/",
        "value": "7843135463165262"
      } ],
      "name": [ {
        "family": "DENEXPass",
        "given": [ "MixedHistology2MonthsBeforeStaging" ]
      } ],
      "gender": "female",
      "birthDate": "1947-11-03"
    },
    "request": {
      "method": "PUT",
      "url": "Patient/132a7880-8f4a-4b0c-a7d6-3f5a8d6df0b3"
    }
  }, {
    "fullUrl": "https://madie.cms.gov/Encounter/12f60235-a98d-48b9-98f4-bc00b8d76de6",
    "resource": {
      "resourceType": "Encounter",
      "id": "12f60235-a98d-48b9-98f4-bc00b8d76de6",
      "meta": {
        "profile": [ "http://hl7.org/fhir/us/qicore/StructureDefinition/qicore-encounter" ]
      },
      "status": "finished",
      "class": {
        "system": "http://terminology.hl7.org/CodeSystem/v3-ActCode",
        "code": "AMB",
        "display": "ambulatory"
      },
      "type": [ {
        "coding": [ {
          "system": "http://snomed.info/sct",
          "version": "http://snomed.info/sct/731000124108/version/20240301",
          "code": "185463005",
          "display": "Visit out of hours (procedure)"
        } ]
      } ],
      "subject": {
        "reference": "Patient/132a7880-8f4a-4b0c-a7d6-3f5a8d6df0b3"
      },
      "period": {
        "start": "2026-04-06T08:00:00.000+00:00",
        "end": "2026-04-06T09:15:00.000+00:00"
      }
    },
    "request": {
      "method": "PUT",
      "url": "Encounter/12f60235-a98d-48b9-98f4-bc00b8d76de6"
    }
  }, {
    "fullUrl": "https://madie.cms.gov/Condition/f54a5d9c-b54a-43a2-ab20-def3d17c4871",
    "resource": {
      "resourceType": "Condition",
      "id": "f54a5d9c-b54a-43a2-ab20-def3d17c4871",
      "meta": {
        "profile": [ "http://hl7.org/fhir/us/qicore/StructureDefinition/qicore-condition-problems-health-concerns" ]
      },
      "clinicalStatus": {
        "coding": [ {
          "system": "http://terminology.hl7.org/CodeSystem/condition-clinical",
          "code": "active",
          "display": "Active"
        } ]
      },
      "verificationStatus": {
        "coding": [ {
          "system": "http://terminology.hl7.org/CodeSystem/condition-ver-status",
          "code": "confirmed",
          "display": "Confirmed"
        } ]
      },
      "category": [ {
        "coding": [ {
          "system": "http://terminology.hl7.org/CodeSystem/condition-category",
          "code": "problem-list-item",
          "display": "Problem List Item"
        } ]
      } ],
      "code": {
        "coding": [ {
          "system": "http://hl7.org/fhir/sid/icd-10-cm",
          "version": "2024",
          "code": "C67.1",
          "display": "Malignant neoplasm of dome of bladder"
        } ]
      },
      "subject": {
        "reference": "Patient/132a7880-8f4a-4b0c-a7d6-3f5a8d6df0b3"
      },
      "onsetPeriod": {
        "start": "2026-04-06T08:00:00.000+00:00"
      }
    },
    "request": {
      "method": "PUT",
      "url": "Condition/f54a5d9c-b54a-43a2-ab20-def3d17c4871"
    }
  }, {
    "fullUrl": "https://madie.cms.gov/Condition/c82cbf47-b255-4922-8a42-dfd1dace9fbc",
    "resource": {
      "resourceType": "Condition",
      "id": "c82cbf47-b255-4922-8a42-dfd1dace9fbc",
      "meta": {
        "profile": [ "http://hl7.org/fhir/us/qicore/StructureDefinition/qicore-condition-problems-health-concerns" ]
      },
      "clinicalStatus": {
        "coding": [ {
          "system": "http://terminology.hl7.org/CodeSystem/condition-clinical",
          "code": "active",
          "display": "Active"
        } ]
      },
      "verificationStatus": {
        "coding": [ {
          "system": "http://terminology.hl7.org/CodeSystem/condition-ver-status",
          "code": "confirmed",
          "display": "Confirmed"
        } ]
      },
      "category": [ {
        "coding": [ {
          "system": "http://terminology.hl7.org/CodeSystem/condition-category",
          "code": "problem-list-item",
          "display": "Problem List Item"
        } ]
      } ],
      "code": {
        "coding": [ {
          "system": "http://snomed.info/sct",
          "version": "http://snomed.info/sct/731000124108/version/20240301",
          "code": "278046008",
          "display": "Mixed histology urothelial cell carcinoma for Urology Care"
        } ]
      },
      "subject": {
        "reference": "Patient/132a7880-8f4a-4b0c-a7d6-3f5a8d6df0b3"
      },
      "onsetPeriod": {
        "start": "2026-02-06T08:00:00.000+00:00"
      }
    },
    "request": {
      "method": "PUT",
      "url": "Condition/c82cbf47-b255-4922-8a42-dfd1dace9fbc"
    }
  }, {
    "fullUrl": "https://madie.cms.gov/Procedure/048e007b-f5bd-403a-8900-8bf87d6dbe5e",
    "resource": {
      "resourceType": "Procedure",
      "id": "048e007b-f5bd-403a-8900-8bf87d6dbe5e",
      "meta": {
        "profile": [ "http://hl7.org/fhir/us/qicore/StructureDefinition/qicore-procedure" ]
      },
      "extension": [ {
        "url": "http://hl7.org/fhir/us/qicore/StructureDefinition/qicore-recorded",
        "valueDateTime": "2026-04-06T08:00:00.000+00:00"
      } ],
      "status": "completed",
      "code": {
        "coding": [ {
          "system": "http://snomed.info/sct",
          "version": "http://snomed.info/sct/731000124108/version/20240301",
          "code": "254292007",
          "display": "Tumor staging"
        } ]
      },
      "subject": {
        "reference": "Patient/132a7880-8f4a-4b0c-a7d6-3f5a8d6df0b3"
      },
      "performedDateTime": "2026-04-06T08:00:00.000+00:00"
    },
    "request": {
      "method": "PUT",
      "url": "Procedure/048e007b-f5bd-403a-8900-8bf87d6dbe5e"
    }
  }, {
    "fullUrl": "https://madie.cms.gov/Observation/00ed94b2-0efe-4f87-b861-1ac386346d76",
    "resource": {
      "resourceType": "Observation",
      "id": "00ed94b2-0efe-4f87-b861-1ac386346d76",
      "meta": {
        "profile": [ "http://hl7.org/fhir/us/qicore/StructureDefinition/qicore-observation-lab" ]
      },
      "partOf": [ {
        "reference": "Procedure/048e007b-f5bd-403a-8900-8bf87d6dbe5e"
      } ],
      "status": "final",
      "category": [ {
        "coding": [ {
          "system": "http://terminology.hl7.org/CodeSystem/observation-category",
          "code": "procedure",
          "display": "Procedure"
        } ]
      } ],
      "code": {
        "coding": [ {
          "system": "http://loinc.org",
          "version": "2.76",
          "code": "21902-2",
          "display": "Stage group.pathology Cancer"
        } ]
      },
      "subject": {
        "reference": "Patient/132a7880-8f4a-4b0c-a7d6-3f5a8d6df0b3"
      },
      "effectiveDateTime": "2026-04-06T08:00:00.000+00:00",
      "issued": "2026-04-06T08:10:00.000+00:00",
      "valueCodeableConcept": {
        "coding": [ {
          "system": "http://snomed.info/sct",
          "version": "http://snomed.info/sct/731000124108/version/20240301",
          "code": "1228889001",
          "display": "American Joint Committee on Cancer cT1 (qualifier value)"
        } ]
      }
    },
    "request": {
      "method": "PUT",
      "url": "Observation/00ed94b2-0efe-4f87-b861-1ac386346d76"
    }
  }, {
    "fullUrl": "https://madie.cms.gov/MeasureReport/37cd70ac-bd08-44f7-9571-801775adbe05",
    "resource": {
      "resourceType": "MeasureReport",
      "id": "37cd70ac-bd08-44f7-9571-801775adbe05",
      "meta": {
        "profile": [ "http://hl7.org/fhir/us/cqfmeasures/StructureDefinition/test-case-cqfm" ]
      },
      "contained": [ {
        "resourceType": "Parameters",
        "id": "1172585b-5d8f-4209-b16a-3b82df1ed719-parameters",
        "parameter": [ {
          "name": "subject",
          "valueString": "132a7880-8f4a-4b0c-a7d6-3f5a8d6df0b3"
        } ]
      } ],
      "extension": [ {
        "url": "http://hl7.org/fhir/StructureDefinition/cqf-inputParameters",
        "valueReference": {
          "reference": "#1172585b-5d8f-4209-b16a-3b82df1ed719-parameters"
        }
      }, {
        "url": "http://hl7.org/fhir/us/cqfmeasures/StructureDefinition/cqfm-testCaseDescription",
        "valueMarkdown": "Patient with cT1 staging and OV in MP.  Pt has Mixed histology 2 mo before staging and should be excluded."
      } ],
      "modifierExtension": [ {
        "url": "http://hl7.org/fhir/us/cqfmeasures/StructureDefinition/cqfm-isTestCase",
        "valueBoolean": true
      } ],
      "status": "complete",
      "type": "individual",
      "measure": "https://madie.cms.gov/Measure/CMS646FHIRIntravesicalBacillusCalmetteGuerinForBladderCancer",
      "period": {
        "start": "2026-01-01",
        "end": "2026-12-31"
      },
      "group": [ {
        "id": "Group_1",
        "population": [ {
          "id": "InitialPopulation_1",
          "code": {
            "coding": [ {
              "system": "http://terminology.hl7.org/CodeSystem/measure-population",
              "code": "initial-population",
              "display": "Initial Population"
            } ]
          },
          "count": 1
        }, {
          "id": "Denominator_1",
          "code": {
            "coding": [ {
              "system": "http://terminology.hl7.org/CodeSystem/measure-population",
              "code": "denominator",
              "display": "Denominator"
            } ]
          },
          "count": 1
        }, {
          "id": "DenominatorExclusion_1",
          "code": {
            "coding": [ {
              "system": "http://terminology.hl7.org/CodeSystem/measure-population",
              "code": "denominator-exclusion",
              "display": "Denominator Exclusion"
            } ]
          },
          "count": 1
        }, {
          "id": "Numerator_1",
          "code": {
            "coding": [ {
              "system": "http://terminology.hl7.org/CodeSystem/measure-population",
              "code": "numerator",
              "display": "Numerator"
            } ]
          },
          "count": 0
        }, {
          "id": "DenominatorException_1",
          "code": {
            "coding": [ {
              "system": "http://terminology.hl7.org/CodeSystem/measure-population",
              "code": "denominator-exception",
              "display": "Denominator Exception"
            } ]
          },
          "count": 0
        } ],
        "measureScore": {
          "value": 1.0
        }
      } ],
      "evaluatedResource": [ {
        "reference": "Patient/132a7880-8f4a-4b0c-a7d6-3f5a8d6df0b3"
      }, {
        "reference": "Encounter/12f60235-a98d-48b9-98f4-bc00b8d76de6"
      }, {
        "reference": "Condition/f54a5d9c-b54a-43a2-ab20-def3d17c4871"
      }, {
        "reference": "Condition/c82cbf47-b255-4922-8a42-dfd1dace9fbc"
      }, {
        "reference": "Procedure/048e007b-f5bd-403a-8900-8bf87d6dbe5e"
      }, {
        "reference": "Observation/00ed94b2-0efe-4f87-b861-1ac386346d76"
      } ]
    },
    "request": {
      "method": "PUT",
      "url": "MeasureReport/37cd70ac-bd08-44f7-9571-801775adbe05"
    }
  } ]
}