{
  "resourceType": "Bundle",
  "id": "61095b0998086b53805591a5",
  "type": "transaction",
  "entry": [ {
    "fullUrl": "https://madie.cms.gov/Patient/10948d40-4024-4a78-873a-0e4d106d5761",
    "resource": {
      "resourceType": "Patient",
      "id": "10948d40-4024-4a78-873a-0e4d106d5761",
      "meta": {
        "profile": [ "http://hl7.org/fhir/us/qicore/StructureDefinition/qicore-patient" ]
      },
      "text": {
        "status": "generated",
        "div": "<div xmlns=\"http://www.w3.org/1999/xhtml\"><div class=\"hapiHeaderText\">Age@18 <b>DENOMPASS </b></div><table class=\"hapiPropertyTable\"><tbody><tr><td>Identifier</td><td>67f3e33acf17bcb386e754d726ed064ccd48ba21ff0ffb2eb678740a684398be</td></tr><tr><td>Date of birth</td><td><span>01 January 1994</span></td></tr></tbody></table></div>"
      },
      "extension": [ {
        "url": "http://hl7.org/fhir/us/core/StructureDefinition/us-core-race",
        "extension": [ {
          "url": "ombCategory",
          "valueCoding": {
            "system": "urn:oid:2.16.840.1.113883.6.238",
            "code": "1002-5",
            "display": "American Indian or Alaska Native",
            "userSelected": true
          }
        }, {
          "url": "text",
          "valueString": "American Indian or Alaska Native"
        } ]
      }, {
        "url": "http://hl7.org/fhir/us/core/StructureDefinition/us-core-ethnicity",
        "extension": [ {
          "url": "ombCategory",
          "valueCoding": {
            "system": "urn:oid:2.16.840.1.113883.6.238",
            "code": "2135-2",
            "display": "Hispanic or Latino",
            "userSelected": true
          }
        }, {
          "url": "text",
          "valueString": "Hispanic or Latino"
        } ]
      } ],
      "identifier": [ {
        "type": {
          "coding": [ {
            "system": "http://terminology.hl7.org/CodeSystem/v2-0203",
            "code": "MR"
          } ]
        },
        "system": "https://bonnie-fhir.healthit.gov/",
        "value": "61095b0998086b53805591a5"
      } ],
      "active": true,
      "name": [ {
        "use": "usual",
        "family": "DENEXPASS",
        "given": [ "CataractCongenitalWithCatSurg" ]
      } ],
      "gender": "female",
      "birthDate": "1996-01-01"
    },
    "request": {
      "method": "PUT",
      "url": "Patient/10948d40-4024-4a78-873a-0e4d106d5761"
    }
  }, {
    "fullUrl": "https://madie.cms.gov/Observation/3c552bc7-9e21-46bd-bc0c-a1e6fde0f150",
    "resource": {
      "resourceType": "Observation",
      "id": "3c552bc7-9e21-46bd-bc0c-a1e6fde0f150",
      "meta": {
        "profile": [ "http://hl7.org/fhir/us/qicore/StructureDefinition/qicore-observation-clinical-result" ]
      },
      "status": "final",
      "category": [ {
        "coding": [ {
          "system": "http://terminology.hl7.org/CodeSystem/observation-category",
          "code": "exam",
          "display": "exam"
        } ]
      } ],
      "code": {
        "coding": [ {
          "system": "http://snomed.info/sct",
          "code": "419775003"
        } ]
      },
      "subject": {
        "reference": "Patient/10948d40-4024-4a78-873a-0e4d106d5761"
      },
      "effectivePeriod": {
        "start": "2026-03-13T09:00:00+00:00",
        "end": "2026-03-13T09:30:00+00:00"
      }
    },
    "request": {
      "method": "PUT",
      "url": "Observation/3c552bc7-9e21-46bd-bc0c-a1e6fde0f150"
    }
  }, {
    "fullUrl": "https://madie.cms.gov/Procedure/807c6c7a-44b4-4a97-9e5d-5ab75afbd2d6",
    "resource": {
      "resourceType": "Procedure",
      "id": "807c6c7a-44b4-4a97-9e5d-5ab75afbd2d6",
      "meta": {
        "profile": [ "http://hl7.org/fhir/us/qicore/StructureDefinition/qicore-procedure" ]
      },
      "extension": [ {
        "url": "http://hl7.org/fhir/us/qicore/StructureDefinition/qicore-recorded",
        "valueDateTime": "2026-03-05T09:35:00-04:00"
      } ],
      "status": "completed",
      "code": {
        "coding": [ {
          "system": "http://snomed.info/sct",
          "code": "84149000"
        } ]
      },
      "subject": {
        "reference": "Patient/10948d40-4024-4a78-873a-0e4d106d5761"
      },
      "performedPeriod": {
        "start": "2026-03-05T09:20:00-04:00",
        "end": "2026-04-05T10:30:00-04:00"
      }
    },
    "request": {
      "method": "PUT",
      "url": "Procedure/807c6c7a-44b4-4a97-9e5d-5ab75afbd2d6"
    }
  }, {
    "fullUrl": "https://madie.cms.gov/Condition/2adf3124-3532-45dc-9e5f-b841d2ae0851",
    "resource": {
      "resourceType": "Condition",
      "id": "2adf3124-3532-45dc-9e5f-b841d2ae0851",
      "meta": {
        "profile": [ "http://hl7.org/fhir/us/qicore/StructureDefinition/qicore-condition-encounter-diagnosis" ]
      },
      "clinicalStatus": {
        "coding": [ {
          "system": "http://terminology.hl7.org/CodeSystem/condition-clinical",
          "code": "active",
          "display": "active",
          "userSelected": true
        } ]
      },
      "category": [ {
        "coding": [ {
          "system": "http://terminology.hl7.org/CodeSystem/condition-clinical",
          "code": "active",
          "display": "active",
          "userSelected": true
        } ]
      } ],
      "code": {
        "coding": [ {
          "system": "http://hl7.org/fhir/sid/icd-10-cm",
          "code": "H31.20",
          "userSelected": true
        }, {
          "system": "http://snomed.info/sct",
          "code": "92820007",
          "userSelected": true
        } ]
      },
      "subject": {
        "reference": "Patient/10948d40-4024-4a78-873a-0e4d106d5761"
      },
      "onsetDateTime": "2024-11-01T08:00:00.000+00:00"
    },
    "request": {
      "method": "PUT",
      "url": "Condition/2adf3124-3532-45dc-9e5f-b841d2ae0851"
    }
  }, {
    "fullUrl": "https://madie.cms.gov/Coverage/42939600-a492-41b2-9db9-f92c02f8d568",
    "resource": {
      "resourceType": "Coverage",
      "id": "42939600-a492-41b2-9db9-f92c02f8d568",
      "meta": {
        "profile": [ "http://hl7.org/fhir/us/qicore/StructureDefinition/qicore-coverage" ]
      },
      "status": "active",
      "beneficiary": {
        "reference": "Patient/10948d40-4024-4a78-873a-0e4d106d5761"
      },
      "payor": [ {
        "reference": "Organization/b91f1926-4e4d-48cf-83bd-adc8374cb728"
      } ]
    },
    "request": {
      "method": "PUT",
      "url": "Coverage/42939600-a492-41b2-9db9-f92c02f8d568"
    }
  }, {
    "fullUrl": "https://madie.cms.gov/Organization/b91f1926-4e4d-48cf-83bd-adc8374cb728",
    "resource": {
      "resourceType": "Organization",
      "id": "b91f1926-4e4d-48cf-83bd-adc8374cb728",
      "meta": {
        "profile": [ "http://hl7.org/fhir/us/qicore/StructureDefinition/qicore-organization" ]
      },
      "identifier": [ {
        "use": "temp",
        "system": "urn:oid:2.16.840.1.113883.4.4",
        "value": "21-3259825"
      } ],
      "active": true,
      "type": [ {
        "coding": [ {
          "system": "http://terminology.hl7.org/CodeSystem/organization-type",
          "code": "pay",
          "display": "Payer"
        } ]
      } ],
      "name": "Blue Cross Blue Shield of Texas",
      "telecom": [ {
        "system": "phone",
        "value": "(+1) 972-766-6900"
      } ],
      "address": [ {
        "use": "billing",
        "type": "postal",
        "line": [ "P.O. Box 660044" ],
        "city": "Dallas",
        "state": "TX",
        "postalCode": "75266-0044",
        "country": "USA"
      } ]
    },
    "request": {
      "method": "PUT",
      "url": "Organization/b91f1926-4e4d-48cf-83bd-adc8374cb728"
    }
  }, {
    "fullUrl": "https://madie.cms.gov/Practitioner/3ee40af7-ae2a-4480-a47d-13dbfc81f2c8",
    "resource": {
      "resourceType": "Practitioner",
      "id": "3ee40af7-ae2a-4480-a47d-13dbfc81f2c8",
      "meta": {
        "profile": [ "http://hl7.org/fhir/us/qicore/StructureDefinition/qicore-practitioner" ]
      },
      "identifier": [ {
        "system": "http://hl7.org/fhir/sid/us-npi",
        "value": "123456"
      } ],
      "name": [ {
        "family": "Evil",
        "prefix": [ "Dr" ]
      } ]
    },
    "request": {
      "method": "PUT",
      "url": "Practitioner/3ee40af7-ae2a-4480-a47d-13dbfc81f2c8"
    }
  }, {
    "fullUrl": "https://madie.cms.gov/MeasureReport/17aeb8e3-220c-4c7d-8ede-0a3b0636fc4d",
    "resource": {
      "resourceType": "MeasureReport",
      "id": "17aeb8e3-220c-4c7d-8ede-0a3b0636fc4d",
      "meta": {
        "profile": [ "http://hl7.org/fhir/us/cqfmeasures/StructureDefinition/test-case-cqfm" ]
      },
      "contained": [ {
        "resourceType": "Parameters",
        "id": "efda8306-a2a9-4fb6-84e1-dcb0563832df-parameters",
        "parameter": [ {
          "name": "subject",
          "valueString": "10948d40-4024-4a78-873a-0e4d106d5761"
        } ]
      } ],
      "extension": [ {
        "url": "http://hl7.org/fhir/StructureDefinition/cqf-inputParameters",
        "valueReference": {
          "reference": "#efda8306-a2a9-4fb6-84e1-dcb0563832df-parameters"
        }
      }, {
        "url": "http://hl7.org/fhir/us/cqfmeasures/StructureDefinition/cqfm-testCaseDescription",
        "valueMarkdown": "Patient with Hereditary Choroidal Dystrophies with cataract surgery. "
      } ],
      "modifierExtension": [ {
        "url": "http://hl7.org/fhir/us/cqfmeasures/StructureDefinition/cqfm-isTestCase",
        "valueBoolean": true
      } ],
      "status": "complete",
      "type": "individual",
      "measure": "https://madie.cms.gov/Measure/CMS133FHIRCataracts2040BCVAwithin90Days",
      "period": {
        "start": "2026-01-01",
        "end": "2026-12-31"
      },
      "group": [ {
        "id": "Group_1",
        "population": [ {
          "id": "InitialPopulation_1",
          "code": {
            "coding": [ {
              "system": "http://terminology.hl7.org/CodeSystem/measure-population",
              "code": "initial-population",
              "display": "Initial Population"
            } ]
          },
          "count": 1
        }, {
          "id": "Denominator_1",
          "code": {
            "coding": [ {
              "system": "http://terminology.hl7.org/CodeSystem/measure-population",
              "code": "denominator",
              "display": "Denominator"
            } ]
          },
          "count": 1
        }, {
          "id": "DenominatorExclusion_1",
          "code": {
            "coding": [ {
              "system": "http://terminology.hl7.org/CodeSystem/measure-population",
              "code": "denominator-exclusion",
              "display": "Denominator Exclusion"
            } ]
          },
          "count": 1
        }, {
          "id": "Numerator_1",
          "code": {
            "coding": [ {
              "system": "http://terminology.hl7.org/CodeSystem/measure-population",
              "code": "numerator",
              "display": "Numerator"
            } ]
          },
          "count": 0
        } ],
        "measureScore": {
          "value": 0.0
        }
      } ],
      "evaluatedResource": [ {
        "reference": "Patient/10948d40-4024-4a78-873a-0e4d106d5761"
      }, {
        "reference": "Observation/3c552bc7-9e21-46bd-bc0c-a1e6fde0f150"
      }, {
        "reference": "Procedure/807c6c7a-44b4-4a97-9e5d-5ab75afbd2d6"
      }, {
        "reference": "Condition/2adf3124-3532-45dc-9e5f-b841d2ae0851"
      }, {
        "reference": "Coverage/42939600-a492-41b2-9db9-f92c02f8d568"
      }, {
        "reference": "Organization/b91f1926-4e4d-48cf-83bd-adc8374cb728"
      }, {
        "reference": "Practitioner/3ee40af7-ae2a-4480-a47d-13dbfc81f2c8"
      } ]
    },
    "request": {
      "method": "PUT",
      "url": "MeasureReport/17aeb8e3-220c-4c7d-8ede-0a3b0636fc4d"
    }
  } ]
}