{"resourceType":"Bundle","id":"tests-ee053d16-adcb-4760-9305-6a553d789d9a-bundle","type":"transaction","entry":[{"fullUrl":"Encounter/c79eb912-f878-4da5-88fd-be9683f96f9d","resource":{"resourceType":"Encounter","id":"c79eb912-f878-4da5-88fd-be9683f96f9d","meta":{"profile":["http://hl7.org/fhir/us/qicore/StructureDefinition/qicore-encounter"]},"status":"finished","class":{"system":"http://terminology.hl7.org/CodeSystem/v3-ActCode","code":"AMB","display":"ambulatory"},"type":[{"coding":[{"system":"http://snomed.info/sct","version":"2022-09","code":"185463005","display":"Visit out of hours (procedure)"}]}],"subject":{"reference":"Patient/ee053d16-adcb-4760-9305-6a553d789d9a"},"period":{"start":"2026-02-03T08:00:00+00:00","end":"2026-02-03T08:45:00+00:00"}},"request":{"method":"PUT","url":"Encounter/c79eb912-f878-4da5-88fd-be9683f96f9d"}},{"fullUrl":"MedicationRequest/2d9f8a87-a0cf-49ed-b30d-7eb86551f2db","resource":{"resourceType":"MedicationRequest","id":"2d9f8a87-a0cf-49ed-b30d-7eb86551f2db","meta":{"profile":["http://hl7.org/fhir/us/qicore/StructureDefinition/qicore-medicationrequest"]},"status":"active","intent":"order","medicationCodeableConcept":{"coding":[{"system":"http://www.nlm.nih.gov/research/umls/rxnorm","version":"2025-01","code":"314008","display":"goserelin 10.8 MG Drug Implant"}]},"subject":{"reference":"Patient/ee053d16-adcb-4760-9305-6a553d789d9a"},"authoredOn":"2026-02-01T08:00:00.000+00:00","requester":{"reference":"http://myGoodHealthcare.com/fhir/Practitioner/ff83cc78-5993-44bd-a2d8-1b4140c17f03"},"dosageInstruction":[{"timing":{"repeat":{"boundsPeriod":{"start":"2026-02-03T08:00:00.000+00:00","end":"2026-03-03T09:00:00.000+00:00"}}}}]},"request":{"method":"PUT","url":"MedicationRequest/2d9f8a87-a0cf-49ed-b30d-7eb86551f2db"}},{"fullUrl":"Patient/ee053d16-adcb-4760-9305-6a553d789d9a","resource":{"resourceType":"Patient","id":"ee053d16-adcb-4760-9305-6a553d789d9a","meta":{"profile":["http://hl7.org/fhir/us/qicore/StructureDefinition/qicore-patient"]},"extension":[{"url":"http://hl7.org/fhir/us/core/StructureDefinition/us-core-race","extension":[{"url":"ombCategory","valueCoding":{"system":"urn:oid:2.16.840.1.113883.6.238","code":"2076-8","display":"Native Hawaiian or Other Pacific Islander"}},{"url":"text","valueString":"Other Race"}]},{"url":"http://hl7.org/fhir/us/core/StructureDefinition/us-core-ethnicity","extension":[{"url":"ombCategory","valueCoding":{"system":"urn:oid:2.16.840.1.113883.6.238","code":"2135-2","display":"Hispanic or Latino","userSelected":true}},{"url":"text","valueString":"Hispanic or Latino"}]}],"identifier":[{"type":{"coding":[{"system":"http://terminology.hl7.org/CodeSystem/v2-0203","code":"MR"}]},"system":"https://bonnie-fhir.healthit.gov/","value":"60abce8bcd7f9706e4189cfd"}],"name":[{"family":"DENOMPass","given":["MedReqBoundsPriorToPCa"]}],"gender":"male","birthDate":"1950-07-09"},"request":{"method":"PUT","url":"Patient/ee053d16-adcb-4760-9305-6a553d789d9a"}},{"fullUrl":"MeasureReport/6fe30719-91dc-46d2-ad73-fe5a72342eb6","resource":{"resourceType":"MeasureReport","id":"6fe30719-91dc-46d2-ad73-fe5a72342eb6","meta":{"profile":["http://hl7.org/fhir/us/cqfmeasures/StructureDefinition/test-case-cqfm"]},"contained":[{"resourceType":"Parameters","id":"3444fb20-6099-4bb5-a511-09e77469d992-parameters","parameter":[{"name":"subject","valueString":"ee053d16-adcb-4760-9305-6a553d789d9a"}]}],"extension":[{"url":"http://hl7.org/fhir/StructureDefinition/cqf-inputParameters","valueReference":{"reference":"#3444fb20-6099-4bb5-a511-09e77469d992-parameters"}},{"url":"http://hl7.org/fhir/us/cqfmeasures/StructureDefinition/cqfm-testCaseDescription","valueMarkdown":"Patient has ADT for another reason, then develops prostate cancer. Passes with prior ADT, then PCa dx and intent for 12 months of therapy with ADT restarted. Pt should be included in IPP and DENOM."}],"modifierExtension":[{"url":"http://hl7.org/fhir/us/cqfmeasures/StructureDefinition/cqfm-isTestCase","valueBoolean":true}],"status":"complete","type":"individual","measure":"https://madie.cms.gov/Measure/CMS645FHIRBoneDensityProstateCancerAndrogenDeprivationTherapy","period":{"start":"2026-01-01","end":"2026-12-31"},"group":[{"id":"Group_1","population":[{"id":"InitialPopulation_1","code":{"coding":[{"system":"http://terminology.hl7.org/CodeSystem/measure-population","code":"initial-population","display":"Initial Population"}]},"count":1},{"id":"Denominator_1","code":{"coding":[{"system":"http://terminology.hl7.org/CodeSystem/measure-population","code":"denominator","display":"Denominator"}]},"count":1},{"id":"Numerator_1","code":{"coding":[{"system":"http://terminology.hl7.org/CodeSystem/measure-population","code":"numerator","display":"Numerator"}]},"count":0},{"id":"DenominatorException_1","code":{"coding":[{"system":"http://terminology.hl7.org/CodeSystem/measure-population","code":"denominator-exception","display":"Denominator Exception"}]},"count":0}],"measureScore":{"value":1.0}}],"evaluatedResource":[{"reference":"Patient/ee053d16-adcb-4760-9305-6a553d789d9a"},{"reference":"Encounter/c79eb912-f878-4da5-88fd-be9683f96f9d"},{"reference":"MedicationRequest/37d36fe0-54d9-4eff-a496-f793d13613cf"},{"reference":"Condition/ddec7743-ee70-4a62-bd0e-47bb4c640096"},{"reference":"MedicationRequest/2d9f8a87-a0cf-49ed-b30d-7eb86551f2db"},{"reference":"Practitioner/ff83cc78-5993-44bd-a2d8-1b4140c17f03"},{"reference":"ServiceRequest/c556a0c1-27bb-4f11-abb4-ffb4972a9f3d"}]},"request":{"method":"PUT","url":"MeasureReport/6fe30719-91dc-46d2-ad73-fe5a72342eb6"}},{"fullUrl":"Condition/ddec7743-ee70-4a62-bd0e-47bb4c640096","resource":{"resourceType":"Condition","id":"ddec7743-ee70-4a62-bd0e-47bb4c640096","meta":{"profile":["http://hl7.org/fhir/us/qicore/StructureDefinition/qicore-condition-problems-health-concerns"]},"clinicalStatus":{"coding":[{"system":"http://terminology.hl7.org/CodeSystem/condition-clinical","code":"active"}]},"verificationStatus":{"coding":[{"system":"http://terminology.hl7.org/CodeSystem/condition-ver-status","code":"confirmed"}]},"category":[{"coding":[{"system":"http://terminology.hl7.org/CodeSystem/condition-category","code":"problem-list-item","display":"Problem List Item"}]}],"code":{"coding":[{"system":"http://snomed.info/sct","version":"2022-09","code":"254900004","display":"Carcinoma of prostate (disorder)"}]},"subject":{"reference":"Patient/ee053d16-adcb-4760-9305-6a553d789d9a"},"onsetPeriod":{"start":"2026-01-03T08:00:00.000+00:00"}},"request":{"method":"PUT","url":"Condition/ddec7743-ee70-4a62-bd0e-47bb4c640096"}},{"fullUrl":"Practitioner/ff83cc78-5993-44bd-a2d8-1b4140c17f03","resource":{"resourceType":"Practitioner","id":"ff83cc78-5993-44bd-a2d8-1b4140c17f03","meta":{"profile":["http://hl7.org/fhir/us/qicore/StructureDefinition/qicore-practitioner"]},"identifier":[{"use":"temp","system":"urn:oid:2.16.840.1.113883.4.336","value":"Practitioner-23"}],"active":true,"name":[{"family":"Careful","given":["Adam"],"prefix":["Dr"]}],"address":[{"use":"home","line":["534 Erewhon St"],"city":"PleasantVille","state":"UT","postalCode":"84414"}],"qualification":[{"identifier":[{"system":"http://example.org/UniversityIdentifier","value":"12345"}],"code":{"coding":[{"system":"http://terminology.hl7.org/CodeSystem/v2-0360|2.7","code":"BS","display":"Bachelor of Science"}],"text":"Bachelor of Science"},"period":{"start":"1996"},"issuer":{"display":"Example University"}}]},"request":{"method":"PUT","url":"Practitioner/ff83cc78-5993-44bd-a2d8-1b4140c17f03"}},{"fullUrl":"Bundle/13161321321351024","resource":{"resourceType":"Bundle","id":"13161321321351024","type":"transaction","entry":[{"fullUrl":"https://madie.cms.gov/Patient/ee053d16-adcb-4760-9305-6a553d789d9a","resource":{"resourceType":"Patient","id":"ee053d16-adcb-4760-9305-6a553d789d9a","meta":{"profile":["http://hl7.org/fhir/us/qicore/StructureDefinition/qicore-patient"]},"extension":[{"url":"http://hl7.org/fhir/us/core/StructureDefinition/us-core-race","extension":[{"url":"ombCategory","valueCoding":{"system":"urn:oid:2.16.840.1.113883.6.238","code":"2076-8","display":"Native Hawaiian or Other Pacific Islander"}},{"url":"text","valueString":"Other Race"}]},{"url":"http://hl7.org/fhir/us/core/StructureDefinition/us-core-ethnicity","extension":[{"url":"ombCategory","valueCoding":{"system":"urn:oid:2.16.840.1.113883.6.238","code":"2135-2","display":"Hispanic or Latino","userSelected":true}},{"url":"text","valueString":"Hispanic or Latino"}]}],"identifier":[{"type":{"coding":[{"system":"http://terminology.hl7.org/CodeSystem/v2-0203","code":"MR"}]},"system":"https://bonnie-fhir.healthit.gov/","value":"60abce8bcd7f9706e4189cfd"}],"name":[{"family":"DENOMPass","given":["MedReqBoundsPriorToPCa"]}],"gender":"male","birthDate":"1950-07-09"},"request":{"method":"PUT","url":"Patient/ee053d16-adcb-4760-9305-6a553d789d9a"}},{"fullUrl":"https://madie.cms.gov/Encounter/c79eb912-f878-4da5-88fd-be9683f96f9d","resource":{"resourceType":"Encounter","id":"c79eb912-f878-4da5-88fd-be9683f96f9d","meta":{"profile":["http://hl7.org/fhir/us/qicore/StructureDefinition/qicore-encounter"]},"status":"finished","class":{"system":"http://terminology.hl7.org/CodeSystem/v3-ActCode","code":"AMB","display":"ambulatory"},"type":[{"coding":[{"system":"http://snomed.info/sct","version":"2022-09","code":"185463005","display":"Visit out of hours (procedure)"}]}],"subject":{"reference":"Patient/ee053d16-adcb-4760-9305-6a553d789d9a"},"period":{"start":"2026-02-03T08:00:00+00:00","end":"2026-02-03T08:45:00+00:00"}},"request":{"method":"PUT","url":"Encounter/c79eb912-f878-4da5-88fd-be9683f96f9d"}},{"fullUrl":"https://madie.cms.gov/MedicationRequest/37d36fe0-54d9-4eff-a496-f793d13613cf","resource":{"resourceType":"MedicationRequest","id":"37d36fe0-54d9-4eff-a496-f793d13613cf","meta":{"profile":["http://hl7.org/fhir/us/qicore/StructureDefinition/qicore-medicationrequest"]},"status":"active","intent":"order","doNotPerform":false,"medicationCodeableConcept":{"coding":[{"system":"http://www.nlm.nih.gov/research/umls/rxnorm","version":"2025-01","code":"314008","display":"goserelin 10.8 MG Drug Implant"}]},"subject":{"reference":"Patient/ee053d16-adcb-4760-9305-6a553d789d9a"},"authoredOn":"2025-11-01T08:00:00.000+00:00","requester":{"reference":"http://myGoodHealthcare.com/fhir/Practitioner/ff83cc78-5993-44bd-a2d8-1b4140c17f03"},"dosageInstruction":[{"timing":{"repeat":{"boundsPeriod":{"start":"2025-11-03T08:00:00.000+00:00","end":"2025-11-03T09:00:00.000+00:00"}}}}]},"request":{"method":"PUT","url":"MedicationRequest/37d36fe0-54d9-4eff-a496-f793d13613cf"}},{"fullUrl":"https://madie.cms.gov/Condition/ddec7743-ee70-4a62-bd0e-47bb4c640096","resource":{"resourceType":"Condition","id":"ddec7743-ee70-4a62-bd0e-47bb4c640096","meta":{"profile":["http://hl7.org/fhir/us/qicore/StructureDefinition/qicore-condition-problems-health-concerns"]},"clinicalStatus":{"coding":[{"system":"http://terminology.hl7.org/CodeSystem/condition-clinical","code":"active"}]},"verificationStatus":{"coding":[{"system":"http://terminology.hl7.org/CodeSystem/condition-ver-status","code":"confirmed"}]},"category":[{"coding":[{"system":"http://terminology.hl7.org/CodeSystem/condition-category","code":"problem-list-item","display":"Problem List Item"}]}],"code":{"coding":[{"system":"http://snomed.info/sct","version":"2022-09","code":"254900004","display":"Carcinoma of prostate (disorder)"}]},"subject":{"reference":"Patient/ee053d16-adcb-4760-9305-6a553d789d9a"},"onsetPeriod":{"start":"2026-01-03T08:00:00.000+00:00"}},"request":{"method":"PUT","url":"Condition/ddec7743-ee70-4a62-bd0e-47bb4c640096"}},{"fullUrl":"https://madie.cms.gov/MedicationRequest/2d9f8a87-a0cf-49ed-b30d-7eb86551f2db","resource":{"resourceType":"MedicationRequest","id":"2d9f8a87-a0cf-49ed-b30d-7eb86551f2db","meta":{"profile":["http://hl7.org/fhir/us/qicore/StructureDefinition/qicore-medicationrequest"]},"status":"active","intent":"order","medicationCodeableConcept":{"coding":[{"system":"http://www.nlm.nih.gov/research/umls/rxnorm","version":"2025-01","code":"314008","display":"goserelin 10.8 MG Drug Implant"}]},"subject":{"reference":"Patient/ee053d16-adcb-4760-9305-6a553d789d9a"},"authoredOn":"2026-02-01T08:00:00.000+00:00","requester":{"reference":"http://myGoodHealthcare.com/fhir/Practitioner/ff83cc78-5993-44bd-a2d8-1b4140c17f03"},"dosageInstruction":[{"timing":{"repeat":{"boundsPeriod":{"start":"2026-02-03T08:00:00.000+00:00","end":"2026-03-03T09:00:00.000+00:00"}}}}]},"request":{"method":"PUT","url":"MedicationRequest/2d9f8a87-a0cf-49ed-b30d-7eb86551f2db"}},{"fullUrl":"https://madie.cms.gov/Practitioner/ff83cc78-5993-44bd-a2d8-1b4140c17f03","resource":{"resourceType":"Practitioner","id":"ff83cc78-5993-44bd-a2d8-1b4140c17f03","meta":{"profile":["http://hl7.org/fhir/us/qicore/StructureDefinition/qicore-practitioner"]},"identifier":[{"use":"temp","system":"urn:oid:2.16.840.1.113883.4.336","value":"Practitioner-23"}],"active":true,"name":[{"family":"Careful","given":["Adam"],"prefix":["Dr"]}],"address":[{"use":"home","line":["534 Erewhon St"],"city":"PleasantVille","state":"UT","postalCode":"84414"}],"qualification":[{"identifier":[{"system":"http://example.org/UniversityIdentifier","value":"12345"}],"code":{"coding":[{"system":"http://terminology.hl7.org/CodeSystem/v2-0360|2.7","code":"BS","display":"Bachelor of Science"}],"text":"Bachelor of Science"},"period":{"start":"1996"},"issuer":{"display":"Example University"}}]},"request":{"method":"PUT","url":"Practitioner/ff83cc78-5993-44bd-a2d8-1b4140c17f03"}},{"fullUrl":"https://madie.cms.gov/ServiceRequest/c556a0c1-27bb-4f11-abb4-ffb4972a9f3d","resource":{"resourceType":"ServiceRequest","id":"c556a0c1-27bb-4f11-abb4-ffb4972a9f3d","meta":{"profile":["http://hl7.org/fhir/us/qicore/StructureDefinition/qicore-servicerequest"]},"status":"active","intent":"order","code":{"coding":[{"system":"http://snomed.info/sct","code":"456381000124102","display":"Injection of leuprolide acetate for twelve month period (regime/therapy)"}]},"subject":{"reference":"Patient/ee053d16-adcb-4760-9305-6a553d789d9a"},"authoredOn":"2026-02-03T08:00:00.000+00:00"},"request":{"method":"PUT","url":"ServiceRequest/c556a0c1-27bb-4f11-abb4-ffb4972a9f3d"}},{"fullUrl":"https://madie.cms.gov/MeasureReport/6fe30719-91dc-46d2-ad73-fe5a72342eb6","resource":{"resourceType":"MeasureReport","id":"6fe30719-91dc-46d2-ad73-fe5a72342eb6","meta":{"profile":["http://hl7.org/fhir/us/cqfmeasures/StructureDefinition/test-case-cqfm"]},"contained":[{"resourceType":"Parameters","id":"3444fb20-6099-4bb5-a511-09e77469d992-parameters","parameter":[{"name":"subject","valueString":"ee053d16-adcb-4760-9305-6a553d789d9a"}]}],"extension":[{"url":"http://hl7.org/fhir/StructureDefinition/cqf-inputParameters","valueReference":{"reference":"#3444fb20-6099-4bb5-a511-09e77469d992-parameters"}},{"url":"http://hl7.org/fhir/us/cqfmeasures/StructureDefinition/cqfm-testCaseDescription","valueMarkdown":"Patient has ADT for another reason, then develops prostate cancer. Passes with prior ADT, then PCa dx and intent for 12 months of therapy with ADT restarted. Pt should be included in IPP and DENOM."}],"modifierExtension":[{"url":"http://hl7.org/fhir/us/cqfmeasures/StructureDefinition/cqfm-isTestCase","valueBoolean":true}],"status":"complete","type":"individual","measure":"https://madie.cms.gov/Measure/CMS645FHIRBoneDensityProstateCancerAndrogenDeprivationTherapy","period":{"start":"2026-01-01","end":"2026-12-31"},"group":[{"id":"Group_1","population":[{"id":"InitialPopulation_1","code":{"coding":[{"system":"http://terminology.hl7.org/CodeSystem/measure-population","code":"initial-population","display":"Initial Population"}]},"count":1},{"id":"Denominator_1","code":{"coding":[{"system":"http://terminology.hl7.org/CodeSystem/measure-population","code":"denominator","display":"Denominator"}]},"count":1},{"id":"Numerator_1","code":{"coding":[{"system":"http://terminology.hl7.org/CodeSystem/measure-population","code":"numerator","display":"Numerator"}]},"count":0},{"id":"DenominatorException_1","code":{"coding":[{"system":"http://terminology.hl7.org/CodeSystem/measure-population","code":"denominator-exception","display":"Denominator Exception"}]},"count":0}],"measureScore":{"value":1.0}}],"evaluatedResource":[{"reference":"Patient/ee053d16-adcb-4760-9305-6a553d789d9a"},{"reference":"Encounter/c79eb912-f878-4da5-88fd-be9683f96f9d"},{"reference":"MedicationRequest/37d36fe0-54d9-4eff-a496-f793d13613cf"},{"reference":"Condition/ddec7743-ee70-4a62-bd0e-47bb4c640096"},{"reference":"MedicationRequest/2d9f8a87-a0cf-49ed-b30d-7eb86551f2db"},{"reference":"Practitioner/ff83cc78-5993-44bd-a2d8-1b4140c17f03"},{"reference":"ServiceRequest/c556a0c1-27bb-4f11-abb4-ffb4972a9f3d"}]},"request":{"method":"PUT","url":"MeasureReport/6fe30719-91dc-46d2-ad73-fe5a72342eb6"}}]},"request":{"method":"PUT","url":"Bundle/13161321321351024"}},{"fullUrl":"MedicationRequest/37d36fe0-54d9-4eff-a496-f793d13613cf","resource":{"resourceType":"MedicationRequest","id":"37d36fe0-54d9-4eff-a496-f793d13613cf","meta":{"profile":["http://hl7.org/fhir/us/qicore/StructureDefinition/qicore-medicationrequest"]},"status":"active","intent":"order","doNotPerform":false,"medicationCodeableConcept":{"coding":[{"system":"http://www.nlm.nih.gov/research/umls/rxnorm","version":"2025-01","code":"314008","display":"goserelin 10.8 MG Drug Implant"}]},"subject":{"reference":"Patient/ee053d16-adcb-4760-9305-6a553d789d9a"},"authoredOn":"2025-11-01T08:00:00.000+00:00","requester":{"reference":"http://myGoodHealthcare.com/fhir/Practitioner/ff83cc78-5993-44bd-a2d8-1b4140c17f03"},"dosageInstruction":[{"timing":{"repeat":{"boundsPeriod":{"start":"2025-11-03T08:00:00.000+00:00","end":"2025-11-03T09:00:00.000+00:00"}}}}]},"request":{"method":"PUT","url":"MedicationRequest/37d36fe0-54d9-4eff-a496-f793d13613cf"}},{"fullUrl":"ServiceRequest/c556a0c1-27bb-4f11-abb4-ffb4972a9f3d","resource":{"resourceType":"ServiceRequest","id":"c556a0c1-27bb-4f11-abb4-ffb4972a9f3d","meta":{"profile":["http://hl7.org/fhir/us/qicore/StructureDefinition/qicore-servicerequest"]},"status":"active","intent":"order","code":{"coding":[{"system":"http://snomed.info/sct","code":"456381000124102","display":"Injection of leuprolide acetate for twelve month period (regime/therapy)"}]},"subject":{"reference":"Patient/ee053d16-adcb-4760-9305-6a553d789d9a"},"authoredOn":"2026-02-03T08:00:00.000+00:00"},"request":{"method":"PUT","url":"ServiceRequest/c556a0c1-27bb-4f11-abb4-ffb4972a9f3d"}}]}