{"resourceType":"Bundle","id":"tests-0a4436ba-31a5-464f-9061-255f767ed3d9-bundle","type":"transaction","entry":[{"fullUrl":"Bundle/60abcdebcd7f9706e4189cfc","resource":{"resourceType":"Bundle","id":"60abcdebcd7f9706e4189cfc","type":"transaction","entry":[{"fullUrl":"https://madie.cms.gov/Patient/0a4436ba-31a5-464f-9061-255f767ed3d9","resource":{"resourceType":"Patient","id":"0a4436ba-31a5-464f-9061-255f767ed3d9","meta":{"profile":["http://hl7.org/fhir/us/qicore/StructureDefinition/qicore-patient"]},"extension":[{"url":"http://hl7.org/fhir/us/core/StructureDefinition/us-core-race","extension":[{"url":"ombCategory","valueCoding":{"system":"urn:oid:2.16.840.1.113883.6.238","code":"1002-5","display":"American Indian or Alaska Native"}},{"url":"text","valueString":"American Indian or Alaska Native"}]},{"url":"http://hl7.org/fhir/us/core/StructureDefinition/us-core-ethnicity","extension":[{"url":"ombCategory","valueCoding":{"system":"urn:oid:2.16.840.1.113883.6.238","code":"2135-2","display":"Hispanic or Latino"}},{"url":"text","valueString":"Hispanic or Latino"}]}],"identifier":[{"type":{"coding":[{"system":"http://terminology.hl7.org/CodeSystem/v2-0203","code":"MR"}]},"system":"https://bonnie-fhir.healthit.gov/","value":"60abcdebcd7f9706e4189cfc"}],"name":[{"family":"IPFail","given":["OnlyDemographics"]}],"gender":"unknown","birthDate":"1955-12-28"},"request":{"method":"PUT","url":"Patient/0a4436ba-31a5-464f-9061-255f767ed3d9"}},{"fullUrl":"https://madie.cms.gov/MeasureReport/16bd92d3-df3c-4ac3-9a56-b0c88219d565","resource":{"resourceType":"MeasureReport","id":"16bd92d3-df3c-4ac3-9a56-b0c88219d565","meta":{"profile":["http://hl7.org/fhir/us/cqfmeasures/StructureDefinition/test-case-cqfm"]},"contained":[{"resourceType":"Parameters","id":"a9e9eabf-447d-4f60-a092-3885230fca49-parameters","parameter":[{"name":"subject","valueString":"0a4436ba-31a5-464f-9061-255f767ed3d9"}]}],"extension":[{"url":"http://hl7.org/fhir/StructureDefinition/cqf-inputParameters","valueReference":{"reference":"#a9e9eabf-447d-4f60-a092-3885230fca49-parameters"}},{"url":"http://hl7.org/fhir/us/cqfmeasures/StructureDefinition/cqfm-testCaseDescription","valueMarkdown":"No qualifying encounter, ADT, or Dexa. Patient sex is 'unknown'"}],"modifierExtension":[{"url":"http://hl7.org/fhir/us/cqfmeasures/StructureDefinition/cqfm-isTestCase","valueBoolean":true}],"status":"complete","type":"individual","measure":"https://madie.cms.gov/Measure/CMS645FHIRBoneDensityProstateCancerAndrogenDeprivationTherapy","period":{"start":"2026-01-01","end":"2026-12-31"},"group":[{"id":"Group_1","population":[{"id":"InitialPopulation_1","code":{"coding":[{"system":"http://terminology.hl7.org/CodeSystem/measure-population","code":"initial-population","display":"Initial Population"}]},"count":0},{"id":"Denominator_1","code":{"coding":[{"system":"http://terminology.hl7.org/CodeSystem/measure-population","code":"denominator","display":"Denominator"}]},"count":0},{"id":"Numerator_1","code":{"coding":[{"system":"http://terminology.hl7.org/CodeSystem/measure-population","code":"numerator","display":"Numerator"}]},"count":0},{"id":"DenominatorException_1","code":{"coding":[{"system":"http://terminology.hl7.org/CodeSystem/measure-population","code":"denominator-exception","display":"Denominator Exception"}]},"count":0}],"measureScore":{"value":1.0}}],"evaluatedResource":[{"reference":"Patient/0a4436ba-31a5-464f-9061-255f767ed3d9"}]},"request":{"method":"PUT","url":"MeasureReport/16bd92d3-df3c-4ac3-9a56-b0c88219d565"}}]},"request":{"method":"PUT","url":"Bundle/60abcdebcd7f9706e4189cfc"}},{"fullUrl":"MeasureReport/16bd92d3-df3c-4ac3-9a56-b0c88219d565","resource":{"resourceType":"MeasureReport","id":"16bd92d3-df3c-4ac3-9a56-b0c88219d565","meta":{"profile":["http://hl7.org/fhir/us/cqfmeasures/StructureDefinition/test-case-cqfm"]},"contained":[{"resourceType":"Parameters","id":"a9e9eabf-447d-4f60-a092-3885230fca49-parameters","parameter":[{"name":"subject","valueString":"0a4436ba-31a5-464f-9061-255f767ed3d9"}]}],"extension":[{"url":"http://hl7.org/fhir/StructureDefinition/cqf-inputParameters","valueReference":{"reference":"#a9e9eabf-447d-4f60-a092-3885230fca49-parameters"}},{"url":"http://hl7.org/fhir/us/cqfmeasures/StructureDefinition/cqfm-testCaseDescription","valueMarkdown":"No qualifying encounter, ADT, or Dexa. Patient sex is 'unknown'"}],"modifierExtension":[{"url":"http://hl7.org/fhir/us/cqfmeasures/StructureDefinition/cqfm-isTestCase","valueBoolean":true}],"status":"complete","type":"individual","measure":"https://madie.cms.gov/Measure/CMS645FHIRBoneDensityProstateCancerAndrogenDeprivationTherapy","period":{"start":"2026-01-01","end":"2026-12-31"},"group":[{"id":"Group_1","population":[{"id":"InitialPopulation_1","code":{"coding":[{"system":"http://terminology.hl7.org/CodeSystem/measure-population","code":"initial-population","display":"Initial Population"}]},"count":0},{"id":"Denominator_1","code":{"coding":[{"system":"http://terminology.hl7.org/CodeSystem/measure-population","code":"denominator","display":"Denominator"}]},"count":0},{"id":"Numerator_1","code":{"coding":[{"system":"http://terminology.hl7.org/CodeSystem/measure-population","code":"numerator","display":"Numerator"}]},"count":0},{"id":"DenominatorException_1","code":{"coding":[{"system":"http://terminology.hl7.org/CodeSystem/measure-population","code":"denominator-exception","display":"Denominator Exception"}]},"count":0}],"measureScore":{"value":1.0}}],"evaluatedResource":[{"reference":"Patient/0a4436ba-31a5-464f-9061-255f767ed3d9"}]},"request":{"method":"PUT","url":"MeasureReport/16bd92d3-df3c-4ac3-9a56-b0c88219d565"}},{"fullUrl":"Patient/0a4436ba-31a5-464f-9061-255f767ed3d9","resource":{"resourceType":"Patient","id":"0a4436ba-31a5-464f-9061-255f767ed3d9","meta":{"profile":["http://hl7.org/fhir/us/qicore/StructureDefinition/qicore-patient"]},"extension":[{"url":"http://hl7.org/fhir/us/core/StructureDefinition/us-core-race","extension":[{"url":"ombCategory","valueCoding":{"system":"urn:oid:2.16.840.1.113883.6.238","code":"1002-5","display":"American Indian or Alaska Native"}},{"url":"text","valueString":"American Indian or Alaska Native"}]},{"url":"http://hl7.org/fhir/us/core/StructureDefinition/us-core-ethnicity","extension":[{"url":"ombCategory","valueCoding":{"system":"urn:oid:2.16.840.1.113883.6.238","code":"2135-2","display":"Hispanic or Latino"}},{"url":"text","valueString":"Hispanic or Latino"}]}],"identifier":[{"type":{"coding":[{"system":"http://terminology.hl7.org/CodeSystem/v2-0203","code":"MR"}]},"system":"https://bonnie-fhir.healthit.gov/","value":"60abcdebcd7f9706e4189cfc"}],"name":[{"family":"IPFail","given":["OnlyDemographics"]}],"gender":"unknown","birthDate":"1955-12-28"},"request":{"method":"PUT","url":"Patient/0a4436ba-31a5-464f-9061-255f767ed3d9"}}]}