{"resourceType":"Bundle","id":"tests-05afd17d-f9a0-4588-bb3a-ffefd2f6c271-bundle","type":"transaction","entry":[{"fullUrl":"Bundle/60abda28bf0a01003e3f76bd","resource":{"resourceType":"Bundle","id":"60abda28bf0a01003e3f76bd","type":"transaction","entry":[{"fullUrl":"https://madie.cms.gov/Patient/05afd17d-f9a0-4588-bb3a-ffefd2f6c271","resource":{"resourceType":"Patient","id":"05afd17d-f9a0-4588-bb3a-ffefd2f6c271","meta":{"profile":["http://hl7.org/fhir/us/qicore/StructureDefinition/qicore-patient"]},"extension":[{"url":"http://hl7.org/fhir/us/core/StructureDefinition/us-core-race","extension":[{"url":"ombCategory","valueCoding":{"system":"urn:oid:2.16.840.1.113883.6.238","code":"2054-5","display":"Black or African American"}},{"url":"text","valueString":"Black or African American"}]},{"url":"http://hl7.org/fhir/us/core/StructureDefinition/us-core-ethnicity","extension":[{"url":"ombCategory","valueCoding":{"system":"urn:oid:2.16.840.1.113883.6.238","code":"2186-5","display":"Not Hispanic or Latino"}},{"url":"text","valueString":"Not Hispanic or Latino"}]}],"identifier":[{"type":{"coding":[{"system":"http://terminology.hl7.org/CodeSystem/v2-0203","code":"MR"}]},"system":"https://bonnie-fhir.healthit.gov/","value":"463131313187656"}],"name":[{"family":"NUMERPass","given":["ADT3MonthsBeforeMP"]}],"gender":"male","birthDate":"1970-06-15"},"request":{"method":"PUT","url":"Patient/05afd17d-f9a0-4588-bb3a-ffefd2f6c271"}},{"fullUrl":"https://madie.cms.gov/Encounter/d5dc48fa-7550-4015-be41-eee9641dae34","resource":{"resourceType":"Encounter","id":"d5dc48fa-7550-4015-be41-eee9641dae34","meta":{"profile":["http://hl7.org/fhir/us/qicore/StructureDefinition/qicore-encounter"]},"status":"finished","class":{"system":"http://terminology.hl7.org/CodeSystem/v3-ActCode","code":"AMB","display":"ambulatory"},"type":[{"coding":[{"system":"http://snomed.info/sct","version":"http://snomed.info/sct/731000124108/version/20240301","code":"185463005","display":"Visit out of hours (procedure)"}]}],"subject":{"reference":"Patient/05afd17d-f9a0-4588-bb3a-ffefd2f6c271"},"period":{"start":"2026-01-01T08:00:00.000+00:00","end":"2026-01-01T08:15:00.000+00:00"}},"request":{"method":"PUT","url":"Encounter/d5dc48fa-7550-4015-be41-eee9641dae34"}},{"fullUrl":"https://madie.cms.gov/Condition/191ac0f1-952e-47c5-9e20-e038571336d5","resource":{"resourceType":"Condition","id":"191ac0f1-952e-47c5-9e20-e038571336d5","meta":{"profile":["http://hl7.org/fhir/us/qicore/StructureDefinition/qicore-condition-problems-health-concerns"]},"clinicalStatus":{"coding":[{"system":"http://terminology.hl7.org/CodeSystem/condition-clinical","code":"active","display":"Active","userSelected":true}]},"verificationStatus":{"coding":[{"system":"http://terminology.hl7.org/CodeSystem/condition-ver-status","code":"confirmed"}]},"category":[{"coding":[{"system":"http://terminology.hl7.org/CodeSystem/condition-category","code":"problem-list-item","display":"Problem List Item"}]}],"code":{"coding":[{"system":"http://snomed.info/sct","version":"http://snomed.info/sct/731000124108/version/20240301","code":"254900004","display":"Carcinoma of prostate (disorder)"}]},"subject":{"reference":"Patient/05afd17d-f9a0-4588-bb3a-ffefd2f6c271"},"onsetDateTime":"2025-09-30T08:00:00.000+00:00"},"request":{"method":"PUT","url":"Condition/191ac0f1-952e-47c5-9e20-e038571336d5"}},{"fullUrl":"https://madie.cms.gov/Observation/366696de-717c-4a15-81dc-38709a6c3d06","resource":{"resourceType":"Observation","id":"366696de-717c-4a15-81dc-38709a6c3d06","meta":{"profile":["http://hl7.org/fhir/us/qicore/StructureDefinition/qicore-observation-lab"]},"status":"final","category":[{"coding":[{"system":"http://terminology.hl7.org/CodeSystem/observation-category","code":"imaging","display":"Imaging"}]}],"code":{"coding":[{"system":"http://loinc.org","version":"2.76","code":"38265-5","display":"DXA Radius and Ulna [T-score] Bone density"}]},"subject":{"reference":"Patient/05afd17d-f9a0-4588-bb3a-ffefd2f6c271"},"effectivePeriod":{"start":"2026-01-01T10:00:00.000+00:00"}},"request":{"method":"PUT","url":"Observation/366696de-717c-4a15-81dc-38709a6c3d06"}},{"fullUrl":"https://madie.cms.gov/Practitioner/86b4f958-8564-40f8-8d90-50da34994c73","resource":{"resourceType":"Practitioner","id":"86b4f958-8564-40f8-8d90-50da34994c73","meta":{"profile":["http://hl7.org/fhir/us/qicore/StructureDefinition/qicore-practitioner"]},"identifier":[{"use":"temp","system":"urn:oid:2.16.840.1.113883.4.336","value":"Practitioner-23"}],"active":true,"name":[{"family":"Careful","given":["Adam"],"prefix":["Dr"]}],"address":[{"use":"home","line":["534 Erewhon St"],"city":"PleasantVille","state":"UT","postalCode":"84414"}],"qualification":[{"identifier":[{"system":"http://example.org/UniversityIdentifier","value":"12345"}],"code":{"coding":[{"system":"http://terminology.hl7.org/CodeSystem/v2-0360|2.7","code":"BS","display":"Bachelor of Science"}],"text":"Bachelor of Science"},"period":{"start":"1996"},"issuer":{"display":"Example University"}}]},"request":{"method":"PUT","url":"Practitioner/86b4f958-8564-40f8-8d90-50da34994c73"}},{"fullUrl":"https://madie.cms.gov/MedicationRequest/30ddb9cd-8b59-4dd1-828b-9309a3a3a2ea","resource":{"resourceType":"MedicationRequest","id":"30ddb9cd-8b59-4dd1-828b-9309a3a3a2ea","meta":{"profile":["http://hl7.org/fhir/us/qicore/StructureDefinition/qicore-medicationrequest"]},"status":"active","intent":"order","doNotPerform":false,"medicationCodeableConcept":{"coding":[{"system":"http://www.nlm.nih.gov/research/umls/rxnorm","version":"04012024","code":"1115257","display":"1.5 ML leuprolide acetate 30 MG/ML Prefilled Syringe"}]},"subject":{"reference":"Patient/05afd17d-f9a0-4588-bb3a-ffefd2f6c271"},"authoredOn":"2025-10-01T08:00:00.000+00:00","requester":{"reference":"http://myGoodHealthcare.com/fhir/Practitioner/86b4f958-8564-40f8-8d90-50da34994c73"},"dosageInstruction":[{"timing":{"repeat":{"boundsPeriod":{"start":"2025-10-01T08:00:00.000+00:00","end":"2025-11-01T08:00:00.000+00:00"}}}}]},"request":{"method":"PUT","url":"MedicationRequest/30ddb9cd-8b59-4dd1-828b-9309a3a3a2ea"}},{"fullUrl":"https://madie.cms.gov/ServiceRequest/86d2d8a6-1075-411e-85a0-7d3cf6a29d77","resource":{"resourceType":"ServiceRequest","id":"86d2d8a6-1075-411e-85a0-7d3cf6a29d77","meta":{"profile":["http://hl7.org/fhir/us/qicore/StructureDefinition/qicore-servicerequest"]},"status":"active","intent":"order","code":{"coding":[{"system":"http://snomed.info/sct","version":"http://snomed.info/sct/731000124108/version/20240301","code":"456381000124102","display":"Injection of leuprolide acetate for twelve month period (regime/therapy)"}]},"subject":{"reference":"Patient/05afd17d-f9a0-4588-bb3a-ffefd2f6c271"},"authoredOn":"2025-10-01T08:00:00.000+00:00"},"request":{"method":"PUT","url":"ServiceRequest/86d2d8a6-1075-411e-85a0-7d3cf6a29d77"}},{"fullUrl":"https://madie.cms.gov/MeasureReport/14fb6ebb-3775-4022-9ee9-6261017772a3","resource":{"resourceType":"MeasureReport","id":"14fb6ebb-3775-4022-9ee9-6261017772a3","meta":{"profile":["http://hl7.org/fhir/us/cqfmeasures/StructureDefinition/test-case-cqfm"]},"contained":[{"resourceType":"Parameters","id":"e5ae1a9d-fc76-4943-83ad-48ea748f9f42-parameters","parameter":[{"name":"subject","valueString":"05afd17d-f9a0-4588-bb3a-ffefd2f6c271"}]}],"extension":[{"url":"http://hl7.org/fhir/StructureDefinition/cqf-inputParameters","valueReference":{"reference":"#e5ae1a9d-fc76-4943-83ad-48ea748f9f42-parameters"}},{"url":"http://hl7.org/fhir/us/cqfmeasures/StructureDefinition/cqfm-testCaseDescription","valueMarkdown":"Dx of Prostate Cancer and qualifying encounters. ADT 3 months before MP, DEXA within 3 mo after ADT. Edge. Passes NUMER criteria as expected."}],"modifierExtension":[{"url":"http://hl7.org/fhir/us/cqfmeasures/StructureDefinition/cqfm-isTestCase","valueBoolean":true}],"status":"complete","type":"individual","measure":"https://madie.cms.gov/Measure/CMS645FHIRBoneDensityProstateCancerAndrogenDeprivationTherapy","period":{"start":"2026-01-01","end":"2026-12-31"},"group":[{"id":"Group_1","population":[{"id":"InitialPopulation_1","code":{"coding":[{"system":"http://terminology.hl7.org/CodeSystem/measure-population","code":"initial-population","display":"Initial Population"}]},"count":1},{"id":"Denominator_1","code":{"coding":[{"system":"http://terminology.hl7.org/CodeSystem/measure-population","code":"denominator","display":"Denominator"}]},"count":1},{"id":"Numerator_1","code":{"coding":[{"system":"http://terminology.hl7.org/CodeSystem/measure-population","code":"numerator","display":"Numerator"}]},"count":1},{"id":"DenominatorException_1","code":{"coding":[{"system":"http://terminology.hl7.org/CodeSystem/measure-population","code":"denominator-exception","display":"Denominator Exception"}]},"count":0}],"measureScore":{"value":1.0}}],"evaluatedResource":[{"reference":"Patient/05afd17d-f9a0-4588-bb3a-ffefd2f6c271"},{"reference":"Encounter/d5dc48fa-7550-4015-be41-eee9641dae34"},{"reference":"Condition/191ac0f1-952e-47c5-9e20-e038571336d5"},{"reference":"Observation/366696de-717c-4a15-81dc-38709a6c3d06"},{"reference":"Practitioner/86b4f958-8564-40f8-8d90-50da34994c73"},{"reference":"MedicationRequest/30ddb9cd-8b59-4dd1-828b-9309a3a3a2ea"},{"reference":"ServiceRequest/86d2d8a6-1075-411e-85a0-7d3cf6a29d77"}]},"request":{"method":"PUT","url":"MeasureReport/14fb6ebb-3775-4022-9ee9-6261017772a3"}}]},"request":{"method":"PUT","url":"Bundle/60abda28bf0a01003e3f76bd"}},{"fullUrl":"Encounter/d5dc48fa-7550-4015-be41-eee9641dae34","resource":{"resourceType":"Encounter","id":"d5dc48fa-7550-4015-be41-eee9641dae34","meta":{"profile":["http://hl7.org/fhir/us/qicore/StructureDefinition/qicore-encounter"]},"status":"finished","class":{"system":"http://terminology.hl7.org/CodeSystem/v3-ActCode","code":"AMB","display":"ambulatory"},"type":[{"coding":[{"system":"http://snomed.info/sct","version":"http://snomed.info/sct/731000124108/version/20240301","code":"185463005","display":"Visit out of hours (procedure)"}]}],"subject":{"reference":"Patient/05afd17d-f9a0-4588-bb3a-ffefd2f6c271"},"period":{"start":"2026-01-01T08:00:00.000+00:00","end":"2026-01-01T08:15:00.000+00:00"}},"request":{"method":"PUT","url":"Encounter/d5dc48fa-7550-4015-be41-eee9641dae34"}},{"fullUrl":"Observation/366696de-717c-4a15-81dc-38709a6c3d06","resource":{"resourceType":"Observation","id":"366696de-717c-4a15-81dc-38709a6c3d06","meta":{"profile":["http://hl7.org/fhir/us/qicore/StructureDefinition/qicore-observation-lab"]},"status":"final","category":[{"coding":[{"system":"http://terminology.hl7.org/CodeSystem/observation-category","code":"imaging","display":"Imaging"}]}],"code":{"coding":[{"system":"http://loinc.org","version":"2.76","code":"38265-5","display":"DXA Radius and Ulna [T-score] Bone density"}]},"subject":{"reference":"Patient/05afd17d-f9a0-4588-bb3a-ffefd2f6c271"},"effectivePeriod":{"start":"2026-01-01T10:00:00.000+00:00"}},"request":{"method":"PUT","url":"Observation/366696de-717c-4a15-81dc-38709a6c3d06"}},{"fullUrl":"Patient/05afd17d-f9a0-4588-bb3a-ffefd2f6c271","resource":{"resourceType":"Patient","id":"05afd17d-f9a0-4588-bb3a-ffefd2f6c271","meta":{"profile":["http://hl7.org/fhir/us/qicore/StructureDefinition/qicore-patient"]},"extension":[{"url":"http://hl7.org/fhir/us/core/StructureDefinition/us-core-race","extension":[{"url":"ombCategory","valueCoding":{"system":"urn:oid:2.16.840.1.113883.6.238","code":"2054-5","display":"Black or African American"}},{"url":"text","valueString":"Black or African American"}]},{"url":"http://hl7.org/fhir/us/core/StructureDefinition/us-core-ethnicity","extension":[{"url":"ombCategory","valueCoding":{"system":"urn:oid:2.16.840.1.113883.6.238","code":"2186-5","display":"Not Hispanic or Latino"}},{"url":"text","valueString":"Not Hispanic or Latino"}]}],"identifier":[{"type":{"coding":[{"system":"http://terminology.hl7.org/CodeSystem/v2-0203","code":"MR"}]},"system":"https://bonnie-fhir.healthit.gov/","value":"463131313187656"}],"name":[{"family":"NUMERPass","given":["ADT3MonthsBeforeMP"]}],"gender":"male","birthDate":"1970-06-15"},"request":{"method":"PUT","url":"Patient/05afd17d-f9a0-4588-bb3a-ffefd2f6c271"}},{"fullUrl":"MedicationRequest/30ddb9cd-8b59-4dd1-828b-9309a3a3a2ea","resource":{"resourceType":"MedicationRequest","id":"30ddb9cd-8b59-4dd1-828b-9309a3a3a2ea","meta":{"profile":["http://hl7.org/fhir/us/qicore/StructureDefinition/qicore-medicationrequest"]},"status":"active","intent":"order","doNotPerform":false,"medicationCodeableConcept":{"coding":[{"system":"http://www.nlm.nih.gov/research/umls/rxnorm","version":"04012024","code":"1115257","display":"1.5 ML leuprolide acetate 30 MG/ML Prefilled Syringe"}]},"subject":{"reference":"Patient/05afd17d-f9a0-4588-bb3a-ffefd2f6c271"},"authoredOn":"2025-10-01T08:00:00.000+00:00","requester":{"reference":"http://myGoodHealthcare.com/fhir/Practitioner/86b4f958-8564-40f8-8d90-50da34994c73"},"dosageInstruction":[{"timing":{"repeat":{"boundsPeriod":{"start":"2025-10-01T08:00:00.000+00:00","end":"2025-11-01T08:00:00.000+00:00"}}}}]},"request":{"method":"PUT","url":"MedicationRequest/30ddb9cd-8b59-4dd1-828b-9309a3a3a2ea"}},{"fullUrl":"Practitioner/86b4f958-8564-40f8-8d90-50da34994c73","resource":{"resourceType":"Practitioner","id":"86b4f958-8564-40f8-8d90-50da34994c73","meta":{"profile":["http://hl7.org/fhir/us/qicore/StructureDefinition/qicore-practitioner"]},"identifier":[{"use":"temp","system":"urn:oid:2.16.840.1.113883.4.336","value":"Practitioner-23"}],"active":true,"name":[{"family":"Careful","given":["Adam"],"prefix":["Dr"]}],"address":[{"use":"home","line":["534 Erewhon St"],"city":"PleasantVille","state":"UT","postalCode":"84414"}],"qualification":[{"identifier":[{"system":"http://example.org/UniversityIdentifier","value":"12345"}],"code":{"coding":[{"system":"http://terminology.hl7.org/CodeSystem/v2-0360|2.7","code":"BS","display":"Bachelor of Science"}],"text":"Bachelor of Science"},"period":{"start":"1996"},"issuer":{"display":"Example University"}}]},"request":{"method":"PUT","url":"Practitioner/86b4f958-8564-40f8-8d90-50da34994c73"}},{"fullUrl":"Condition/191ac0f1-952e-47c5-9e20-e038571336d5","resource":{"resourceType":"Condition","id":"191ac0f1-952e-47c5-9e20-e038571336d5","meta":{"profile":["http://hl7.org/fhir/us/qicore/StructureDefinition/qicore-condition-problems-health-concerns"]},"clinicalStatus":{"coding":[{"system":"http://terminology.hl7.org/CodeSystem/condition-clinical","code":"active","display":"Active","userSelected":true}]},"verificationStatus":{"coding":[{"system":"http://terminology.hl7.org/CodeSystem/condition-ver-status","code":"confirmed"}]},"category":[{"coding":[{"system":"http://terminology.hl7.org/CodeSystem/condition-category","code":"problem-list-item","display":"Problem List Item"}]}],"code":{"coding":[{"system":"http://snomed.info/sct","version":"http://snomed.info/sct/731000124108/version/20240301","code":"254900004","display":"Carcinoma of prostate (disorder)"}]},"subject":{"reference":"Patient/05afd17d-f9a0-4588-bb3a-ffefd2f6c271"},"onsetDateTime":"2025-09-30T08:00:00.000+00:00"},"request":{"method":"PUT","url":"Condition/191ac0f1-952e-47c5-9e20-e038571336d5"}},{"fullUrl":"MeasureReport/14fb6ebb-3775-4022-9ee9-6261017772a3","resource":{"resourceType":"MeasureReport","id":"14fb6ebb-3775-4022-9ee9-6261017772a3","meta":{"profile":["http://hl7.org/fhir/us/cqfmeasures/StructureDefinition/test-case-cqfm"]},"contained":[{"resourceType":"Parameters","id":"e5ae1a9d-fc76-4943-83ad-48ea748f9f42-parameters","parameter":[{"name":"subject","valueString":"05afd17d-f9a0-4588-bb3a-ffefd2f6c271"}]}],"extension":[{"url":"http://hl7.org/fhir/StructureDefinition/cqf-inputParameters","valueReference":{"reference":"#e5ae1a9d-fc76-4943-83ad-48ea748f9f42-parameters"}},{"url":"http://hl7.org/fhir/us/cqfmeasures/StructureDefinition/cqfm-testCaseDescription","valueMarkdown":"Dx of Prostate Cancer and qualifying encounters. ADT 3 months before MP, DEXA within 3 mo after ADT. Edge. Passes NUMER criteria as expected."}],"modifierExtension":[{"url":"http://hl7.org/fhir/us/cqfmeasures/StructureDefinition/cqfm-isTestCase","valueBoolean":true}],"status":"complete","type":"individual","measure":"https://madie.cms.gov/Measure/CMS645FHIRBoneDensityProstateCancerAndrogenDeprivationTherapy","period":{"start":"2026-01-01","end":"2026-12-31"},"group":[{"id":"Group_1","population":[{"id":"InitialPopulation_1","code":{"coding":[{"system":"http://terminology.hl7.org/CodeSystem/measure-population","code":"initial-population","display":"Initial Population"}]},"count":1},{"id":"Denominator_1","code":{"coding":[{"system":"http://terminology.hl7.org/CodeSystem/measure-population","code":"denominator","display":"Denominator"}]},"count":1},{"id":"Numerator_1","code":{"coding":[{"system":"http://terminology.hl7.org/CodeSystem/measure-population","code":"numerator","display":"Numerator"}]},"count":1},{"id":"DenominatorException_1","code":{"coding":[{"system":"http://terminology.hl7.org/CodeSystem/measure-population","code":"denominator-exception","display":"Denominator Exception"}]},"count":0}],"measureScore":{"value":1.0}}],"evaluatedResource":[{"reference":"Patient/05afd17d-f9a0-4588-bb3a-ffefd2f6c271"},{"reference":"Encounter/d5dc48fa-7550-4015-be41-eee9641dae34"},{"reference":"Condition/191ac0f1-952e-47c5-9e20-e038571336d5"},{"reference":"Observation/366696de-717c-4a15-81dc-38709a6c3d06"},{"reference":"Practitioner/86b4f958-8564-40f8-8d90-50da34994c73"},{"reference":"MedicationRequest/30ddb9cd-8b59-4dd1-828b-9309a3a3a2ea"},{"reference":"ServiceRequest/86d2d8a6-1075-411e-85a0-7d3cf6a29d77"}]},"request":{"method":"PUT","url":"MeasureReport/14fb6ebb-3775-4022-9ee9-6261017772a3"}},{"fullUrl":"ServiceRequest/86d2d8a6-1075-411e-85a0-7d3cf6a29d77","resource":{"resourceType":"ServiceRequest","id":"86d2d8a6-1075-411e-85a0-7d3cf6a29d77","meta":{"profile":["http://hl7.org/fhir/us/qicore/StructureDefinition/qicore-servicerequest"]},"status":"active","intent":"order","code":{"coding":[{"system":"http://snomed.info/sct","version":"http://snomed.info/sct/731000124108/version/20240301","code":"456381000124102","display":"Injection of leuprolide acetate for twelve month period (regime/therapy)"}]},"subject":{"reference":"Patient/05afd17d-f9a0-4588-bb3a-ffefd2f6c271"},"authoredOn":"2025-10-01T08:00:00.000+00:00"},"request":{"method":"PUT","url":"ServiceRequest/86d2d8a6-1075-411e-85a0-7d3cf6a29d77"}}]}