{"resourceType":"Bundle","id":"tests-2e85a096-f00c-48ce-8911-1691a916ab42-bundle","type":"transaction","entry":[{"fullUrl":"Condition/018f8ef8-24a3-4199-9139-67f955a56935","resource":{"resourceType":"Condition","id":"018f8ef8-24a3-4199-9139-67f955a56935","meta":{"profile":["http://hl7.org/fhir/us/qicore/StructureDefinition/qicore-condition-problems-health-concerns"]},"clinicalStatus":{"coding":[{"system":"http://terminology.hl7.org/CodeSystem/condition-clinical","code":"active","display":"Active","userSelected":true}]},"verificationStatus":{"coding":[{"system":"http://terminology.hl7.org/CodeSystem/condition-ver-status","code":"confirmed","display":"Confirmed","userSelected":true}]},"category":[{"coding":[{"system":"http://terminology.hl7.org/CodeSystem/condition-category","code":"problem-list-item","display":"Problem List Item"}]}],"code":{"coding":[{"system":"http://snomed.info/sct","version":"http://snomed.info/sct/731000124108/version/20240401","code":"254900004","display":"Carcinoma of prostate (disorder)","userSelected":true}]},"subject":{"reference":"Patient/2e85a096-f00c-48ce-8911-1691a916ab42"},"onsetPeriod":{"start":"2026-07-25T08:00:00.000+00:00"}},"request":{"method":"PUT","url":"Condition/018f8ef8-24a3-4199-9139-67f955a56935"}},{"fullUrl":"Bundle/62bb3859e8081f5ef5e199f5","resource":{"resourceType":"Bundle","id":"62bb3859e8081f5ef5e199f5","type":"transaction","entry":[{"fullUrl":"https://madie.cms.gov/Patient/2e85a096-f00c-48ce-8911-1691a916ab42","resource":{"resourceType":"Patient","id":"2e85a096-f00c-48ce-8911-1691a916ab42","meta":{"profile":["http://hl7.org/fhir/us/qicore/StructureDefinition/qicore-patient"]},"extension":[{"url":"http://hl7.org/fhir/us/core/StructureDefinition/us-core-race","extension":[{"url":"ombCategory","valueCoding":{"system":"urn:oid:2.16.840.1.113883.6.238","code":"1002-5","display":"American Indian or Alaska Native","userSelected":true}},{"url":"text","valueString":"American Indian or Alaska Native"}]},{"url":"http://hl7.org/fhir/us/core/StructureDefinition/us-core-ethnicity","extension":[{"url":"ombCategory","valueCoding":{"system":"urn:oid:2.16.840.1.113883.6.238","code":"2135-2","display":"Hispanic or Latino","userSelected":true}},{"url":"text","valueString":"Hispanic or Latino"}]}],"identifier":[{"type":{"coding":[{"system":"http://terminology.hl7.org/CodeSystem/v2-0203","code":"MR"}]},"system":"https://bonnie-fhir.healthit.gov/","value":"62bb3859e8081f5ef5e199f5"}],"name":[{"family":"IPPFail","given":["NoADTInMP"]}],"gender":"male","birthDate":"1962-07-19"},"request":{"method":"PUT","url":"Patient/2e85a096-f00c-48ce-8911-1691a916ab42"}},{"fullUrl":"https://madie.cms.gov/Encounter/38e9674b-a4d7-49ec-8759-761214805cbd","resource":{"resourceType":"Encounter","id":"38e9674b-a4d7-49ec-8759-761214805cbd","meta":{"profile":["http://hl7.org/fhir/us/qicore/StructureDefinition/qicore-encounter"]},"status":"finished","class":{"system":"http://terminology.hl7.org/CodeSystem/v3-ActCode","code":"AMB","display":"ambulatory"},"type":[{"coding":[{"system":"http://snomed.info/sct","version":"http://snomed.info/sct/731000124108/version/20240401","code":"185463005","display":"Visit out of hours (procedure)","userSelected":true}]}],"subject":{"reference":"Patient/2e85a096-f00c-48ce-8911-1691a916ab42"},"period":{"start":"2026-09-29T08:00:00.000+00:00","end":"2026-09-29T08:15:00.000+00:00"}},"request":{"method":"PUT","url":"Encounter/38e9674b-a4d7-49ec-8759-761214805cbd"}},{"fullUrl":"https://madie.cms.gov/Condition/018f8ef8-24a3-4199-9139-67f955a56935","resource":{"resourceType":"Condition","id":"018f8ef8-24a3-4199-9139-67f955a56935","meta":{"profile":["http://hl7.org/fhir/us/qicore/StructureDefinition/qicore-condition-problems-health-concerns"]},"clinicalStatus":{"coding":[{"system":"http://terminology.hl7.org/CodeSystem/condition-clinical","code":"active","display":"Active","userSelected":true}]},"verificationStatus":{"coding":[{"system":"http://terminology.hl7.org/CodeSystem/condition-ver-status","code":"confirmed","display":"Confirmed","userSelected":true}]},"category":[{"coding":[{"system":"http://terminology.hl7.org/CodeSystem/condition-category","code":"problem-list-item","display":"Problem List Item"}]}],"code":{"coding":[{"system":"http://snomed.info/sct","version":"http://snomed.info/sct/731000124108/version/20240401","code":"254900004","display":"Carcinoma of prostate (disorder)","userSelected":true}]},"subject":{"reference":"Patient/2e85a096-f00c-48ce-8911-1691a916ab42"},"onsetPeriod":{"start":"2026-07-25T08:00:00.000+00:00"}},"request":{"method":"PUT","url":"Condition/018f8ef8-24a3-4199-9139-67f955a56935"}},{"fullUrl":"https://madie.cms.gov/ServiceRequest/bb015706-f4be-4997-9f66-79640b9cee24","resource":{"resourceType":"ServiceRequest","id":"bb015706-f4be-4997-9f66-79640b9cee24","meta":{"profile":["http://hl7.org/fhir/us/qicore/StructureDefinition/qicore-servicerequest"]},"status":"active","intent":"order","code":{"coding":[{"system":"http://snomed.info/sct","code":"456381000124102","display":"Injection of leuprolide acetate for twelve month period (regime/therapy)","userSelected":true}]},"subject":{"reference":"Patient/2e85a096-f00c-48ce-8911-1691a916ab42"},"authoredOn":"2026-09-25T08:00:00.000+00:00"},"request":{"method":"PUT","url":"ServiceRequest/bb015706-f4be-4997-9f66-79640b9cee24"}},{"fullUrl":"https://madie.cms.gov/MeasureReport/91800e36-bd55-4221-82d7-a2bdbc6c5f75","resource":{"resourceType":"MeasureReport","id":"91800e36-bd55-4221-82d7-a2bdbc6c5f75","meta":{"profile":["http://hl7.org/fhir/us/cqfmeasures/StructureDefinition/test-case-cqfm"]},"contained":[{"resourceType":"Parameters","id":"1a2b43ed-a51a-4e25-91c2-40eaad743a60-parameters","parameter":[{"name":"subject","valueString":"2e85a096-f00c-48ce-8911-1691a916ab42"}]}],"extension":[{"url":"http://hl7.org/fhir/StructureDefinition/cqf-inputParameters","valueReference":{"reference":"#1a2b43ed-a51a-4e25-91c2-40eaad743a60-parameters"}},{"url":"http://hl7.org/fhir/us/cqfmeasures/StructureDefinition/cqfm-testCaseDescription","valueMarkdown":"Dx of Prostate Cancer with qualifying encounter(s) in MP, but no ADT during MP"}],"modifierExtension":[{"url":"http://hl7.org/fhir/us/cqfmeasures/StructureDefinition/cqfm-isTestCase","valueBoolean":true}],"status":"complete","type":"individual","measure":"https://madie.cms.gov/Measure/CMS645FHIRBoneDensityProstateCancerAndrogenDeprivationTherapy","period":{"start":"2026-01-01","end":"2026-12-31"},"group":[{"id":"Group_1","population":[{"id":"InitialPopulation_1","code":{"coding":[{"system":"http://terminology.hl7.org/CodeSystem/measure-population","code":"initial-population","display":"Initial Population"}]},"count":0},{"id":"Denominator_1","code":{"coding":[{"system":"http://terminology.hl7.org/CodeSystem/measure-population","code":"denominator","display":"Denominator"}]},"count":0},{"id":"Numerator_1","code":{"coding":[{"system":"http://terminology.hl7.org/CodeSystem/measure-population","code":"numerator","display":"Numerator"}]},"count":0},{"id":"DenominatorException_1","code":{"coding":[{"system":"http://terminology.hl7.org/CodeSystem/measure-population","code":"denominator-exception","display":"Denominator Exception"}]},"count":0}],"measureScore":{"value":1.0}}],"evaluatedResource":[{"reference":"Patient/2e85a096-f00c-48ce-8911-1691a916ab42"},{"reference":"Encounter/38e9674b-a4d7-49ec-8759-761214805cbd"},{"reference":"Condition/018f8ef8-24a3-4199-9139-67f955a56935"},{"reference":"ServiceRequest/bb015706-f4be-4997-9f66-79640b9cee24"}]},"request":{"method":"PUT","url":"MeasureReport/91800e36-bd55-4221-82d7-a2bdbc6c5f75"}}]},"request":{"method":"PUT","url":"Bundle/62bb3859e8081f5ef5e199f5"}},{"fullUrl":"Encounter/38e9674b-a4d7-49ec-8759-761214805cbd","resource":{"resourceType":"Encounter","id":"38e9674b-a4d7-49ec-8759-761214805cbd","meta":{"profile":["http://hl7.org/fhir/us/qicore/StructureDefinition/qicore-encounter"]},"status":"finished","class":{"system":"http://terminology.hl7.org/CodeSystem/v3-ActCode","code":"AMB","display":"ambulatory"},"type":[{"coding":[{"system":"http://snomed.info/sct","version":"http://snomed.info/sct/731000124108/version/20240401","code":"185463005","display":"Visit out of hours (procedure)","userSelected":true}]}],"subject":{"reference":"Patient/2e85a096-f00c-48ce-8911-1691a916ab42"},"period":{"start":"2026-09-29T08:00:00.000+00:00","end":"2026-09-29T08:15:00.000+00:00"}},"request":{"method":"PUT","url":"Encounter/38e9674b-a4d7-49ec-8759-761214805cbd"}},{"fullUrl":"MeasureReport/91800e36-bd55-4221-82d7-a2bdbc6c5f75","resource":{"resourceType":"MeasureReport","id":"91800e36-bd55-4221-82d7-a2bdbc6c5f75","meta":{"profile":["http://hl7.org/fhir/us/cqfmeasures/StructureDefinition/test-case-cqfm"]},"contained":[{"resourceType":"Parameters","id":"1a2b43ed-a51a-4e25-91c2-40eaad743a60-parameters","parameter":[{"name":"subject","valueString":"2e85a096-f00c-48ce-8911-1691a916ab42"}]}],"extension":[{"url":"http://hl7.org/fhir/StructureDefinition/cqf-inputParameters","valueReference":{"reference":"#1a2b43ed-a51a-4e25-91c2-40eaad743a60-parameters"}},{"url":"http://hl7.org/fhir/us/cqfmeasures/StructureDefinition/cqfm-testCaseDescription","valueMarkdown":"Dx of Prostate Cancer with qualifying encounter(s) in MP, but no ADT during MP"}],"modifierExtension":[{"url":"http://hl7.org/fhir/us/cqfmeasures/StructureDefinition/cqfm-isTestCase","valueBoolean":true}],"status":"complete","type":"individual","measure":"https://madie.cms.gov/Measure/CMS645FHIRBoneDensityProstateCancerAndrogenDeprivationTherapy","period":{"start":"2026-01-01","end":"2026-12-31"},"group":[{"id":"Group_1","population":[{"id":"InitialPopulation_1","code":{"coding":[{"system":"http://terminology.hl7.org/CodeSystem/measure-population","code":"initial-population","display":"Initial Population"}]},"count":0},{"id":"Denominator_1","code":{"coding":[{"system":"http://terminology.hl7.org/CodeSystem/measure-population","code":"denominator","display":"Denominator"}]},"count":0},{"id":"Numerator_1","code":{"coding":[{"system":"http://terminology.hl7.org/CodeSystem/measure-population","code":"numerator","display":"Numerator"}]},"count":0},{"id":"DenominatorException_1","code":{"coding":[{"system":"http://terminology.hl7.org/CodeSystem/measure-population","code":"denominator-exception","display":"Denominator Exception"}]},"count":0}],"measureScore":{"value":1.0}}],"evaluatedResource":[{"reference":"Patient/2e85a096-f00c-48ce-8911-1691a916ab42"},{"reference":"Encounter/38e9674b-a4d7-49ec-8759-761214805cbd"},{"reference":"Condition/018f8ef8-24a3-4199-9139-67f955a56935"},{"reference":"ServiceRequest/bb015706-f4be-4997-9f66-79640b9cee24"}]},"request":{"method":"PUT","url":"MeasureReport/91800e36-bd55-4221-82d7-a2bdbc6c5f75"}},{"fullUrl":"ServiceRequest/bb015706-f4be-4997-9f66-79640b9cee24","resource":{"resourceType":"ServiceRequest","id":"bb015706-f4be-4997-9f66-79640b9cee24","meta":{"profile":["http://hl7.org/fhir/us/qicore/StructureDefinition/qicore-servicerequest"]},"status":"active","intent":"order","code":{"coding":[{"system":"http://snomed.info/sct","code":"456381000124102","display":"Injection of leuprolide acetate for twelve month period (regime/therapy)","userSelected":true}]},"subject":{"reference":"Patient/2e85a096-f00c-48ce-8911-1691a916ab42"},"authoredOn":"2026-09-25T08:00:00.000+00:00"},"request":{"method":"PUT","url":"ServiceRequest/bb015706-f4be-4997-9f66-79640b9cee24"}},{"fullUrl":"Patient/2e85a096-f00c-48ce-8911-1691a916ab42","resource":{"resourceType":"Patient","id":"2e85a096-f00c-48ce-8911-1691a916ab42","meta":{"profile":["http://hl7.org/fhir/us/qicore/StructureDefinition/qicore-patient"]},"extension":[{"url":"http://hl7.org/fhir/us/core/StructureDefinition/us-core-race","extension":[{"url":"ombCategory","valueCoding":{"system":"urn:oid:2.16.840.1.113883.6.238","code":"1002-5","display":"American Indian or Alaska Native","userSelected":true}},{"url":"text","valueString":"American Indian or Alaska Native"}]},{"url":"http://hl7.org/fhir/us/core/StructureDefinition/us-core-ethnicity","extension":[{"url":"ombCategory","valueCoding":{"system":"urn:oid:2.16.840.1.113883.6.238","code":"2135-2","display":"Hispanic or Latino","userSelected":true}},{"url":"text","valueString":"Hispanic or Latino"}]}],"identifier":[{"type":{"coding":[{"system":"http://terminology.hl7.org/CodeSystem/v2-0203","code":"MR"}]},"system":"https://bonnie-fhir.healthit.gov/","value":"62bb3859e8081f5ef5e199f5"}],"name":[{"family":"IPPFail","given":["NoADTInMP"]}],"gender":"male","birthDate":"1962-07-19"},"request":{"method":"PUT","url":"Patient/2e85a096-f00c-48ce-8911-1691a916ab42"}}]}