{"resourceType":"Bundle","id":"tests-b5663718-0277-4e04-8ddf-b70b07893b6d-bundle","type":"transaction","entry":[{"resource":{"resourceType":"MedicationRequest","id":"a9cfa96e-8481-4c57-b48b-3a18b92c47b0","meta":{"profile":["http://hl7.org/fhir/us/qicore/StructureDefinition/qicore-medicationrequest"]},"status":"active","intent":"order","medicationCodeableConcept":{"coding":[{"system":"http://www.nlm.nih.gov/research/umls/rxnorm","version":"2025-01","code":"752884","display":"0.375 ML leuprolide acetate 120 MG/ML Prefilled Syringe","userSelected":true}]},"subject":{"reference":"Patient/b5663718-0277-4e04-8ddf-b70b07893b6d"},"authoredOn":"2025-09-03T08:00:00.000+00:00","requester":{"reference":"http://myGoodHealthcare.com/fhir/Practitioner/646346"},"dosageInstruction":[{"timing":{"repeat":{"boundsPeriod":{"start":"2025-09-03T08:00:00.000+00:00"}}}}]},"request":{"method":"PUT","url":"MedicationRequest/a9cfa96e-8481-4c57-b48b-3a18b92c47b0"}},{"resource":{"resourceType":"Condition","id":"5e68c60c-1432-4ba0-a2e5-7fd80e725afe","meta":{"profile":["http://hl7.org/fhir/us/qicore/StructureDefinition/qicore-condition-problems-health-concerns"]},"clinicalStatus":{"coding":[{"system":"http://terminology.hl7.org/CodeSystem/condition-clinical","code":"active","display":"Active","userSelected":true}]},"verificationStatus":{"coding":[{"system":"http://terminology.hl7.org/CodeSystem/condition-ver-status","code":"confirmed","display":"Unconfirmed","userSelected":true}]},"category":[{"coding":[{"system":"http://terminology.hl7.org/CodeSystem/condition-category","code":"problem-list-item","display":"Problem List Item"}]}],"code":{"coding":[{"system":"http://snomed.info/sct","version":"http://snomed.info/sct/731000124108/version/20240401","code":"254900004","display":"Carcinoma of prostate (disorder)","userSelected":true}]},"subject":{"reference":"Patient/b5663718-0277-4e04-8ddf-b70b07893b6d"},"onsetPeriod":{"start":"2026-03-03T08:00:00.000+00:00"}},"request":{"method":"PUT","url":"Condition/5e68c60c-1432-4ba0-a2e5-7fd80e725afe"}},{"resource":{"resourceType":"Bundle","id":"62bb3859e8081f5ef5e199f5","type":"transaction","entry":[{"fullUrl":"https://madie.cms.gov/Patient/b5663718-0277-4e04-8ddf-b70b07893b6d","resource":{"resourceType":"Patient","id":"b5663718-0277-4e04-8ddf-b70b07893b6d","meta":{"profile":["http://hl7.org/fhir/us/qicore/StructureDefinition/qicore-patient"]},"extension":[{"url":"http://hl7.org/fhir/us/core/StructureDefinition/us-core-race","extension":[{"url":"ombCategory","valueCoding":{"system":"urn:oid:2.16.840.1.113883.6.238","code":"1002-5","display":"American Indian or Alaska Native","userSelected":true}},{"url":"text","valueString":"American Indian or Alaska Native"}]},{"url":"http://hl7.org/fhir/us/core/StructureDefinition/us-core-ethnicity","extension":[{"url":"ombCategory","valueCoding":{"system":"urn:oid:2.16.840.1.113883.6.238","code":"2135-2","display":"Hispanic or Latino","userSelected":true}},{"url":"text","valueString":"Hispanic or Latino"}]}],"identifier":[{"type":{"coding":[{"system":"http://terminology.hl7.org/CodeSystem/v2-0203","code":"MR"}]},"system":"https://bonnie-fhir.healthit.gov/","value":"62bb3859e8081f5ef5e199f5"}],"name":[{"family":"DENOMFail","given":["CancerDxUnconfirmed"]}],"gender":"male","birthDate":"1952-07-19"},"request":{"method":"PUT","url":"Patient/b5663718-0277-4e04-8ddf-b70b07893b6d"}},{"fullUrl":"https://madie.cms.gov/Encounter/d3c973d9-2784-4484-828d-b37c3a126f26","resource":{"resourceType":"Encounter","id":"d3c973d9-2784-4484-828d-b37c3a126f26","meta":{"profile":["http://hl7.org/fhir/us/qicore/StructureDefinition/qicore-encounter"]},"status":"finished","class":{"system":"http://terminology.hl7.org/CodeSystem/v3-ActCode","code":"AMB","display":"ambulatory"},"type":[{"coding":[{"system":"http://snomed.info/sct","version":"http://snomed.info/sct/731000124108/version/20240401","code":"185463005","display":"Visit out of hours (procedure)","userSelected":true}]}],"subject":{"reference":"Patient/b5663718-0277-4e04-8ddf-b70b07893b6d"},"period":{"start":"2026-03-03T08:00:00.000+00:00","end":"2026-03-03T08:15:00.000+00:00"}},"request":{"method":"PUT","url":"Encounter/d3c973d9-2784-4484-828d-b37c3a126f26"}},{"fullUrl":"https://madie.cms.gov/Condition/5e68c60c-1432-4ba0-a2e5-7fd80e725afe","resource":{"resourceType":"Condition","id":"5e68c60c-1432-4ba0-a2e5-7fd80e725afe","meta":{"profile":["http://hl7.org/fhir/us/qicore/StructureDefinition/qicore-condition-problems-health-concerns"]},"clinicalStatus":{"coding":[{"system":"http://terminology.hl7.org/CodeSystem/condition-clinical","code":"active","display":"Active","userSelected":true}]},"verificationStatus":{"coding":[{"system":"http://terminology.hl7.org/CodeSystem/condition-ver-status","code":"confirmed","display":"Unconfirmed","userSelected":true}]},"category":[{"coding":[{"system":"http://terminology.hl7.org/CodeSystem/condition-category","code":"problem-list-item","display":"Problem List Item"}]}],"code":{"coding":[{"system":"http://snomed.info/sct","version":"http://snomed.info/sct/731000124108/version/20240401","code":"254900004","display":"Carcinoma of prostate (disorder)","userSelected":true}]},"subject":{"reference":"Patient/b5663718-0277-4e04-8ddf-b70b07893b6d"},"onsetPeriod":{"start":"2026-03-03T08:00:00.000+00:00"}},"request":{"method":"PUT","url":"Condition/5e68c60c-1432-4ba0-a2e5-7fd80e725afe"}},{"fullUrl":"https://madie.cms.gov/MedicationRequest/a9cfa96e-8481-4c57-b48b-3a18b92c47b0","resource":{"resourceType":"MedicationRequest","id":"a9cfa96e-8481-4c57-b48b-3a18b92c47b0","meta":{"profile":["http://hl7.org/fhir/us/qicore/StructureDefinition/qicore-medicationrequest"]},"status":"active","intent":"order","medicationCodeableConcept":{"coding":[{"system":"http://www.nlm.nih.gov/research/umls/rxnorm","version":"2025-01","code":"752884","display":"0.375 ML leuprolide acetate 120 MG/ML Prefilled Syringe","userSelected":true}]},"subject":{"reference":"Patient/b5663718-0277-4e04-8ddf-b70b07893b6d"},"authoredOn":"2025-09-03T08:00:00.000+00:00","requester":{"reference":"http://myGoodHealthcare.com/fhir/Practitioner/646346"},"dosageInstruction":[{"timing":{"repeat":{"boundsPeriod":{"start":"2025-09-03T08:00:00.000+00:00"}}}}]},"request":{"method":"PUT","url":"MedicationRequest/a9cfa96e-8481-4c57-b48b-3a18b92c47b0"}},{"fullUrl":"https://madie.cms.gov/ServiceRequest/bd895cf2-38df-4558-b40d-e146c79ddeb5","resource":{"resourceType":"ServiceRequest","id":"bd895cf2-38df-4558-b40d-e146c79ddeb5","meta":{"profile":["http://hl7.org/fhir/us/qicore/StructureDefinition/qicore-servicerequest"]},"status":"active","intent":"order","code":{"coding":[{"system":"http://snomed.info/sct","code":"456381000124102","display":"Injection of leuprolide acetate for twelve month period (regime/therapy)","userSelected":true}]},"subject":{"reference":"Patient/b5663718-0277-4e04-8ddf-b70b07893b6d"},"authoredOn":"2025-09-03T08:00:00.000+00:00"},"request":{"method":"PUT","url":"ServiceRequest/bd895cf2-38df-4558-b40d-e146c79ddeb5"}},{"fullUrl":"https://madie.cms.gov/MeasureReport/d638cafb-a5e0-46d4-a87e-96c0068f4666","resource":{"resourceType":"MeasureReport","id":"d638cafb-a5e0-46d4-a87e-96c0068f4666","meta":{"profile":["http://hl7.org/fhir/us/cqfmeasures/StructureDefinition/test-case-cqfm"]},"contained":[{"resourceType":"Parameters","id":"9d59c37e-5df9-4c0c-a449-64f847be848c-parameters","parameter":[{"name":"subject","valueString":"b5663718-0277-4e04-8ddf-b70b07893b6d"}]}],"extension":[{"url":"http://hl7.org/fhir/StructureDefinition/cqf-inputParameters","valueReference":{"reference":"#9d59c37e-5df9-4c0c-a449-64f847be848c-parameters"}},{"url":"http://hl7.org/fhir/us/cqfmeasures/StructureDefinition/cqfm-testCaseDescription","valueMarkdown":"Prostate cancer diagnosis unconfirmed. "}],"modifierExtension":[{"url":"http://hl7.org/fhir/us/cqfmeasures/StructureDefinition/cqfm-isTestCase","valueBoolean":true}],"status":"complete","type":"individual","measure":"https://madie.cms.gov/Measure/CMS645FHIRBoneDensityProstateCancerAndrogenDeprivationTherapy","period":{"start":"2026-01-01","end":"2026-12-31"},"group":[{"id":"Group_1","population":[{"id":"InitialPopulation_1","code":{"coding":[{"system":"http://terminology.hl7.org/CodeSystem/measure-population","code":"initial-population","display":"Initial Population"}]},"count":0},{"id":"Denominator_1","code":{"coding":[{"system":"http://terminology.hl7.org/CodeSystem/measure-population","code":"denominator","display":"Denominator"}]},"count":0},{"id":"Numerator_1","code":{"coding":[{"system":"http://terminology.hl7.org/CodeSystem/measure-population","code":"numerator","display":"Numerator"}]},"count":0},{"id":"DenominatorException_1","code":{"coding":[{"system":"http://terminology.hl7.org/CodeSystem/measure-population","code":"denominator-exception","display":"Denominator Exception"}]},"count":0}],"measureScore":{"value":1.0}}],"evaluatedResource":[{"reference":"Patient/b5663718-0277-4e04-8ddf-b70b07893b6d"},{"reference":"Encounter/d3c973d9-2784-4484-828d-b37c3a126f26"},{"reference":"Condition/5e68c60c-1432-4ba0-a2e5-7fd80e725afe"},{"reference":"MedicationRequest/a9cfa96e-8481-4c57-b48b-3a18b92c47b0"},{"reference":"ServiceRequest/bd895cf2-38df-4558-b40d-e146c79ddeb5"}]},"request":{"method":"PUT","url":"MeasureReport/d638cafb-a5e0-46d4-a87e-96c0068f4666"}}]},"request":{"method":"PUT","url":"Bundle/62bb3859e8081f5ef5e199f5"}},{"resource":{"resourceType":"ServiceRequest","id":"bd895cf2-38df-4558-b40d-e146c79ddeb5","meta":{"profile":["http://hl7.org/fhir/us/qicore/StructureDefinition/qicore-servicerequest"]},"status":"active","intent":"order","code":{"coding":[{"system":"http://snomed.info/sct","code":"456381000124102","display":"Injection of leuprolide acetate for twelve month period (regime/therapy)","userSelected":true}]},"subject":{"reference":"Patient/b5663718-0277-4e04-8ddf-b70b07893b6d"},"authoredOn":"2025-09-03T08:00:00.000+00:00"},"request":{"method":"PUT","url":"ServiceRequest/bd895cf2-38df-4558-b40d-e146c79ddeb5"}},{"resource":{"resourceType":"MeasureReport","id":"d638cafb-a5e0-46d4-a87e-96c0068f4666","meta":{"profile":["http://hl7.org/fhir/us/cqfmeasures/StructureDefinition/test-case-cqfm"]},"contained":[{"resourceType":"Parameters","id":"9d59c37e-5df9-4c0c-a449-64f847be848c-parameters","parameter":[{"name":"subject","valueString":"b5663718-0277-4e04-8ddf-b70b07893b6d"}]}],"extension":[{"url":"http://hl7.org/fhir/StructureDefinition/cqf-inputParameters","valueReference":{"reference":"#9d59c37e-5df9-4c0c-a449-64f847be848c-parameters"}},{"url":"http://hl7.org/fhir/us/cqfmeasures/StructureDefinition/cqfm-testCaseDescription","valueMarkdown":"Prostate cancer diagnosis unconfirmed. "}],"modifierExtension":[{"url":"http://hl7.org/fhir/us/cqfmeasures/StructureDefinition/cqfm-isTestCase","valueBoolean":true}],"status":"complete","type":"individual","measure":"https://madie.cms.gov/Measure/CMS645FHIRBoneDensityProstateCancerAndrogenDeprivationTherapy","period":{"start":"2026-01-01","end":"2026-12-31"},"group":[{"id":"Group_1","population":[{"id":"InitialPopulation_1","code":{"coding":[{"system":"http://terminology.hl7.org/CodeSystem/measure-population","code":"initial-population","display":"Initial Population"}]},"count":0},{"id":"Denominator_1","code":{"coding":[{"system":"http://terminology.hl7.org/CodeSystem/measure-population","code":"denominator","display":"Denominator"}]},"count":0},{"id":"Numerator_1","code":{"coding":[{"system":"http://terminology.hl7.org/CodeSystem/measure-population","code":"numerator","display":"Numerator"}]},"count":0},{"id":"DenominatorException_1","code":{"coding":[{"system":"http://terminology.hl7.org/CodeSystem/measure-population","code":"denominator-exception","display":"Denominator Exception"}]},"count":0}],"measureScore":{"value":1.0}}],"evaluatedResource":[{"reference":"Patient/b5663718-0277-4e04-8ddf-b70b07893b6d"},{"reference":"Encounter/d3c973d9-2784-4484-828d-b37c3a126f26"},{"reference":"Condition/5e68c60c-1432-4ba0-a2e5-7fd80e725afe"},{"reference":"MedicationRequest/a9cfa96e-8481-4c57-b48b-3a18b92c47b0"},{"reference":"ServiceRequest/bd895cf2-38df-4558-b40d-e146c79ddeb5"}]},"request":{"method":"PUT","url":"MeasureReport/d638cafb-a5e0-46d4-a87e-96c0068f4666"}},{"resource":{"resourceType":"Patient","id":"b5663718-0277-4e04-8ddf-b70b07893b6d","meta":{"profile":["http://hl7.org/fhir/us/qicore/StructureDefinition/qicore-patient"]},"extension":[{"url":"http://hl7.org/fhir/us/core/StructureDefinition/us-core-race","extension":[{"url":"ombCategory","valueCoding":{"system":"urn:oid:2.16.840.1.113883.6.238","code":"1002-5","display":"American Indian or Alaska Native","userSelected":true}},{"url":"text","valueString":"American Indian or Alaska Native"}]},{"url":"http://hl7.org/fhir/us/core/StructureDefinition/us-core-ethnicity","extension":[{"url":"ombCategory","valueCoding":{"system":"urn:oid:2.16.840.1.113883.6.238","code":"2135-2","display":"Hispanic or Latino","userSelected":true}},{"url":"text","valueString":"Hispanic or Latino"}]}],"identifier":[{"type":{"coding":[{"system":"http://terminology.hl7.org/CodeSystem/v2-0203","code":"MR"}]},"system":"https://bonnie-fhir.healthit.gov/","value":"62bb3859e8081f5ef5e199f5"}],"name":[{"family":"DENOMFail","given":["CancerDxUnconfirmed"]}],"gender":"male","birthDate":"1952-07-19"},"request":{"method":"PUT","url":"Patient/b5663718-0277-4e04-8ddf-b70b07893b6d"}},{"resource":{"resourceType":"Encounter","id":"d3c973d9-2784-4484-828d-b37c3a126f26","meta":{"profile":["http://hl7.org/fhir/us/qicore/StructureDefinition/qicore-encounter"]},"status":"finished","class":{"system":"http://terminology.hl7.org/CodeSystem/v3-ActCode","code":"AMB","display":"ambulatory"},"type":[{"coding":[{"system":"http://snomed.info/sct","version":"http://snomed.info/sct/731000124108/version/20240401","code":"185463005","display":"Visit out of hours (procedure)","userSelected":true}]}],"subject":{"reference":"Patient/b5663718-0277-4e04-8ddf-b70b07893b6d"},"period":{"start":"2026-03-03T08:00:00.000+00:00","end":"2026-03-03T08:15:00.000+00:00"}},"request":{"method":"PUT","url":"Encounter/d3c973d9-2784-4484-828d-b37c3a126f26"}}]}