{"resourceType":"Bundle","id":"tests-3bbbeb07-97d4-4f25-936f-a0c1e81303e0-bundle","type":"transaction","entry":[{"resource":{"resourceType":"ServiceRequest","id":"543498f8-8172-47ac-bb0a-324e48369fac","meta":{"profile":["http://hl7.org/fhir/us/qicore/StructureDefinition/qicore-servicerequest"]},"status":"active","intent":"order","code":{"coding":[{"system":"http://snomed.info/sct","code":"456381000124102","display":"Injection of leuprolide acetate for twelve month period (regime/therapy)","userSelected":true}]},"subject":{"reference":"Patient/3bbbeb07-97d4-4f25-936f-a0c1e81303e0"},"authoredOn":"2026-03-03T08:00:00.000+00:00"},"request":{"method":"PUT","url":"ServiceRequest/543498f8-8172-47ac-bb0a-324e48369fac"}},{"resource":{"resourceType":"MedicationRequest","id":"e7b2d7b0-3cde-435e-ad92-b2b77319b918","meta":{"profile":["http://hl7.org/fhir/us/qicore/StructureDefinition/qicore-medicationrequest"]},"status":"active","intent":"order","medicationCodeableConcept":{"coding":[{"system":"http://www.nlm.nih.gov/research/umls/rxnorm","version":"2025-01","code":"752884","display":"0.375 ML leuprolide acetate 120 MG/ML Prefilled Syringe","userSelected":true}]},"subject":{"reference":"Patient/3bbbeb07-97d4-4f25-936f-a0c1e81303e0"},"authoredOn":"2026-03-03T08:00:00.000+00:00","requester":{"reference":"http://myGoodHealthcare.com/fhir/Practitioner/646346"},"dosageInstruction":[{"timing":{"repeat":{"boundsPeriod":{"start":"2026-03-03T08:00:00.000+00:00","end":"2026-04-03T08:00:00.000+00:00"}}}}]},"request":{"method":"PUT","url":"MedicationRequest/e7b2d7b0-3cde-435e-ad92-b2b77319b918"}},{"resource":{"resourceType":"Organization","id":"c9530919-48c7-4a49-a820-ce15f007caaf","meta":{"profile":["http://hl7.org/fhir/us/qicore/StructureDefinition/qicore-organization"]},"identifier":[{"use":"temp","system":"http://hl7.org/fhir/sid/us-npi","value":"BCBST-NPI"}],"active":true,"name":"Blue Cross Blue Shield Tennessee","telecom":[{"system":"phone","value":"(+1) 800-468-9698"}],"address":[{"line":["1 Cameron Hill Circle, Suite 0002"],"city":"Chattanooga","state":"TN","postalCode":"37402-0002","country":"USA"}]},"request":{"method":"PUT","url":"Organization/c9530919-48c7-4a49-a820-ce15f007caaf"}},{"resource":{"resourceType":"Coverage","id":"d5fac687-79f2-4981-909a-4711da1205d8","meta":{"profile":["http://hl7.org/fhir/us/qicore/StructureDefinition/qicore-coverage"]},"identifier":[{"system":"http://benefitsinc.com/certificate","value":"12345"}],"status":"active","type":{"coding":[{"system":"https://nahdo.org/sopt","version":"9.2","code":"6","display":"BLUE CROSS/BLUE SHIELD"}]},"beneficiary":{"reference":"Patient/3bbbeb07-97d4-4f25-936f-a0c1e81303e0"},"period":{"start":"2012-05-23"},"payor":[{"reference":"Organization/c9530919-48c7-4a49-a820-ce15f007caaf"}]},"request":{"method":"PUT","url":"Coverage/d5fac687-79f2-4981-909a-4711da1205d8"}},{"resource":{"resourceType":"Bundle","id":"62bb3859e8081f5ef5e199f5","type":"transaction","entry":[{"fullUrl":"https://madie.cms.gov/Patient/3bbbeb07-97d4-4f25-936f-a0c1e81303e0","resource":{"resourceType":"Patient","id":"3bbbeb07-97d4-4f25-936f-a0c1e81303e0","meta":{"profile":["http://hl7.org/fhir/us/qicore/StructureDefinition/qicore-patient"]},"extension":[{"url":"http://hl7.org/fhir/us/core/StructureDefinition/us-core-race","extension":[{"url":"ombCategory","valueCoding":{"system":"urn:oid:2.16.840.1.113883.6.238","code":"1002-5","display":"American Indian or Alaska Native","userSelected":true}},{"url":"detailed","valueCoding":{"system":"urn:oid:2.16.840.1.113883.6.238","code":"1004-1","display":"American Indian","userSelected":true}},{"url":"text","valueString":"American Indian"}]},{"url":"http://hl7.org/fhir/us/core/StructureDefinition/us-core-ethnicity","extension":[{"url":"ombCategory","valueCoding":{"system":"urn:oid:2.16.840.1.113883.6.238","code":"2135-2","display":"Hispanic or Latino","userSelected":true}},{"url":"detailed","valueCoding":{"system":"urn:oid:2.16.840.1.113883.6.238","code":"2153-5","display":"Mexican American Indian","userSelected":true}},{"url":"text","valueString":"Hispanic or Latino: Mexican American Indian"}]}],"identifier":[{"type":{"coding":[{"system":"http://terminology.hl7.org/CodeSystem/v2-0203","code":"MR"}]},"system":"https://bonnie-fhir.healthit.gov/","value":"62bb3859e8081f5ef5e199f5"}],"name":[{"family":"DENOMPass","given":["MedReqBoundsADTDate"]}],"gender":"male","birthDate":"1962-07-19"},"request":{"method":"PUT","url":"Patient/3bbbeb07-97d4-4f25-936f-a0c1e81303e0"}},{"fullUrl":"https://madie.cms.gov/Encounter/27bf3b77-7978-4cae-9f25-ceca1c3d08be","resource":{"resourceType":"Encounter","id":"27bf3b77-7978-4cae-9f25-ceca1c3d08be","meta":{"profile":["http://hl7.org/fhir/us/qicore/StructureDefinition/qicore-encounter"]},"status":"finished","class":{"system":"http://terminology.hl7.org/CodeSystem/v3-ActCode","code":"AMB","display":"ambulatory"},"type":[{"coding":[{"system":"http://snomed.info/sct","version":"http://snomed.info/sct/731000124108/version/20240401","code":"185463005","display":"Visit out of hours (procedure)","userSelected":true}]}],"subject":{"reference":"Patient/3bbbeb07-97d4-4f25-936f-a0c1e81303e0"},"period":{"start":"2026-03-03T08:00:00.000+00:00","end":"2026-03-03T08:15:00.000+00:00"}},"request":{"method":"PUT","url":"Encounter/27bf3b77-7978-4cae-9f25-ceca1c3d08be"}},{"fullUrl":"https://madie.cms.gov/Condition/795c5018-f4f0-48f0-a258-eed1e95dc856","resource":{"resourceType":"Condition","id":"795c5018-f4f0-48f0-a258-eed1e95dc856","meta":{"profile":["http://hl7.org/fhir/us/qicore/StructureDefinition/qicore-condition-problems-health-concerns"]},"clinicalStatus":{"coding":[{"system":"http://terminology.hl7.org/CodeSystem/condition-clinical","code":"active","display":"Active","userSelected":true}]},"verificationStatus":{"coding":[{"system":"http://terminology.hl7.org/CodeSystem/condition-ver-status","code":"confirmed","display":"Confirmed","userSelected":true}]},"category":[{"coding":[{"system":"http://terminology.hl7.org/CodeSystem/condition-category","code":"problem-list-item","display":"Problem List Item"}]}],"code":{"coding":[{"system":"http://snomed.info/sct","version":"http://snomed.info/sct/731000124108/version/20240401","code":"254900004","display":"Carcinoma of prostate (disorder)","userSelected":true}]},"subject":{"reference":"Patient/3bbbeb07-97d4-4f25-936f-a0c1e81303e0"},"onsetPeriod":{"start":"2026-03-03T08:00:00.000+00:00"}},"request":{"method":"PUT","url":"Condition/795c5018-f4f0-48f0-a258-eed1e95dc856"}},{"fullUrl":"https://madie.cms.gov/MedicationRequest/e7b2d7b0-3cde-435e-ad92-b2b77319b918","resource":{"resourceType":"MedicationRequest","id":"e7b2d7b0-3cde-435e-ad92-b2b77319b918","meta":{"profile":["http://hl7.org/fhir/us/qicore/StructureDefinition/qicore-medicationrequest"]},"status":"active","intent":"order","medicationCodeableConcept":{"coding":[{"system":"http://www.nlm.nih.gov/research/umls/rxnorm","version":"2025-01","code":"752884","display":"0.375 ML leuprolide acetate 120 MG/ML Prefilled Syringe","userSelected":true}]},"subject":{"reference":"Patient/3bbbeb07-97d4-4f25-936f-a0c1e81303e0"},"authoredOn":"2026-03-03T08:00:00.000+00:00","requester":{"reference":"http://myGoodHealthcare.com/fhir/Practitioner/646346"},"dosageInstruction":[{"timing":{"repeat":{"boundsPeriod":{"start":"2026-03-03T08:00:00.000+00:00","end":"2026-04-03T08:00:00.000+00:00"}}}}]},"request":{"method":"PUT","url":"MedicationRequest/e7b2d7b0-3cde-435e-ad92-b2b77319b918"}},{"fullUrl":"https://madie.cms.gov/ServiceRequest/543498f8-8172-47ac-bb0a-324e48369fac","resource":{"resourceType":"ServiceRequest","id":"543498f8-8172-47ac-bb0a-324e48369fac","meta":{"profile":["http://hl7.org/fhir/us/qicore/StructureDefinition/qicore-servicerequest"]},"status":"active","intent":"order","code":{"coding":[{"system":"http://snomed.info/sct","code":"456381000124102","display":"Injection of leuprolide acetate for twelve month period (regime/therapy)","userSelected":true}]},"subject":{"reference":"Patient/3bbbeb07-97d4-4f25-936f-a0c1e81303e0"},"authoredOn":"2026-03-03T08:00:00.000+00:00"},"request":{"method":"PUT","url":"ServiceRequest/543498f8-8172-47ac-bb0a-324e48369fac"}},{"fullUrl":"https://madie.cms.gov/Coverage/d5fac687-79f2-4981-909a-4711da1205d8","resource":{"resourceType":"Coverage","id":"d5fac687-79f2-4981-909a-4711da1205d8","meta":{"profile":["http://hl7.org/fhir/us/qicore/StructureDefinition/qicore-coverage"]},"identifier":[{"system":"http://benefitsinc.com/certificate","value":"12345"}],"status":"active","type":{"coding":[{"system":"https://nahdo.org/sopt","version":"9.2","code":"6","display":"BLUE CROSS/BLUE SHIELD"}]},"beneficiary":{"reference":"Patient/3bbbeb07-97d4-4f25-936f-a0c1e81303e0"},"period":{"start":"2012-05-23"},"payor":[{"reference":"Organization/c9530919-48c7-4a49-a820-ce15f007caaf"}]},"request":{"method":"PUT","url":"Coverage/d5fac687-79f2-4981-909a-4711da1205d8"}},{"fullUrl":"https://madie.cms.gov/Organization/c9530919-48c7-4a49-a820-ce15f007caaf","resource":{"resourceType":"Organization","id":"c9530919-48c7-4a49-a820-ce15f007caaf","meta":{"profile":["http://hl7.org/fhir/us/qicore/StructureDefinition/qicore-organization"]},"identifier":[{"use":"temp","system":"http://hl7.org/fhir/sid/us-npi","value":"BCBST-NPI"}],"active":true,"name":"Blue Cross Blue Shield Tennessee","telecom":[{"system":"phone","value":"(+1) 800-468-9698"}],"address":[{"line":["1 Cameron Hill Circle, Suite 0002"],"city":"Chattanooga","state":"TN","postalCode":"37402-0002","country":"USA"}]},"request":{"method":"PUT","url":"Organization/c9530919-48c7-4a49-a820-ce15f007caaf"}},{"fullUrl":"https://madie.cms.gov/MeasureReport/0daed62e-1802-4228-8172-e41dad9f4821","resource":{"resourceType":"MeasureReport","id":"0daed62e-1802-4228-8172-e41dad9f4821","meta":{"profile":["http://hl7.org/fhir/us/cqfmeasures/StructureDefinition/test-case-cqfm"]},"contained":[{"resourceType":"Parameters","id":"26921daf-7c41-4ca4-84da-6f90651253d9-parameters","parameter":[{"name":"subject","valueString":"3bbbeb07-97d4-4f25-936f-a0c1e81303e0"}]}],"extension":[{"url":"http://hl7.org/fhir/StructureDefinition/cqf-inputParameters","valueReference":{"reference":"#26921daf-7c41-4ca4-84da-6f90651253d9-parameters"}},{"url":"http://hl7.org/fhir/us/cqfmeasures/StructureDefinition/cqfm-testCaseDescription","valueMarkdown":"Testing for Medication Request which is intent to continue ADT therapy for 12 months or greater.  Passes IPP criteria"}],"modifierExtension":[{"url":"http://hl7.org/fhir/us/cqfmeasures/StructureDefinition/cqfm-isTestCase","valueBoolean":true}],"status":"complete","type":"individual","measure":"https://madie.cms.gov/Measure/CMS645FHIRBoneDensityProstateCancerAndrogenDeprivationTherapy","period":{"start":"2026-01-01","end":"2026-12-31"},"group":[{"id":"Group_1","population":[{"id":"InitialPopulation_1","code":{"coding":[{"system":"http://terminology.hl7.org/CodeSystem/measure-population","code":"initial-population","display":"Initial Population"}]},"count":1},{"id":"Denominator_1","code":{"coding":[{"system":"http://terminology.hl7.org/CodeSystem/measure-population","code":"denominator","display":"Denominator"}]},"count":1},{"id":"Numerator_1","code":{"coding":[{"system":"http://terminology.hl7.org/CodeSystem/measure-population","code":"numerator","display":"Numerator"}]},"count":0},{"id":"DenominatorException_1","code":{"coding":[{"system":"http://terminology.hl7.org/CodeSystem/measure-population","code":"denominator-exception","display":"Denominator Exception"}]},"count":0}],"measureScore":{"value":1.0}}],"evaluatedResource":[{"reference":"Patient/3bbbeb07-97d4-4f25-936f-a0c1e81303e0"},{"reference":"Encounter/27bf3b77-7978-4cae-9f25-ceca1c3d08be"},{"reference":"Condition/795c5018-f4f0-48f0-a258-eed1e95dc856"},{"reference":"MedicationRequest/e7b2d7b0-3cde-435e-ad92-b2b77319b918"},{"reference":"ServiceRequest/543498f8-8172-47ac-bb0a-324e48369fac"},{"reference":"Coverage/d5fac687-79f2-4981-909a-4711da1205d8"},{"reference":"Organization/c9530919-48c7-4a49-a820-ce15f007caaf"}]},"request":{"method":"PUT","url":"MeasureReport/0daed62e-1802-4228-8172-e41dad9f4821"}}]},"request":{"method":"PUT","url":"Bundle/62bb3859e8081f5ef5e199f5"}},{"resource":{"resourceType":"MeasureReport","id":"0daed62e-1802-4228-8172-e41dad9f4821","meta":{"profile":["http://hl7.org/fhir/us/cqfmeasures/StructureDefinition/test-case-cqfm"]},"contained":[{"resourceType":"Parameters","id":"26921daf-7c41-4ca4-84da-6f90651253d9-parameters","parameter":[{"name":"subject","valueString":"3bbbeb07-97d4-4f25-936f-a0c1e81303e0"}]}],"extension":[{"url":"http://hl7.org/fhir/StructureDefinition/cqf-inputParameters","valueReference":{"reference":"#26921daf-7c41-4ca4-84da-6f90651253d9-parameters"}},{"url":"http://hl7.org/fhir/us/cqfmeasures/StructureDefinition/cqfm-testCaseDescription","valueMarkdown":"Testing for Medication Request which is intent to continue ADT therapy for 12 months or greater.  Passes IPP criteria"}],"modifierExtension":[{"url":"http://hl7.org/fhir/us/cqfmeasures/StructureDefinition/cqfm-isTestCase","valueBoolean":true}],"status":"complete","type":"individual","measure":"https://madie.cms.gov/Measure/CMS645FHIRBoneDensityProstateCancerAndrogenDeprivationTherapy","period":{"start":"2026-01-01","end":"2026-12-31"},"group":[{"id":"Group_1","population":[{"id":"InitialPopulation_1","code":{"coding":[{"system":"http://terminology.hl7.org/CodeSystem/measure-population","code":"initial-population","display":"Initial Population"}]},"count":1},{"id":"Denominator_1","code":{"coding":[{"system":"http://terminology.hl7.org/CodeSystem/measure-population","code":"denominator","display":"Denominator"}]},"count":1},{"id":"Numerator_1","code":{"coding":[{"system":"http://terminology.hl7.org/CodeSystem/measure-population","code":"numerator","display":"Numerator"}]},"count":0},{"id":"DenominatorException_1","code":{"coding":[{"system":"http://terminology.hl7.org/CodeSystem/measure-population","code":"denominator-exception","display":"Denominator Exception"}]},"count":0}],"measureScore":{"value":1.0}}],"evaluatedResource":[{"reference":"Patient/3bbbeb07-97d4-4f25-936f-a0c1e81303e0"},{"reference":"Encounter/27bf3b77-7978-4cae-9f25-ceca1c3d08be"},{"reference":"Condition/795c5018-f4f0-48f0-a258-eed1e95dc856"},{"reference":"MedicationRequest/e7b2d7b0-3cde-435e-ad92-b2b77319b918"},{"reference":"ServiceRequest/543498f8-8172-47ac-bb0a-324e48369fac"},{"reference":"Coverage/d5fac687-79f2-4981-909a-4711da1205d8"},{"reference":"Organization/c9530919-48c7-4a49-a820-ce15f007caaf"}]},"request":{"method":"PUT","url":"MeasureReport/0daed62e-1802-4228-8172-e41dad9f4821"}},{"resource":{"resourceType":"Encounter","id":"27bf3b77-7978-4cae-9f25-ceca1c3d08be","meta":{"profile":["http://hl7.org/fhir/us/qicore/StructureDefinition/qicore-encounter"]},"status":"finished","class":{"system":"http://terminology.hl7.org/CodeSystem/v3-ActCode","code":"AMB","display":"ambulatory"},"type":[{"coding":[{"system":"http://snomed.info/sct","version":"http://snomed.info/sct/731000124108/version/20240401","code":"185463005","display":"Visit out of hours (procedure)","userSelected":true}]}],"subject":{"reference":"Patient/3bbbeb07-97d4-4f25-936f-a0c1e81303e0"},"period":{"start":"2026-03-03T08:00:00.000+00:00","end":"2026-03-03T08:15:00.000+00:00"}},"request":{"method":"PUT","url":"Encounter/27bf3b77-7978-4cae-9f25-ceca1c3d08be"}},{"resource":{"resourceType":"Condition","id":"795c5018-f4f0-48f0-a258-eed1e95dc856","meta":{"profile":["http://hl7.org/fhir/us/qicore/StructureDefinition/qicore-condition-problems-health-concerns"]},"clinicalStatus":{"coding":[{"system":"http://terminology.hl7.org/CodeSystem/condition-clinical","code":"active","display":"Active","userSelected":true}]},"verificationStatus":{"coding":[{"system":"http://terminology.hl7.org/CodeSystem/condition-ver-status","code":"confirmed","display":"Confirmed","userSelected":true}]},"category":[{"coding":[{"system":"http://terminology.hl7.org/CodeSystem/condition-category","code":"problem-list-item","display":"Problem List Item"}]}],"code":{"coding":[{"system":"http://snomed.info/sct","version":"http://snomed.info/sct/731000124108/version/20240401","code":"254900004","display":"Carcinoma of prostate (disorder)","userSelected":true}]},"subject":{"reference":"Patient/3bbbeb07-97d4-4f25-936f-a0c1e81303e0"},"onsetPeriod":{"start":"2026-03-03T08:00:00.000+00:00"}},"request":{"method":"PUT","url":"Condition/795c5018-f4f0-48f0-a258-eed1e95dc856"}},{"resource":{"resourceType":"Patient","id":"3bbbeb07-97d4-4f25-936f-a0c1e81303e0","meta":{"profile":["http://hl7.org/fhir/us/qicore/StructureDefinition/qicore-patient"]},"extension":[{"url":"http://hl7.org/fhir/us/core/StructureDefinition/us-core-race","extension":[{"url":"ombCategory","valueCoding":{"system":"urn:oid:2.16.840.1.113883.6.238","code":"1002-5","display":"American Indian or Alaska Native","userSelected":true}},{"url":"detailed","valueCoding":{"system":"urn:oid:2.16.840.1.113883.6.238","code":"1004-1","display":"American Indian","userSelected":true}},{"url":"text","valueString":"American Indian"}]},{"url":"http://hl7.org/fhir/us/core/StructureDefinition/us-core-ethnicity","extension":[{"url":"ombCategory","valueCoding":{"system":"urn:oid:2.16.840.1.113883.6.238","code":"2135-2","display":"Hispanic or Latino","userSelected":true}},{"url":"detailed","valueCoding":{"system":"urn:oid:2.16.840.1.113883.6.238","code":"2153-5","display":"Mexican American Indian","userSelected":true}},{"url":"text","valueString":"Hispanic or Latino: Mexican American Indian"}]}],"identifier":[{"type":{"coding":[{"system":"http://terminology.hl7.org/CodeSystem/v2-0203","code":"MR"}]},"system":"https://bonnie-fhir.healthit.gov/","value":"62bb3859e8081f5ef5e199f5"}],"name":[{"family":"DENOMPass","given":["MedReqBoundsADTDate"]}],"gender":"male","birthDate":"1962-07-19"},"request":{"method":"PUT","url":"Patient/3bbbeb07-97d4-4f25-936f-a0c1e81303e0"}}]}