{"resourceType":"Bundle","id":"tests-2a1d8b51-131f-4552-90f7-59ca5a7979ce-bundle","type":"transaction","entry":[{"resource":{"resourceType":"Practitioner","id":"f265fed5-1f7e-49d4-ade8-b607b35df3b9","meta":{"profile":["http://hl7.org/fhir/us/qicore/StructureDefinition/qicore-practitioner"]},"identifier":[{"use":"temp","system":"urn:oid:2.16.840.1.113883.4.336","value":"Practitioner-23"}],"active":true,"name":[{"family":"Careful","given":["Adam"],"prefix":["Dr"]}],"address":[{"use":"home","line":["534 Erewhon St"],"city":"PleasantVille","state":"UT","postalCode":"84414"}],"qualification":[{"identifier":[{"system":"http://example.org/UniversityIdentifier","value":"12345"}],"code":{"coding":[{"system":"http://terminology.hl7.org/CodeSystem/v2-0360|2.7","code":"BS","display":"Bachelor of Science"}],"text":"Bachelor of Science"},"period":{"start":"1996"},"issuer":{"display":"Example University"}}]},"request":{"method":"PUT","url":"Practitioner/f265fed5-1f7e-49d4-ade8-b607b35df3b9"}},{"resource":{"resourceType":"MeasureReport","id":"1fc8d35b-001f-433f-8757-80e1981cb5a3","meta":{"profile":["http://hl7.org/fhir/us/cqfmeasures/StructureDefinition/test-case-cqfm"]},"contained":[{"resourceType":"Parameters","id":"72a029ab-b9d0-4aa3-a14f-541c767ad001-parameters","parameter":[{"name":"subject","valueString":"2a1d8b51-131f-4552-90f7-59ca5a7979ce"}]}],"extension":[{"url":"http://hl7.org/fhir/StructureDefinition/cqf-inputParameters","valueReference":{"reference":"#72a029ab-b9d0-4aa3-a14f-541c767ad001-parameters"}},{"url":"http://hl7.org/fhir/us/cqfmeasures/StructureDefinition/cqfm-testCaseDescription","valueMarkdown":"Encounter Office Visit in MP.  Dx Prostate Cancer in MP. Procedure \nOrdered. DEXA 2 years before start of ADR. Edge. NUMER Criteria Pass"}],"modifierExtension":[{"url":"http://hl7.org/fhir/us/cqfmeasures/StructureDefinition/cqfm-isTestCase","valueBoolean":true}],"status":"complete","type":"individual","measure":"https://madie.cms.gov/Measure/CMS645FHIRBoneDensityProstateCancerAndrogenDeprivationTherapy","period":{"start":"2026-01-01","end":"2026-12-31"},"group":[{"id":"Group_1","population":[{"id":"InitialPopulation_1","code":{"coding":[{"system":"http://terminology.hl7.org/CodeSystem/measure-population","code":"initial-population","display":"Initial Population"}]},"count":1},{"id":"Denominator_1","code":{"coding":[{"system":"http://terminology.hl7.org/CodeSystem/measure-population","code":"denominator","display":"Denominator"}]},"count":1},{"id":"Numerator_1","code":{"coding":[{"system":"http://terminology.hl7.org/CodeSystem/measure-population","code":"numerator","display":"Numerator"}]},"count":1},{"id":"DenominatorException_1","code":{"coding":[{"system":"http://terminology.hl7.org/CodeSystem/measure-population","code":"denominator-exception","display":"Denominator Exception"}]},"count":0}],"measureScore":{"value":1.0}}],"evaluatedResource":[{"reference":"Patient/2a1d8b51-131f-4552-90f7-59ca5a7979ce"},{"reference":"Encounter/b14a7f7a-a214-4ef9-8ed9-8d341be354a2"},{"reference":"Condition/c2053fd9-6033-4389-86e8-3b0e4d609273"},{"reference":"Observation/6d552773-2b52-460c-b035-1493982198aa"},{"reference":"Practitioner/f265fed5-1f7e-49d4-ade8-b607b35df3b9"},{"reference":"MedicationRequest/e7a2766e-e5b0-4f0b-9b48-0317e642ad45"},{"reference":"ServiceRequest/97bff362-b465-46af-84ef-b95a790148ba"}]},"request":{"method":"PUT","url":"MeasureReport/1fc8d35b-001f-433f-8757-80e1981cb5a3"}},{"resource":{"resourceType":"Encounter","id":"b14a7f7a-a214-4ef9-8ed9-8d341be354a2","meta":{"profile":["http://hl7.org/fhir/us/qicore/StructureDefinition/qicore-encounter"]},"status":"finished","class":{"system":"http://terminology.hl7.org/CodeSystem/v3-ActCode","code":"AMB","display":"ambulatory"},"type":[{"coding":[{"system":"http://snomed.info/sct","version":"2021-09","code":"185463005","display":"Visit out of hours (procedure)","userSelected":true}]}],"subject":{"reference":"Patient/2a1d8b51-131f-4552-90f7-59ca5a7979ce"},"period":{"start":"2026-06-05T08:00:00.000+00:00","end":"2026-06-05T08:15:00.000+00:00"}},"request":{"method":"PUT","url":"Encounter/b14a7f7a-a214-4ef9-8ed9-8d341be354a2"}},{"resource":{"resourceType":"Observation","id":"6d552773-2b52-460c-b035-1493982198aa","meta":{"profile":["http://hl7.org/fhir/us/qicore/StructureDefinition/qicore-observation-lab"]},"status":"final","category":[{"coding":[{"system":"http://terminology.hl7.org/CodeSystem/observation-category","code":"imaging","display":"Imaging"}]}],"code":{"coding":[{"system":"http://loinc.org","version":"2.69","code":"38265-5","display":"DXA Radius and Ulna [T-score] Bone density","userSelected":true}]},"subject":{"reference":"Patient/2a1d8b51-131f-4552-90f7-59ca5a7979ce"},"effectiveDateTime":"2024-06-05T10:00:00.000+00:00"},"request":{"method":"PUT","url":"Observation/6d552773-2b52-460c-b035-1493982198aa"}},{"resource":{"resourceType":"Patient","id":"2a1d8b51-131f-4552-90f7-59ca5a7979ce","meta":{"profile":["http://hl7.org/fhir/us/qicore/StructureDefinition/qicore-patient"]},"extension":[{"url":"http://hl7.org/fhir/us/core/StructureDefinition/us-core-race","extension":[{"url":"ombCategory","valueCoding":{"system":"urn:oid:2.16.840.1.113883.6.238","code":"2054-5","display":"Black or African American","userSelected":true}},{"url":"text","valueString":"Black or African American"}]},{"url":"http://hl7.org/fhir/us/core/StructureDefinition/us-core-ethnicity","extension":[{"url":"ombCategory","valueCoding":{"system":"urn:oid:2.16.840.1.113883.6.238","code":"2186-5","display":"Not Hispanic or Latino","userSelected":true}},{"url":"text","valueString":"Not Hispanic or Latino"}]}],"identifier":[{"type":{"coding":[{"system":"http://terminology.hl7.org/CodeSystem/v2-0203","code":"MR"}]},"system":"https://bonnie-fhir.healthit.gov/","value":"60abda28bf0a01003e3f76bd"}],"name":[{"family":"NUMERPass","given":["DEXA2YearsBeforeADT"]}],"gender":"male","birthDate":"1947-07-15"},"request":{"method":"PUT","url":"Patient/2a1d8b51-131f-4552-90f7-59ca5a7979ce"}},{"resource":{"resourceType":"ServiceRequest","id":"97bff362-b465-46af-84ef-b95a790148ba","meta":{"profile":["http://hl7.org/fhir/us/qicore/StructureDefinition/qicore-servicerequest"]},"status":"active","intent":"order","code":{"coding":[{"system":"http://snomed.info/sct","code":"456381000124102","display":"Injection of leuprolide acetate for twelve month period (regime/therapy)","userSelected":true}]},"subject":{"reference":"Patient/2a1d8b51-131f-4552-90f7-59ca5a7979ce"},"authoredOn":"2026-06-05T08:00:00.000+00:00"},"request":{"method":"PUT","url":"ServiceRequest/97bff362-b465-46af-84ef-b95a790148ba"}},{"resource":{"resourceType":"MedicationRequest","id":"e7a2766e-e5b0-4f0b-9b48-0317e642ad45","meta":{"profile":["http://hl7.org/fhir/us/qicore/StructureDefinition/qicore-medicationrequest"]},"status":"active","intent":"order","medicationCodeableConcept":{"coding":[{"system":"http://www.nlm.nih.gov/research/umls/rxnorm","code":"1115257","display":"1.5 ML leuprolide acetate 30 MG/ML Prefilled Syringe","userSelected":true}]},"subject":{"reference":"Patient/2a1d8b51-131f-4552-90f7-59ca5a7979ce"},"authoredOn":"2026-06-05T08:00:00.000+00:00","requester":{"reference":"http://myGoodHealthcare.com/fhir/Practitioner/f265fed5-1f7e-49d4-ade8-b607b35df3b9"},"dosageInstruction":[{"timing":{"repeat":{"boundsPeriod":{"start":"2026-06-05T08:00:00.000+00:00","end":"2026-07-05T08:00:00.000+00:00"}}}}]},"request":{"method":"PUT","url":"MedicationRequest/e7a2766e-e5b0-4f0b-9b48-0317e642ad45"}},{"resource":{"resourceType":"Bundle","id":"60abda28bf0a01003e3f76bd","type":"transaction","entry":[{"fullUrl":"https://madie.cms.gov/Patient/2a1d8b51-131f-4552-90f7-59ca5a7979ce","resource":{"resourceType":"Patient","id":"2a1d8b51-131f-4552-90f7-59ca5a7979ce","meta":{"profile":["http://hl7.org/fhir/us/qicore/StructureDefinition/qicore-patient"]},"extension":[{"url":"http://hl7.org/fhir/us/core/StructureDefinition/us-core-race","extension":[{"url":"ombCategory","valueCoding":{"system":"urn:oid:2.16.840.1.113883.6.238","code":"2054-5","display":"Black or African American","userSelected":true}},{"url":"text","valueString":"Black or African American"}]},{"url":"http://hl7.org/fhir/us/core/StructureDefinition/us-core-ethnicity","extension":[{"url":"ombCategory","valueCoding":{"system":"urn:oid:2.16.840.1.113883.6.238","code":"2186-5","display":"Not Hispanic or Latino","userSelected":true}},{"url":"text","valueString":"Not Hispanic or Latino"}]}],"identifier":[{"type":{"coding":[{"system":"http://terminology.hl7.org/CodeSystem/v2-0203","code":"MR"}]},"system":"https://bonnie-fhir.healthit.gov/","value":"60abda28bf0a01003e3f76bd"}],"name":[{"family":"NUMERPass","given":["DEXA2YearsBeforeADT"]}],"gender":"male","birthDate":"1947-07-15"},"request":{"method":"PUT","url":"Patient/2a1d8b51-131f-4552-90f7-59ca5a7979ce"}},{"fullUrl":"https://madie.cms.gov/Encounter/b14a7f7a-a214-4ef9-8ed9-8d341be354a2","resource":{"resourceType":"Encounter","id":"b14a7f7a-a214-4ef9-8ed9-8d341be354a2","meta":{"profile":["http://hl7.org/fhir/us/qicore/StructureDefinition/qicore-encounter"]},"status":"finished","class":{"system":"http://terminology.hl7.org/CodeSystem/v3-ActCode","code":"AMB","display":"ambulatory"},"type":[{"coding":[{"system":"http://snomed.info/sct","version":"2021-09","code":"185463005","display":"Visit out of hours (procedure)","userSelected":true}]}],"subject":{"reference":"Patient/2a1d8b51-131f-4552-90f7-59ca5a7979ce"},"period":{"start":"2026-06-05T08:00:00.000+00:00","end":"2026-06-05T08:15:00.000+00:00"}},"request":{"method":"PUT","url":"Encounter/b14a7f7a-a214-4ef9-8ed9-8d341be354a2"}},{"fullUrl":"https://madie.cms.gov/Condition/c2053fd9-6033-4389-86e8-3b0e4d609273","resource":{"resourceType":"Condition","id":"c2053fd9-6033-4389-86e8-3b0e4d609273","meta":{"profile":["http://hl7.org/fhir/us/qicore/StructureDefinition/qicore-condition-problems-health-concerns"]},"clinicalStatus":{"coding":[{"system":"http://terminology.hl7.org/CodeSystem/condition-clinical","code":"active","display":"Active","userSelected":true}]},"verificationStatus":{"coding":[{"system":"http://terminology.hl7.org/CodeSystem/condition-ver-status","code":"confirmed"}]},"category":[{"coding":[{"system":"http://terminology.hl7.org/CodeSystem/condition-category","code":"problem-list-item","display":"Problem List Item"}]}],"code":{"coding":[{"system":"http://snomed.info/sct","version":"2021-09","code":"254900004","display":"Carcinoma of prostate (disorder)","userSelected":true}]},"subject":{"reference":"Patient/2a1d8b51-131f-4552-90f7-59ca5a7979ce"},"onsetPeriod":{"start":"2026-05-30T08:00:00.000+00:00"}},"request":{"method":"PUT","url":"Condition/c2053fd9-6033-4389-86e8-3b0e4d609273"}},{"fullUrl":"https://madie.cms.gov/Observation/6d552773-2b52-460c-b035-1493982198aa","resource":{"resourceType":"Observation","id":"6d552773-2b52-460c-b035-1493982198aa","meta":{"profile":["http://hl7.org/fhir/us/qicore/StructureDefinition/qicore-observation-lab"]},"status":"final","category":[{"coding":[{"system":"http://terminology.hl7.org/CodeSystem/observation-category","code":"imaging","display":"Imaging"}]}],"code":{"coding":[{"system":"http://loinc.org","version":"2.69","code":"38265-5","display":"DXA Radius and Ulna [T-score] Bone density","userSelected":true}]},"subject":{"reference":"Patient/2a1d8b51-131f-4552-90f7-59ca5a7979ce"},"effectiveDateTime":"2024-06-05T10:00:00.000+00:00"},"request":{"method":"PUT","url":"Observation/6d552773-2b52-460c-b035-1493982198aa"}},{"fullUrl":"https://madie.cms.gov/Practitioner/f265fed5-1f7e-49d4-ade8-b607b35df3b9","resource":{"resourceType":"Practitioner","id":"f265fed5-1f7e-49d4-ade8-b607b35df3b9","meta":{"profile":["http://hl7.org/fhir/us/qicore/StructureDefinition/qicore-practitioner"]},"identifier":[{"use":"temp","system":"urn:oid:2.16.840.1.113883.4.336","value":"Practitioner-23"}],"active":true,"name":[{"family":"Careful","given":["Adam"],"prefix":["Dr"]}],"address":[{"use":"home","line":["534 Erewhon St"],"city":"PleasantVille","state":"UT","postalCode":"84414"}],"qualification":[{"identifier":[{"system":"http://example.org/UniversityIdentifier","value":"12345"}],"code":{"coding":[{"system":"http://terminology.hl7.org/CodeSystem/v2-0360|2.7","code":"BS","display":"Bachelor of Science"}],"text":"Bachelor of Science"},"period":{"start":"1996"},"issuer":{"display":"Example University"}}]},"request":{"method":"PUT","url":"Practitioner/f265fed5-1f7e-49d4-ade8-b607b35df3b9"}},{"fullUrl":"https://madie.cms.gov/MedicationRequest/e7a2766e-e5b0-4f0b-9b48-0317e642ad45","resource":{"resourceType":"MedicationRequest","id":"e7a2766e-e5b0-4f0b-9b48-0317e642ad45","meta":{"profile":["http://hl7.org/fhir/us/qicore/StructureDefinition/qicore-medicationrequest"]},"status":"active","intent":"order","medicationCodeableConcept":{"coding":[{"system":"http://www.nlm.nih.gov/research/umls/rxnorm","code":"1115257","display":"1.5 ML leuprolide acetate 30 MG/ML Prefilled Syringe","userSelected":true}]},"subject":{"reference":"Patient/2a1d8b51-131f-4552-90f7-59ca5a7979ce"},"authoredOn":"2026-06-05T08:00:00.000+00:00","requester":{"reference":"http://myGoodHealthcare.com/fhir/Practitioner/f265fed5-1f7e-49d4-ade8-b607b35df3b9"},"dosageInstruction":[{"timing":{"repeat":{"boundsPeriod":{"start":"2026-06-05T08:00:00.000+00:00","end":"2026-07-05T08:00:00.000+00:00"}}}}]},"request":{"method":"PUT","url":"MedicationRequest/e7a2766e-e5b0-4f0b-9b48-0317e642ad45"}},{"fullUrl":"https://madie.cms.gov/ServiceRequest/97bff362-b465-46af-84ef-b95a790148ba","resource":{"resourceType":"ServiceRequest","id":"97bff362-b465-46af-84ef-b95a790148ba","meta":{"profile":["http://hl7.org/fhir/us/qicore/StructureDefinition/qicore-servicerequest"]},"status":"active","intent":"order","code":{"coding":[{"system":"http://snomed.info/sct","code":"456381000124102","display":"Injection of leuprolide acetate for twelve month period (regime/therapy)","userSelected":true}]},"subject":{"reference":"Patient/2a1d8b51-131f-4552-90f7-59ca5a7979ce"},"authoredOn":"2026-06-05T08:00:00.000+00:00"},"request":{"method":"PUT","url":"ServiceRequest/97bff362-b465-46af-84ef-b95a790148ba"}},{"fullUrl":"https://madie.cms.gov/MeasureReport/1fc8d35b-001f-433f-8757-80e1981cb5a3","resource":{"resourceType":"MeasureReport","id":"1fc8d35b-001f-433f-8757-80e1981cb5a3","meta":{"profile":["http://hl7.org/fhir/us/cqfmeasures/StructureDefinition/test-case-cqfm"]},"contained":[{"resourceType":"Parameters","id":"72a029ab-b9d0-4aa3-a14f-541c767ad001-parameters","parameter":[{"name":"subject","valueString":"2a1d8b51-131f-4552-90f7-59ca5a7979ce"}]}],"extension":[{"url":"http://hl7.org/fhir/StructureDefinition/cqf-inputParameters","valueReference":{"reference":"#72a029ab-b9d0-4aa3-a14f-541c767ad001-parameters"}},{"url":"http://hl7.org/fhir/us/cqfmeasures/StructureDefinition/cqfm-testCaseDescription","valueMarkdown":"Encounter Office Visit in MP.  Dx Prostate Cancer in MP. Procedure \nOrdered. DEXA 2 years before start of ADR. Edge. NUMER Criteria Pass"}],"modifierExtension":[{"url":"http://hl7.org/fhir/us/cqfmeasures/StructureDefinition/cqfm-isTestCase","valueBoolean":true}],"status":"complete","type":"individual","measure":"https://madie.cms.gov/Measure/CMS645FHIRBoneDensityProstateCancerAndrogenDeprivationTherapy","period":{"start":"2026-01-01","end":"2026-12-31"},"group":[{"id":"Group_1","population":[{"id":"InitialPopulation_1","code":{"coding":[{"system":"http://terminology.hl7.org/CodeSystem/measure-population","code":"initial-population","display":"Initial Population"}]},"count":1},{"id":"Denominator_1","code":{"coding":[{"system":"http://terminology.hl7.org/CodeSystem/measure-population","code":"denominator","display":"Denominator"}]},"count":1},{"id":"Numerator_1","code":{"coding":[{"system":"http://terminology.hl7.org/CodeSystem/measure-population","code":"numerator","display":"Numerator"}]},"count":1},{"id":"DenominatorException_1","code":{"coding":[{"system":"http://terminology.hl7.org/CodeSystem/measure-population","code":"denominator-exception","display":"Denominator Exception"}]},"count":0}],"measureScore":{"value":1.0}}],"evaluatedResource":[{"reference":"Patient/2a1d8b51-131f-4552-90f7-59ca5a7979ce"},{"reference":"Encounter/b14a7f7a-a214-4ef9-8ed9-8d341be354a2"},{"reference":"Condition/c2053fd9-6033-4389-86e8-3b0e4d609273"},{"reference":"Observation/6d552773-2b52-460c-b035-1493982198aa"},{"reference":"Practitioner/f265fed5-1f7e-49d4-ade8-b607b35df3b9"},{"reference":"MedicationRequest/e7a2766e-e5b0-4f0b-9b48-0317e642ad45"},{"reference":"ServiceRequest/97bff362-b465-46af-84ef-b95a790148ba"}]},"request":{"method":"PUT","url":"MeasureReport/1fc8d35b-001f-433f-8757-80e1981cb5a3"}}]},"request":{"method":"PUT","url":"Bundle/60abda28bf0a01003e3f76bd"}},{"resource":{"resourceType":"Condition","id":"c2053fd9-6033-4389-86e8-3b0e4d609273","meta":{"profile":["http://hl7.org/fhir/us/qicore/StructureDefinition/qicore-condition-problems-health-concerns"]},"clinicalStatus":{"coding":[{"system":"http://terminology.hl7.org/CodeSystem/condition-clinical","code":"active","display":"Active","userSelected":true}]},"verificationStatus":{"coding":[{"system":"http://terminology.hl7.org/CodeSystem/condition-ver-status","code":"confirmed"}]},"category":[{"coding":[{"system":"http://terminology.hl7.org/CodeSystem/condition-category","code":"problem-list-item","display":"Problem List Item"}]}],"code":{"coding":[{"system":"http://snomed.info/sct","version":"2021-09","code":"254900004","display":"Carcinoma of prostate (disorder)","userSelected":true}]},"subject":{"reference":"Patient/2a1d8b51-131f-4552-90f7-59ca5a7979ce"},"onsetPeriod":{"start":"2026-05-30T08:00:00.000+00:00"}},"request":{"method":"PUT","url":"Condition/c2053fd9-6033-4389-86e8-3b0e4d609273"}}]}