{"resourceType":"Bundle","id":"tests-f67164ab-356d-4fb6-afcb-169aaa7fe3f4-bundle","type":"transaction","entry":[{"resource":{"resourceType":"MedicationRequest","id":"f3078c61-4d0c-4a71-89c8-68e400d736a2","meta":{"profile":["http://hl7.org/fhir/us/qicore/StructureDefinition/qicore-medicationrequest"]},"status":"active","intent":"order","medicationCodeableConcept":{"coding":[{"system":"http://www.nlm.nih.gov/research/umls/rxnorm","version":"04012024","code":"1115257","display":"1.5 ML leuprolide acetate 30 MG/ML Prefilled Syringe"}]},"subject":{"reference":"Patient/f67164ab-356d-4fb6-afcb-169aaa7fe3f4"},"authoredOn":"2026-02-04T08:00:00.000+00:00","requester":{"reference":"http://myGoodHealthcare.com/fhir/Practitioner/9096f184-7d46-4981-9346-b07a561a2d70"},"dosageInstruction":[{"timing":{"repeat":{"boundsPeriod":{"start":"2026-02-04T08:00:00.000+00:00","end":"2026-03-04T08:00:00.000+00:00"}}}}]},"request":{"method":"PUT","url":"MedicationRequest/f3078c61-4d0c-4a71-89c8-68e400d736a2"}},{"resource":{"resourceType":"MeasureReport","id":"264d340f-56fd-4096-8e53-0ca16a9c844c","meta":{"profile":["http://hl7.org/fhir/us/cqfmeasures/StructureDefinition/test-case-cqfm"]},"contained":[{"resourceType":"Parameters","id":"ee9cd0c4-9a7b-40e7-b970-5cd5c975a3c8-parameters","parameter":[{"name":"subject","valueString":"f67164ab-356d-4fb6-afcb-169aaa7fe3f4"}]}],"extension":[{"url":"http://hl7.org/fhir/StructureDefinition/cqf-inputParameters","valueReference":{"reference":"#ee9cd0c4-9a7b-40e7-b970-5cd5c975a3c8-parameters"}},{"url":"http://hl7.org/fhir/us/cqfmeasures/StructureDefinition/cqfm-testCaseDescription","valueMarkdown":"Encounter Office Visit in MP.  Dx Prostate Cancer in MP. Procedure \nOrder. Dexa 3 months after ADT.  Edge. Passes NUMER as expected."}],"modifierExtension":[{"url":"http://hl7.org/fhir/us/cqfmeasures/StructureDefinition/cqfm-isTestCase","valueBoolean":true}],"status":"complete","type":"individual","measure":"https://madie.cms.gov/Measure/CMS645FHIRBoneDensityProstateCancerAndrogenDeprivationTherapy","period":{"start":"2026-01-01","end":"2026-12-31"},"group":[{"id":"Group_1","population":[{"id":"InitialPopulation_1","code":{"coding":[{"system":"http://terminology.hl7.org/CodeSystem/measure-population","code":"initial-population","display":"Initial Population"}]},"count":1},{"id":"Denominator_1","code":{"coding":[{"system":"http://terminology.hl7.org/CodeSystem/measure-population","code":"denominator","display":"Denominator"}]},"count":1},{"id":"Numerator_1","code":{"coding":[{"system":"http://terminology.hl7.org/CodeSystem/measure-population","code":"numerator","display":"Numerator"}]},"count":1},{"id":"DenominatorException_1","code":{"coding":[{"system":"http://terminology.hl7.org/CodeSystem/measure-population","code":"denominator-exception","display":"Denominator Exception"}]},"count":0}],"measureScore":{"value":1.0}}],"evaluatedResource":[{"reference":"Patient/f67164ab-356d-4fb6-afcb-169aaa7fe3f4"},{"reference":"Encounter/df94061f-acc8-48f8-9eea-da1d1b1fc552"},{"reference":"Condition/3b97edd5-906e-4ba3-9ac0-454187a01833"},{"reference":"Observation/422c65f2-e3c5-4555-a849-7bd5c416fd1c"},{"reference":"Practitioner/9096f184-7d46-4981-9346-b07a561a2d70"},{"reference":"MedicationRequest/f3078c61-4d0c-4a71-89c8-68e400d736a2"},{"reference":"ServiceRequest/51a9de17-3f73-4e02-94e8-43cbdc7cc081"}]},"request":{"method":"PUT","url":"MeasureReport/264d340f-56fd-4096-8e53-0ca16a9c844c"}},{"resource":{"resourceType":"Practitioner","id":"9096f184-7d46-4981-9346-b07a561a2d70","meta":{"profile":["http://hl7.org/fhir/us/qicore/StructureDefinition/qicore-practitioner"]},"identifier":[{"use":"temp","system":"urn:oid:2.16.840.1.113883.4.336","value":"Practitioner-23"}],"active":true,"name":[{"family":"Careful","given":["Adam"],"prefix":["Dr"]}],"address":[{"use":"home","line":["534 Erewhon St"],"city":"PleasantVille","state":"UT","postalCode":"84414"}],"qualification":[{"identifier":[{"system":"http://example.org/UniversityIdentifier","value":"12345"}],"code":{"coding":[{"system":"http://terminology.hl7.org/CodeSystem/v2-0360|2.7","code":"BS","display":"Bachelor of Science"}],"text":"Bachelor of Science"},"period":{"start":"1996"},"issuer":{"display":"Example University"}}]},"request":{"method":"PUT","url":"Practitioner/9096f184-7d46-4981-9346-b07a561a2d70"}},{"resource":{"resourceType":"Encounter","id":"df94061f-acc8-48f8-9eea-da1d1b1fc552","meta":{"profile":["http://hl7.org/fhir/us/qicore/StructureDefinition/qicore-encounter"]},"status":"finished","class":{"system":"http://terminology.hl7.org/CodeSystem/v3-ActCode","code":"AMB","display":"ambulatory"},"type":[{"coding":[{"system":"http://snomed.info/sct","version":"http://snomed.info/sct/731000124108/version/20240301","code":"185463005","display":"Visit out of hours (procedure)"}]}],"subject":{"reference":"Patient/f67164ab-356d-4fb6-afcb-169aaa7fe3f4"},"period":{"start":"2026-02-04T08:00:00.000+00:00","end":"2026-02-04T08:15:00.000+00:00"}},"request":{"method":"PUT","url":"Encounter/df94061f-acc8-48f8-9eea-da1d1b1fc552"}},{"resource":{"resourceType":"Bundle","id":"60abda28bf0a01003e3f76bd","type":"transaction","entry":[{"fullUrl":"https://madie.cms.gov/Patient/f67164ab-356d-4fb6-afcb-169aaa7fe3f4","resource":{"resourceType":"Patient","id":"f67164ab-356d-4fb6-afcb-169aaa7fe3f4","meta":{"profile":["http://hl7.org/fhir/us/qicore/StructureDefinition/qicore-patient"]},"extension":[{"url":"http://hl7.org/fhir/us/core/StructureDefinition/us-core-race","extension":[{"url":"ombCategory","valueCoding":{"system":"urn:oid:2.16.840.1.113883.6.238","code":"2054-5","display":"Black or African American"}},{"url":"text","valueString":"Black or African American"}]},{"url":"http://hl7.org/fhir/us/core/StructureDefinition/us-core-ethnicity","extension":[{"url":"ombCategory","valueCoding":{"system":"urn:oid:2.16.840.1.113883.6.238","code":"2186-5","display":"Not Hispanic or Latino"}},{"url":"text","valueString":"Not Hispanic or Latino"}]}],"identifier":[{"type":{"coding":[{"system":"http://terminology.hl7.org/CodeSystem/v2-0203","code":"MR"}]},"system":"https://bonnie-fhir.healthit.gov/","value":"463131313187656"}],"name":[{"family":"NUMERPass","given":["DEXA3MonthsAfterADTEdge"]}],"gender":"male","birthDate":"1930-06-15"},"request":{"method":"PUT","url":"Patient/f67164ab-356d-4fb6-afcb-169aaa7fe3f4"}},{"fullUrl":"https://madie.cms.gov/Encounter/df94061f-acc8-48f8-9eea-da1d1b1fc552","resource":{"resourceType":"Encounter","id":"df94061f-acc8-48f8-9eea-da1d1b1fc552","meta":{"profile":["http://hl7.org/fhir/us/qicore/StructureDefinition/qicore-encounter"]},"status":"finished","class":{"system":"http://terminology.hl7.org/CodeSystem/v3-ActCode","code":"AMB","display":"ambulatory"},"type":[{"coding":[{"system":"http://snomed.info/sct","version":"http://snomed.info/sct/731000124108/version/20240301","code":"185463005","display":"Visit out of hours (procedure)"}]}],"subject":{"reference":"Patient/f67164ab-356d-4fb6-afcb-169aaa7fe3f4"},"period":{"start":"2026-02-04T08:00:00.000+00:00","end":"2026-02-04T08:15:00.000+00:00"}},"request":{"method":"PUT","url":"Encounter/df94061f-acc8-48f8-9eea-da1d1b1fc552"}},{"fullUrl":"https://madie.cms.gov/Condition/3b97edd5-906e-4ba3-9ac0-454187a01833","resource":{"resourceType":"Condition","id":"3b97edd5-906e-4ba3-9ac0-454187a01833","meta":{"profile":["http://hl7.org/fhir/us/qicore/StructureDefinition/qicore-condition-problems-health-concerns"]},"clinicalStatus":{"coding":[{"system":"http://terminology.hl7.org/CodeSystem/condition-clinical","code":"active","display":"Active","userSelected":true}]},"verificationStatus":{"coding":[{"system":"http://terminology.hl7.org/CodeSystem/condition-ver-status","code":"confirmed"}]},"category":[{"coding":[{"system":"http://terminology.hl7.org/CodeSystem/condition-category","code":"problem-list-item","display":"Problem List Item"}]}],"code":{"coding":[{"system":"http://snomed.info/sct","version":"http://snomed.info/sct/731000124108/version/20240301","code":"254900004","display":"Carcinoma of prostate (disorder)"}]},"subject":{"reference":"Patient/f67164ab-356d-4fb6-afcb-169aaa7fe3f4"},"onsetDateTime":"2026-02-04T08:00:00.000+00:00"},"request":{"method":"PUT","url":"Condition/3b97edd5-906e-4ba3-9ac0-454187a01833"}},{"fullUrl":"https://madie.cms.gov/Observation/422c65f2-e3c5-4555-a849-7bd5c416fd1c","resource":{"resourceType":"Observation","id":"422c65f2-e3c5-4555-a849-7bd5c416fd1c","meta":{"profile":["http://hl7.org/fhir/us/qicore/StructureDefinition/qicore-observation-lab"]},"status":"final","category":[{"coding":[{"system":"http://terminology.hl7.org/CodeSystem/observation-category","code":"imaging","display":"Imaging"}]}],"code":{"coding":[{"system":"http://loinc.org","version":"2.76","code":"38265-5","display":"DXA Radius and Ulna [T-score] Bone density"}]},"subject":{"reference":"Patient/f67164ab-356d-4fb6-afcb-169aaa7fe3f4"},"effectivePeriod":{"start":"2026-05-01T10:00:00.000+00:00"}},"request":{"method":"PUT","url":"Observation/422c65f2-e3c5-4555-a849-7bd5c416fd1c"}},{"fullUrl":"https://madie.cms.gov/Practitioner/9096f184-7d46-4981-9346-b07a561a2d70","resource":{"resourceType":"Practitioner","id":"9096f184-7d46-4981-9346-b07a561a2d70","meta":{"profile":["http://hl7.org/fhir/us/qicore/StructureDefinition/qicore-practitioner"]},"identifier":[{"use":"temp","system":"urn:oid:2.16.840.1.113883.4.336","value":"Practitioner-23"}],"active":true,"name":[{"family":"Careful","given":["Adam"],"prefix":["Dr"]}],"address":[{"use":"home","line":["534 Erewhon St"],"city":"PleasantVille","state":"UT","postalCode":"84414"}],"qualification":[{"identifier":[{"system":"http://example.org/UniversityIdentifier","value":"12345"}],"code":{"coding":[{"system":"http://terminology.hl7.org/CodeSystem/v2-0360|2.7","code":"BS","display":"Bachelor of Science"}],"text":"Bachelor of Science"},"period":{"start":"1996"},"issuer":{"display":"Example University"}}]},"request":{"method":"PUT","url":"Practitioner/9096f184-7d46-4981-9346-b07a561a2d70"}},{"fullUrl":"https://madie.cms.gov/MedicationRequest/f3078c61-4d0c-4a71-89c8-68e400d736a2","resource":{"resourceType":"MedicationRequest","id":"f3078c61-4d0c-4a71-89c8-68e400d736a2","meta":{"profile":["http://hl7.org/fhir/us/qicore/StructureDefinition/qicore-medicationrequest"]},"status":"active","intent":"order","medicationCodeableConcept":{"coding":[{"system":"http://www.nlm.nih.gov/research/umls/rxnorm","version":"04012024","code":"1115257","display":"1.5 ML leuprolide acetate 30 MG/ML Prefilled Syringe"}]},"subject":{"reference":"Patient/f67164ab-356d-4fb6-afcb-169aaa7fe3f4"},"authoredOn":"2026-02-04T08:00:00.000+00:00","requester":{"reference":"http://myGoodHealthcare.com/fhir/Practitioner/9096f184-7d46-4981-9346-b07a561a2d70"},"dosageInstruction":[{"timing":{"repeat":{"boundsPeriod":{"start":"2026-02-04T08:00:00.000+00:00","end":"2026-03-04T08:00:00.000+00:00"}}}}]},"request":{"method":"PUT","url":"MedicationRequest/f3078c61-4d0c-4a71-89c8-68e400d736a2"}},{"fullUrl":"https://madie.cms.gov/ServiceRequest/51a9de17-3f73-4e02-94e8-43cbdc7cc081","resource":{"resourceType":"ServiceRequest","id":"51a9de17-3f73-4e02-94e8-43cbdc7cc081","meta":{"profile":["http://hl7.org/fhir/us/qicore/StructureDefinition/qicore-servicerequest"]},"status":"active","intent":"order","code":{"coding":[{"system":"http://snomed.info/sct","version":"http://snomed.info/sct/731000124108/version/20240301","code":"456381000124102","display":"Injection of leuprolide acetate for twelve month period (regime/therapy)"}]},"subject":{"reference":"Patient/f67164ab-356d-4fb6-afcb-169aaa7fe3f4"},"authoredOn":"2026-02-04T08:00:00.000+00:00"},"request":{"method":"PUT","url":"ServiceRequest/51a9de17-3f73-4e02-94e8-43cbdc7cc081"}},{"fullUrl":"https://madie.cms.gov/MeasureReport/264d340f-56fd-4096-8e53-0ca16a9c844c","resource":{"resourceType":"MeasureReport","id":"264d340f-56fd-4096-8e53-0ca16a9c844c","meta":{"profile":["http://hl7.org/fhir/us/cqfmeasures/StructureDefinition/test-case-cqfm"]},"contained":[{"resourceType":"Parameters","id":"ee9cd0c4-9a7b-40e7-b970-5cd5c975a3c8-parameters","parameter":[{"name":"subject","valueString":"f67164ab-356d-4fb6-afcb-169aaa7fe3f4"}]}],"extension":[{"url":"http://hl7.org/fhir/StructureDefinition/cqf-inputParameters","valueReference":{"reference":"#ee9cd0c4-9a7b-40e7-b970-5cd5c975a3c8-parameters"}},{"url":"http://hl7.org/fhir/us/cqfmeasures/StructureDefinition/cqfm-testCaseDescription","valueMarkdown":"Encounter Office Visit in MP.  Dx Prostate Cancer in MP. Procedure \nOrder. Dexa 3 months after ADT.  Edge. Passes NUMER as expected."}],"modifierExtension":[{"url":"http://hl7.org/fhir/us/cqfmeasures/StructureDefinition/cqfm-isTestCase","valueBoolean":true}],"status":"complete","type":"individual","measure":"https://madie.cms.gov/Measure/CMS645FHIRBoneDensityProstateCancerAndrogenDeprivationTherapy","period":{"start":"2026-01-01","end":"2026-12-31"},"group":[{"id":"Group_1","population":[{"id":"InitialPopulation_1","code":{"coding":[{"system":"http://terminology.hl7.org/CodeSystem/measure-population","code":"initial-population","display":"Initial Population"}]},"count":1},{"id":"Denominator_1","code":{"coding":[{"system":"http://terminology.hl7.org/CodeSystem/measure-population","code":"denominator","display":"Denominator"}]},"count":1},{"id":"Numerator_1","code":{"coding":[{"system":"http://terminology.hl7.org/CodeSystem/measure-population","code":"numerator","display":"Numerator"}]},"count":1},{"id":"DenominatorException_1","code":{"coding":[{"system":"http://terminology.hl7.org/CodeSystem/measure-population","code":"denominator-exception","display":"Denominator Exception"}]},"count":0}],"measureScore":{"value":1.0}}],"evaluatedResource":[{"reference":"Patient/f67164ab-356d-4fb6-afcb-169aaa7fe3f4"},{"reference":"Encounter/df94061f-acc8-48f8-9eea-da1d1b1fc552"},{"reference":"Condition/3b97edd5-906e-4ba3-9ac0-454187a01833"},{"reference":"Observation/422c65f2-e3c5-4555-a849-7bd5c416fd1c"},{"reference":"Practitioner/9096f184-7d46-4981-9346-b07a561a2d70"},{"reference":"MedicationRequest/f3078c61-4d0c-4a71-89c8-68e400d736a2"},{"reference":"ServiceRequest/51a9de17-3f73-4e02-94e8-43cbdc7cc081"}]},"request":{"method":"PUT","url":"MeasureReport/264d340f-56fd-4096-8e53-0ca16a9c844c"}}]},"request":{"method":"PUT","url":"Bundle/60abda28bf0a01003e3f76bd"}},{"resource":{"resourceType":"ServiceRequest","id":"51a9de17-3f73-4e02-94e8-43cbdc7cc081","meta":{"profile":["http://hl7.org/fhir/us/qicore/StructureDefinition/qicore-servicerequest"]},"status":"active","intent":"order","code":{"coding":[{"system":"http://snomed.info/sct","version":"http://snomed.info/sct/731000124108/version/20240301","code":"456381000124102","display":"Injection of leuprolide acetate for twelve month period (regime/therapy)"}]},"subject":{"reference":"Patient/f67164ab-356d-4fb6-afcb-169aaa7fe3f4"},"authoredOn":"2026-02-04T08:00:00.000+00:00"},"request":{"method":"PUT","url":"ServiceRequest/51a9de17-3f73-4e02-94e8-43cbdc7cc081"}},{"resource":{"resourceType":"Patient","id":"f67164ab-356d-4fb6-afcb-169aaa7fe3f4","meta":{"profile":["http://hl7.org/fhir/us/qicore/StructureDefinition/qicore-patient"]},"extension":[{"url":"http://hl7.org/fhir/us/core/StructureDefinition/us-core-race","extension":[{"url":"ombCategory","valueCoding":{"system":"urn:oid:2.16.840.1.113883.6.238","code":"2054-5","display":"Black or African American"}},{"url":"text","valueString":"Black or African American"}]},{"url":"http://hl7.org/fhir/us/core/StructureDefinition/us-core-ethnicity","extension":[{"url":"ombCategory","valueCoding":{"system":"urn:oid:2.16.840.1.113883.6.238","code":"2186-5","display":"Not Hispanic or Latino"}},{"url":"text","valueString":"Not Hispanic or Latino"}]}],"identifier":[{"type":{"coding":[{"system":"http://terminology.hl7.org/CodeSystem/v2-0203","code":"MR"}]},"system":"https://bonnie-fhir.healthit.gov/","value":"463131313187656"}],"name":[{"family":"NUMERPass","given":["DEXA3MonthsAfterADTEdge"]}],"gender":"male","birthDate":"1930-06-15"},"request":{"method":"PUT","url":"Patient/f67164ab-356d-4fb6-afcb-169aaa7fe3f4"}},{"resource":{"resourceType":"Observation","id":"422c65f2-e3c5-4555-a849-7bd5c416fd1c","meta":{"profile":["http://hl7.org/fhir/us/qicore/StructureDefinition/qicore-observation-lab"]},"status":"final","category":[{"coding":[{"system":"http://terminology.hl7.org/CodeSystem/observation-category","code":"imaging","display":"Imaging"}]}],"code":{"coding":[{"system":"http://loinc.org","version":"2.76","code":"38265-5","display":"DXA Radius and Ulna [T-score] Bone density"}]},"subject":{"reference":"Patient/f67164ab-356d-4fb6-afcb-169aaa7fe3f4"},"effectivePeriod":{"start":"2026-05-01T10:00:00.000+00:00"}},"request":{"method":"PUT","url":"Observation/422c65f2-e3c5-4555-a849-7bd5c416fd1c"}},{"resource":{"resourceType":"Condition","id":"3b97edd5-906e-4ba3-9ac0-454187a01833","meta":{"profile":["http://hl7.org/fhir/us/qicore/StructureDefinition/qicore-condition-problems-health-concerns"]},"clinicalStatus":{"coding":[{"system":"http://terminology.hl7.org/CodeSystem/condition-clinical","code":"active","display":"Active","userSelected":true}]},"verificationStatus":{"coding":[{"system":"http://terminology.hl7.org/CodeSystem/condition-ver-status","code":"confirmed"}]},"category":[{"coding":[{"system":"http://terminology.hl7.org/CodeSystem/condition-category","code":"problem-list-item","display":"Problem List Item"}]}],"code":{"coding":[{"system":"http://snomed.info/sct","version":"http://snomed.info/sct/731000124108/version/20240301","code":"254900004","display":"Carcinoma of prostate (disorder)"}]},"subject":{"reference":"Patient/f67164ab-356d-4fb6-afcb-169aaa7fe3f4"},"onsetDateTime":"2026-02-04T08:00:00.000+00:00"},"request":{"method":"PUT","url":"Condition/3b97edd5-906e-4ba3-9ac0-454187a01833"}}]}