{"resourceType":"Bundle","id":"tests-319cbdd5-a6ea-437b-8162-a7af346daa63-bundle","type":"transaction","entry":[{"fullUrl":"Encounter/08c5a0ca-08f1-4676-8241-2bffe596cd60","resource":{"resourceType":"Encounter","id":"08c5a0ca-08f1-4676-8241-2bffe596cd60","meta":{"profile":["http://hl7.org/fhir/us/qicore/StructureDefinition/qicore-encounter"]},"status":"finished","class":{"system":"http://terminology.hl7.org/CodeSystem/v3-ActCode","code":"AMB","display":"ambulatory"},"type":[{"coding":[{"system":"http://snomed.info/sct","version":"http://snomed.info/sct/731000124108/version/20240401","code":"185463005","display":"Visit out of hours (procedure)"}]}],"subject":{"reference":"Patient/319cbdd5-a6ea-437b-8162-a7af346daa63"},"period":{"start":"2026-03-03T08:00:00.000+00:00","end":"2026-03-03T08:15:00.000+00:00"}},"request":{"method":"PUT","url":"Encounter/08c5a0ca-08f1-4676-8241-2bffe596cd60"}},{"fullUrl":"Organization/00081c77-187a-488a-986b-cff633158b76","resource":{"resourceType":"Organization","id":"00081c77-187a-488a-986b-cff633158b76","meta":{"profile":["http://hl7.org/fhir/us/qicore/StructureDefinition/qicore-organization"]},"identifier":[{"use":"temp","system":"http://hl7.org/fhir/sid/us-npi","value":"BCBST-NPI"}],"active":true,"name":"Blue Cross Blue Shield Tennessee","telecom":[{"system":"phone","value":"(+1) 800-468-9698"}],"address":[{"line":["1 Cameron Hill Circle, Suite 0002"],"city":"Chattanooga","state":"TN","postalCode":"37402-0002","country":"USA"}]},"request":{"method":"PUT","url":"Organization/00081c77-187a-488a-986b-cff633158b76"}},{"fullUrl":"Bundle/62bb3859e8081f5ef5e199f5","resource":{"resourceType":"Bundle","id":"62bb3859e8081f5ef5e199f5","type":"transaction","entry":[{"fullUrl":"https://madie.cms.gov/Patient/319cbdd5-a6ea-437b-8162-a7af346daa63","resource":{"resourceType":"Patient","id":"319cbdd5-a6ea-437b-8162-a7af346daa63","meta":{"profile":["http://hl7.org/fhir/us/qicore/StructureDefinition/qicore-patient"]},"extension":[{"url":"http://hl7.org/fhir/us/core/StructureDefinition/us-core-race","extension":[{"url":"ombCategory","valueCoding":{"system":"urn:oid:2.16.840.1.113883.6.238","code":"1002-5","display":"American Indian or Alaska Native","userSelected":true}},{"url":"detailed","valueCoding":{"system":"urn:oid:2.16.840.1.113883.6.238","code":"1004-1","display":"American Indian","userSelected":true}},{"url":"text","valueString":"American Indian"}]},{"url":"http://hl7.org/fhir/us/core/StructureDefinition/us-core-ethnicity","extension":[{"url":"ombCategory","valueCoding":{"system":"urn:oid:2.16.840.1.113883.6.238","code":"2135-2","display":"Hispanic or Latino","userSelected":true}},{"url":"detailed","valueCoding":{"system":"urn:oid:2.16.840.1.113883.6.238","code":"2153-5","display":"Mexican American Indian","userSelected":true}},{"url":"text","valueString":"Hispanic or Latino: Mexican American Indian"}]}],"identifier":[{"type":{"coding":[{"system":"http://terminology.hl7.org/CodeSystem/v2-0203","code":"MR"}]},"system":"https://bonnie-fhir.healthit.gov/","value":"4161651341613146161"}],"name":[{"family":"DENOMPass","given":["MultiDoseEvent"]}],"gender":"male","birthDate":"1962-07-19"},"request":{"method":"PUT","url":"Patient/319cbdd5-a6ea-437b-8162-a7af346daa63"}},{"fullUrl":"https://madie.cms.gov/Encounter/08c5a0ca-08f1-4676-8241-2bffe596cd60","resource":{"resourceType":"Encounter","id":"08c5a0ca-08f1-4676-8241-2bffe596cd60","meta":{"profile":["http://hl7.org/fhir/us/qicore/StructureDefinition/qicore-encounter"]},"status":"finished","class":{"system":"http://terminology.hl7.org/CodeSystem/v3-ActCode","code":"AMB","display":"ambulatory"},"type":[{"coding":[{"system":"http://snomed.info/sct","version":"http://snomed.info/sct/731000124108/version/20240401","code":"185463005","display":"Visit out of hours (procedure)"}]}],"subject":{"reference":"Patient/319cbdd5-a6ea-437b-8162-a7af346daa63"},"period":{"start":"2026-03-03T08:00:00.000+00:00","end":"2026-03-03T08:15:00.000+00:00"}},"request":{"method":"PUT","url":"Encounter/08c5a0ca-08f1-4676-8241-2bffe596cd60"}},{"fullUrl":"https://madie.cms.gov/Condition/7575be3f-9183-4477-819b-f3cab8fd3e9a","resource":{"resourceType":"Condition","id":"7575be3f-9183-4477-819b-f3cab8fd3e9a","meta":{"profile":["http://hl7.org/fhir/us/qicore/StructureDefinition/qicore-condition-problems-health-concerns"]},"clinicalStatus":{"coding":[{"system":"http://terminology.hl7.org/CodeSystem/condition-clinical","code":"active","display":"Active"}]},"verificationStatus":{"coding":[{"system":"http://terminology.hl7.org/CodeSystem/condition-ver-status","code":"confirmed","display":"Confirmed"}]},"category":[{"coding":[{"system":"http://terminology.hl7.org/CodeSystem/condition-category","code":"problem-list-item","display":"Problem List Item"}]}],"code":{"coding":[{"system":"http://snomed.info/sct","version":"http://snomed.info/sct/731000124108/version/20240401","code":"254900004","display":"Carcinoma of prostate (disorder)","userSelected":true}]},"subject":{"reference":"Patient/319cbdd5-a6ea-437b-8162-a7af346daa63"},"onsetPeriod":{"start":"2026-03-03T08:00:00.000+00:00"}},"request":{"method":"PUT","url":"Condition/7575be3f-9183-4477-819b-f3cab8fd3e9a"}},{"fullUrl":"https://madie.cms.gov/MedicationRequest/40356877-7215-414c-9797-6bef6e9fcc42","resource":{"resourceType":"MedicationRequest","id":"40356877-7215-414c-9797-6bef6e9fcc42","meta":{"profile":["http://hl7.org/fhir/us/qicore/StructureDefinition/qicore-medicationrequest"]},"status":"active","intent":"order","medicationCodeableConcept":{"coding":[{"system":"http://www.nlm.nih.gov/research/umls/rxnorm","version":"2025-01","code":"752884","display":"0.375 ML leuprolide acetate 120 MG/ML Prefilled Syringe","userSelected":true}]},"subject":{"reference":"Patient/319cbdd5-a6ea-437b-8162-a7af346daa63"},"authoredOn":"2026-03-03T08:00:00.000+00:00","requester":{"reference":"http://myGoodHealthcare.com/fhir/Practitioner/646346"},"dosageInstruction":[{"timing":{"event":["2027-11-03T08:00:00.000+00:00","2026-12-03T08:00:00.000+00:00"]}},{"timing":{"event":["2025-12-03T08:00:00.000+00:00","2025-11-03T08:00:00.000+00:00"]}}]},"request":{"method":"PUT","url":"MedicationRequest/40356877-7215-414c-9797-6bef6e9fcc42"}},{"fullUrl":"https://madie.cms.gov/ServiceRequest/4dcc757b-5eef-4766-8061-890645d09464","resource":{"resourceType":"ServiceRequest","id":"4dcc757b-5eef-4766-8061-890645d09464","meta":{"profile":["http://hl7.org/fhir/us/qicore/StructureDefinition/qicore-servicerequest"]},"status":"active","intent":"order","code":{"coding":[{"system":"http://snomed.info/sct","code":"456381000124102","display":"Injection of leuprolide acetate for twelve month period (regime/therapy)"}]},"subject":{"reference":"Patient/319cbdd5-a6ea-437b-8162-a7af346daa63"},"authoredOn":"2026-03-03T08:00:00.000+00:00"},"request":{"method":"PUT","url":"ServiceRequest/4dcc757b-5eef-4766-8061-890645d09464"}},{"fullUrl":"https://madie.cms.gov/Coverage/47525444-cffb-4ea8-b391-bbe277370964","resource":{"resourceType":"Coverage","id":"47525444-cffb-4ea8-b391-bbe277370964","meta":{"profile":["http://hl7.org/fhir/us/qicore/StructureDefinition/qicore-coverage"]},"identifier":[{"system":"http://benefitsinc.com/certificate","value":"12345"}],"status":"active","type":{"coding":[{"system":"https://nahdo.org/sopt","version":"9.2","code":"6","display":"BLUE CROSS/BLUE SHIELD"}]},"beneficiary":{"reference":"Patient/319cbdd5-a6ea-437b-8162-a7af346daa63"},"period":{"start":"2012-05-23"},"payor":[{"reference":"Organization/00081c77-187a-488a-986b-cff633158b76"}]},"request":{"method":"PUT","url":"Coverage/47525444-cffb-4ea8-b391-bbe277370964"}},{"fullUrl":"https://madie.cms.gov/Organization/00081c77-187a-488a-986b-cff633158b76","resource":{"resourceType":"Organization","id":"00081c77-187a-488a-986b-cff633158b76","meta":{"profile":["http://hl7.org/fhir/us/qicore/StructureDefinition/qicore-organization"]},"identifier":[{"use":"temp","system":"http://hl7.org/fhir/sid/us-npi","value":"BCBST-NPI"}],"active":true,"name":"Blue Cross Blue Shield Tennessee","telecom":[{"system":"phone","value":"(+1) 800-468-9698"}],"address":[{"line":["1 Cameron Hill Circle, Suite 0002"],"city":"Chattanooga","state":"TN","postalCode":"37402-0002","country":"USA"}]},"request":{"method":"PUT","url":"Organization/00081c77-187a-488a-986b-cff633158b76"}},{"fullUrl":"https://madie.cms.gov/MeasureReport/1920008a-8d64-4684-9549-64960adec45a","resource":{"resourceType":"MeasureReport","id":"1920008a-8d64-4684-9549-64960adec45a","meta":{"profile":["http://hl7.org/fhir/us/cqfmeasures/StructureDefinition/test-case-cqfm"]},"contained":[{"resourceType":"Parameters","id":"a5a70be0-af6b-4be1-83ec-1a8be6bc2983-parameters","parameter":[{"name":"subject","valueString":"319cbdd5-a6ea-437b-8162-a7af346daa63"}]}],"extension":[{"url":"http://hl7.org/fhir/StructureDefinition/cqf-inputParameters","valueReference":{"reference":"#a5a70be0-af6b-4be1-83ec-1a8be6bc2983-parameters"}},{"url":"http://hl7.org/fhir/us/cqfmeasures/StructureDefinition/cqfm-testCaseDescription","valueMarkdown":"Has a qualifying encounter, an ADT order for 12 Months , and multiple dosage instructions"}],"modifierExtension":[{"url":"http://hl7.org/fhir/us/cqfmeasures/StructureDefinition/cqfm-isTestCase","valueBoolean":true}],"status":"complete","type":"individual","measure":"https://madie.cms.gov/Measure/CMS645FHIRBoneDensityProstateCancerAndrogenDeprivationTherapy","period":{"start":"2026-01-01","end":"2026-12-31"},"group":[{"id":"Group_1","population":[{"id":"InitialPopulation_1","code":{"coding":[{"system":"http://terminology.hl7.org/CodeSystem/measure-population","code":"initial-population","display":"Initial Population"}]},"count":1},{"id":"Denominator_1","code":{"coding":[{"system":"http://terminology.hl7.org/CodeSystem/measure-population","code":"denominator","display":"Denominator"}]},"count":1},{"id":"Numerator_1","code":{"coding":[{"system":"http://terminology.hl7.org/CodeSystem/measure-population","code":"numerator","display":"Numerator"}]},"count":0},{"id":"DenominatorException_1","code":{"coding":[{"system":"http://terminology.hl7.org/CodeSystem/measure-population","code":"denominator-exception","display":"Denominator Exception"}]},"count":0}],"measureScore":{"value":1.0}}],"evaluatedResource":[{"reference":"Patient/319cbdd5-a6ea-437b-8162-a7af346daa63"},{"reference":"Encounter/08c5a0ca-08f1-4676-8241-2bffe596cd60"},{"reference":"Condition/7575be3f-9183-4477-819b-f3cab8fd3e9a"},{"reference":"MedicationRequest/40356877-7215-414c-9797-6bef6e9fcc42"},{"reference":"ServiceRequest/4dcc757b-5eef-4766-8061-890645d09464"},{"reference":"Coverage/47525444-cffb-4ea8-b391-bbe277370964"},{"reference":"Organization/00081c77-187a-488a-986b-cff633158b76"}]},"request":{"method":"PUT","url":"MeasureReport/1920008a-8d64-4684-9549-64960adec45a"}}]},"request":{"method":"PUT","url":"Bundle/62bb3859e8081f5ef5e199f5"}},{"fullUrl":"MeasureReport/1920008a-8d64-4684-9549-64960adec45a","resource":{"resourceType":"MeasureReport","id":"1920008a-8d64-4684-9549-64960adec45a","meta":{"profile":["http://hl7.org/fhir/us/cqfmeasures/StructureDefinition/test-case-cqfm"]},"contained":[{"resourceType":"Parameters","id":"a5a70be0-af6b-4be1-83ec-1a8be6bc2983-parameters","parameter":[{"name":"subject","valueString":"319cbdd5-a6ea-437b-8162-a7af346daa63"}]}],"extension":[{"url":"http://hl7.org/fhir/StructureDefinition/cqf-inputParameters","valueReference":{"reference":"#a5a70be0-af6b-4be1-83ec-1a8be6bc2983-parameters"}},{"url":"http://hl7.org/fhir/us/cqfmeasures/StructureDefinition/cqfm-testCaseDescription","valueMarkdown":"Has a qualifying encounter, an ADT order for 12 Months , and multiple dosage instructions"}],"modifierExtension":[{"url":"http://hl7.org/fhir/us/cqfmeasures/StructureDefinition/cqfm-isTestCase","valueBoolean":true}],"status":"complete","type":"individual","measure":"https://madie.cms.gov/Measure/CMS645FHIRBoneDensityProstateCancerAndrogenDeprivationTherapy","period":{"start":"2026-01-01","end":"2026-12-31"},"group":[{"id":"Group_1","population":[{"id":"InitialPopulation_1","code":{"coding":[{"system":"http://terminology.hl7.org/CodeSystem/measure-population","code":"initial-population","display":"Initial Population"}]},"count":1},{"id":"Denominator_1","code":{"coding":[{"system":"http://terminology.hl7.org/CodeSystem/measure-population","code":"denominator","display":"Denominator"}]},"count":1},{"id":"Numerator_1","code":{"coding":[{"system":"http://terminology.hl7.org/CodeSystem/measure-population","code":"numerator","display":"Numerator"}]},"count":0},{"id":"DenominatorException_1","code":{"coding":[{"system":"http://terminology.hl7.org/CodeSystem/measure-population","code":"denominator-exception","display":"Denominator Exception"}]},"count":0}],"measureScore":{"value":1.0}}],"evaluatedResource":[{"reference":"Patient/319cbdd5-a6ea-437b-8162-a7af346daa63"},{"reference":"Encounter/08c5a0ca-08f1-4676-8241-2bffe596cd60"},{"reference":"Condition/7575be3f-9183-4477-819b-f3cab8fd3e9a"},{"reference":"MedicationRequest/40356877-7215-414c-9797-6bef6e9fcc42"},{"reference":"ServiceRequest/4dcc757b-5eef-4766-8061-890645d09464"},{"reference":"Coverage/47525444-cffb-4ea8-b391-bbe277370964"},{"reference":"Organization/00081c77-187a-488a-986b-cff633158b76"}]},"request":{"method":"PUT","url":"MeasureReport/1920008a-8d64-4684-9549-64960adec45a"}},{"fullUrl":"ServiceRequest/4dcc757b-5eef-4766-8061-890645d09464","resource":{"resourceType":"ServiceRequest","id":"4dcc757b-5eef-4766-8061-890645d09464","meta":{"profile":["http://hl7.org/fhir/us/qicore/StructureDefinition/qicore-servicerequest"]},"status":"active","intent":"order","code":{"coding":[{"system":"http://snomed.info/sct","code":"456381000124102","display":"Injection of leuprolide acetate for twelve month period (regime/therapy)"}]},"subject":{"reference":"Patient/319cbdd5-a6ea-437b-8162-a7af346daa63"},"authoredOn":"2026-03-03T08:00:00.000+00:00"},"request":{"method":"PUT","url":"ServiceRequest/4dcc757b-5eef-4766-8061-890645d09464"}},{"fullUrl":"MedicationRequest/40356877-7215-414c-9797-6bef6e9fcc42","resource":{"resourceType":"MedicationRequest","id":"40356877-7215-414c-9797-6bef6e9fcc42","meta":{"profile":["http://hl7.org/fhir/us/qicore/StructureDefinition/qicore-medicationrequest"]},"status":"active","intent":"order","medicationCodeableConcept":{"coding":[{"system":"http://www.nlm.nih.gov/research/umls/rxnorm","version":"2025-01","code":"752884","display":"0.375 ML leuprolide acetate 120 MG/ML Prefilled Syringe","userSelected":true}]},"subject":{"reference":"Patient/319cbdd5-a6ea-437b-8162-a7af346daa63"},"authoredOn":"2026-03-03T08:00:00.000+00:00","requester":{"reference":"http://myGoodHealthcare.com/fhir/Practitioner/646346"},"dosageInstruction":[{"timing":{"event":["2027-11-03T08:00:00.000+00:00","2026-12-03T08:00:00.000+00:00"]}},{"timing":{"event":["2025-12-03T08:00:00.000+00:00","2025-11-03T08:00:00.000+00:00"]}}]},"request":{"method":"PUT","url":"MedicationRequest/40356877-7215-414c-9797-6bef6e9fcc42"}},{"fullUrl":"Patient/319cbdd5-a6ea-437b-8162-a7af346daa63","resource":{"resourceType":"Patient","id":"319cbdd5-a6ea-437b-8162-a7af346daa63","meta":{"profile":["http://hl7.org/fhir/us/qicore/StructureDefinition/qicore-patient"]},"extension":[{"url":"http://hl7.org/fhir/us/core/StructureDefinition/us-core-race","extension":[{"url":"ombCategory","valueCoding":{"system":"urn:oid:2.16.840.1.113883.6.238","code":"1002-5","display":"American Indian or Alaska Native","userSelected":true}},{"url":"detailed","valueCoding":{"system":"urn:oid:2.16.840.1.113883.6.238","code":"1004-1","display":"American Indian","userSelected":true}},{"url":"text","valueString":"American Indian"}]},{"url":"http://hl7.org/fhir/us/core/StructureDefinition/us-core-ethnicity","extension":[{"url":"ombCategory","valueCoding":{"system":"urn:oid:2.16.840.1.113883.6.238","code":"2135-2","display":"Hispanic or Latino","userSelected":true}},{"url":"detailed","valueCoding":{"system":"urn:oid:2.16.840.1.113883.6.238","code":"2153-5","display":"Mexican American Indian","userSelected":true}},{"url":"text","valueString":"Hispanic or Latino: Mexican American Indian"}]}],"identifier":[{"type":{"coding":[{"system":"http://terminology.hl7.org/CodeSystem/v2-0203","code":"MR"}]},"system":"https://bonnie-fhir.healthit.gov/","value":"4161651341613146161"}],"name":[{"family":"DENOMPass","given":["MultiDoseEvent"]}],"gender":"male","birthDate":"1962-07-19"},"request":{"method":"PUT","url":"Patient/319cbdd5-a6ea-437b-8162-a7af346daa63"}},{"fullUrl":"Coverage/47525444-cffb-4ea8-b391-bbe277370964","resource":{"resourceType":"Coverage","id":"47525444-cffb-4ea8-b391-bbe277370964","meta":{"profile":["http://hl7.org/fhir/us/qicore/StructureDefinition/qicore-coverage"]},"identifier":[{"system":"http://benefitsinc.com/certificate","value":"12345"}],"status":"active","type":{"coding":[{"system":"https://nahdo.org/sopt","version":"9.2","code":"6","display":"BLUE CROSS/BLUE SHIELD"}]},"beneficiary":{"reference":"Patient/319cbdd5-a6ea-437b-8162-a7af346daa63"},"period":{"start":"2012-05-23"},"payor":[{"reference":"Organization/00081c77-187a-488a-986b-cff633158b76"}]},"request":{"method":"PUT","url":"Coverage/47525444-cffb-4ea8-b391-bbe277370964"}},{"fullUrl":"Condition/7575be3f-9183-4477-819b-f3cab8fd3e9a","resource":{"resourceType":"Condition","id":"7575be3f-9183-4477-819b-f3cab8fd3e9a","meta":{"profile":["http://hl7.org/fhir/us/qicore/StructureDefinition/qicore-condition-problems-health-concerns"]},"clinicalStatus":{"coding":[{"system":"http://terminology.hl7.org/CodeSystem/condition-clinical","code":"active","display":"Active"}]},"verificationStatus":{"coding":[{"system":"http://terminology.hl7.org/CodeSystem/condition-ver-status","code":"confirmed","display":"Confirmed"}]},"category":[{"coding":[{"system":"http://terminology.hl7.org/CodeSystem/condition-category","code":"problem-list-item","display":"Problem List Item"}]}],"code":{"coding":[{"system":"http://snomed.info/sct","version":"http://snomed.info/sct/731000124108/version/20240401","code":"254900004","display":"Carcinoma of prostate (disorder)","userSelected":true}]},"subject":{"reference":"Patient/319cbdd5-a6ea-437b-8162-a7af346daa63"},"onsetPeriod":{"start":"2026-03-03T08:00:00.000+00:00"}},"request":{"method":"PUT","url":"Condition/7575be3f-9183-4477-819b-f3cab8fd3e9a"}}]}