{"resourceType":"Bundle","id":"tests-5e4e034a-475f-476a-a8f7-cb0d361508ab-bundle","type":"transaction","entry":[{"resource":{"resourceType":"Condition","id":"99beea4f-9e62-4c3a-a6eb-3071fe38fb4b","meta":{"profile":["http://hl7.org/fhir/us/qicore/StructureDefinition/qicore-condition-problems-health-concerns"]},"clinicalStatus":{"coding":[{"system":"http://terminology.hl7.org/CodeSystem/condition-clinical","code":"active"}]},"verificationStatus":{"coding":[{"system":"http://terminology.hl7.org/CodeSystem/condition-ver-status","code":"confirmed"}]},"category":[{"coding":[{"system":"http://terminology.hl7.org/CodeSystem/condition-category","code":"problem-list-item","display":"Problem List Item"}]}],"code":{"coding":[{"system":"http://snomed.info/sct","version":"http://snomed.info/sct/731000124108/version/20240401","code":"254900004","display":"Carcinoma of prostate (disorder)"}]},"subject":{"reference":"Patient/5e4e034a-475f-476a-a8f7-cb0d361508ab"},"onsetPeriod":{"start":"2026-01-03T08:00:00.000+00:00"}},"request":{"method":"PUT","url":"Condition/99beea4f-9e62-4c3a-a6eb-3071fe38fb4b"}},{"resource":{"resourceType":"Patient","id":"5e4e034a-475f-476a-a8f7-cb0d361508ab","meta":{"profile":["http://hl7.org/fhir/us/qicore/StructureDefinition/qicore-patient"]},"extension":[{"url":"http://hl7.org/fhir/us/core/StructureDefinition/us-core-race","extension":[{"url":"ombCategory","valueCoding":{"system":"urn:oid:2.16.840.1.113883.6.238","code":"2076-8","display":"Native Hawaiian or Other Pacific Islander"}},{"url":"text","valueString":"Other Race"}]},{"url":"http://hl7.org/fhir/us/core/StructureDefinition/us-core-ethnicity","extension":[{"url":"ombCategory","valueCoding":{"system":"urn:oid:2.16.840.1.113883.6.238","code":"2135-2","display":"Hispanic or Latino","userSelected":true}},{"url":"text","valueString":"Hispanic or Latino"}]}],"identifier":[{"type":{"coding":[{"system":"http://terminology.hl7.org/CodeSystem/v2-0203","code":"MR"}]},"system":"https://bonnie-fhir.healthit.gov/","value":"60abce8bcd7f9706e4189cfd"}],"name":[{"family":"DENOMPass","given":["ADTActiveAfterCancerDx"]}],"gender":"male","birthDate":"1950-07-09"},"request":{"method":"PUT","url":"Patient/5e4e034a-475f-476a-a8f7-cb0d361508ab"}},{"resource":{"resourceType":"MeasureReport","id":"bdec7a47-2aa0-490d-b838-56de273f257e","meta":{"profile":["http://hl7.org/fhir/us/cqfmeasures/StructureDefinition/test-case-cqfm"]},"contained":[{"resourceType":"Parameters","id":"b79e98a0-0102-48df-bd5d-aed5047445f3-parameters","parameter":[{"name":"subject","valueString":"5e4e034a-475f-476a-a8f7-cb0d361508ab"}]}],"extension":[{"url":"http://hl7.org/fhir/StructureDefinition/cqf-inputParameters","valueReference":{"reference":"#b79e98a0-0102-48df-bd5d-aed5047445f3-parameters"}},{"url":"http://hl7.org/fhir/us/cqfmeasures/StructureDefinition/cqfm-testCaseDescription","valueMarkdown":"Dx of Prostate Cancer, and Androgen deprivation therapy for Urology Care is not null. Passes IPP and Denom with no end date of diagnosis which is usual for Prostate Cancer not ending-clinically relevant."}],"modifierExtension":[{"url":"http://hl7.org/fhir/us/cqfmeasures/StructureDefinition/cqfm-isTestCase","valueBoolean":true}],"status":"complete","type":"individual","measure":"https://madie.cms.gov/Measure/CMS645FHIRBoneDensityProstateCancerAndrogenDeprivationTherapy","period":{"start":"2026-01-01","end":"2026-12-31"},"group":[{"id":"Group_1","population":[{"id":"InitialPopulation_1","code":{"coding":[{"system":"http://terminology.hl7.org/CodeSystem/measure-population","code":"initial-population","display":"Initial Population"}]},"count":1},{"id":"Denominator_1","code":{"coding":[{"system":"http://terminology.hl7.org/CodeSystem/measure-population","code":"denominator","display":"Denominator"}]},"count":1},{"id":"Numerator_1","code":{"coding":[{"system":"http://terminology.hl7.org/CodeSystem/measure-population","code":"numerator","display":"Numerator"}]},"count":0},{"id":"DenominatorException_1","code":{"coding":[{"system":"http://terminology.hl7.org/CodeSystem/measure-population","code":"denominator-exception","display":"Denominator Exception"}]},"count":0}],"measureScore":{"value":1.0}}],"evaluatedResource":[{"reference":"Patient/5e4e034a-475f-476a-a8f7-cb0d361508ab"},{"reference":"Encounter/babf6fc4-c9dd-4ec6-b8ad-088e21aee809"},{"reference":"Condition/99beea4f-9e62-4c3a-a6eb-3071fe38fb4b"},{"reference":"MedicationRequest/fe9a5c10-31e8-42ef-a5c3-46b701a33213"},{"reference":"Practitioner/75597610-e80e-4094-8dd9-2a0b4b93a25a"},{"reference":"ServiceRequest/dd3ce7fb-46bc-46ac-9504-3fec2fdf97ff"}]},"request":{"method":"PUT","url":"MeasureReport/bdec7a47-2aa0-490d-b838-56de273f257e"}},{"resource":{"resourceType":"Practitioner","id":"75597610-e80e-4094-8dd9-2a0b4b93a25a","meta":{"profile":["http://hl7.org/fhir/us/qicore/StructureDefinition/qicore-practitioner"]},"identifier":[{"use":"temp","system":"urn:oid:2.16.840.1.113883.4.336","value":"Practitioner-23"}],"active":true,"name":[{"family":"Careful","given":["Adam"],"prefix":["Dr"]}],"address":[{"use":"home","line":["534 Erewhon St"],"city":"PleasantVille","state":"UT","postalCode":"84414"}],"qualification":[{"identifier":[{"system":"http://example.org/UniversityIdentifier","value":"12345"}],"code":{"coding":[{"system":"http://terminology.hl7.org/CodeSystem/v2-0360|2.7","code":"BS","display":"Bachelor of Science"}],"text":"Bachelor of Science"},"period":{"start":"1996"},"issuer":{"display":"Example University"}}]},"request":{"method":"PUT","url":"Practitioner/75597610-e80e-4094-8dd9-2a0b4b93a25a"}},{"resource":{"resourceType":"Bundle","id":"13161321321351024","type":"transaction","entry":[{"fullUrl":"https://madie.cms.gov/Patient/5e4e034a-475f-476a-a8f7-cb0d361508ab","resource":{"resourceType":"Patient","id":"5e4e034a-475f-476a-a8f7-cb0d361508ab","meta":{"profile":["http://hl7.org/fhir/us/qicore/StructureDefinition/qicore-patient"]},"extension":[{"url":"http://hl7.org/fhir/us/core/StructureDefinition/us-core-race","extension":[{"url":"ombCategory","valueCoding":{"system":"urn:oid:2.16.840.1.113883.6.238","code":"2076-8","display":"Native Hawaiian or Other Pacific Islander"}},{"url":"text","valueString":"Other Race"}]},{"url":"http://hl7.org/fhir/us/core/StructureDefinition/us-core-ethnicity","extension":[{"url":"ombCategory","valueCoding":{"system":"urn:oid:2.16.840.1.113883.6.238","code":"2135-2","display":"Hispanic or Latino","userSelected":true}},{"url":"text","valueString":"Hispanic or Latino"}]}],"identifier":[{"type":{"coding":[{"system":"http://terminology.hl7.org/CodeSystem/v2-0203","code":"MR"}]},"system":"https://bonnie-fhir.healthit.gov/","value":"60abce8bcd7f9706e4189cfd"}],"name":[{"family":"DENOMPass","given":["ADTActiveAfterCancerDx"]}],"gender":"male","birthDate":"1950-07-09"},"request":{"method":"PUT","url":"Patient/5e4e034a-475f-476a-a8f7-cb0d361508ab"}},{"fullUrl":"https://madie.cms.gov/Encounter/babf6fc4-c9dd-4ec6-b8ad-088e21aee809","resource":{"resourceType":"Encounter","id":"babf6fc4-c9dd-4ec6-b8ad-088e21aee809","meta":{"profile":["http://hl7.org/fhir/us/qicore/StructureDefinition/qicore-encounter"]},"status":"finished","class":{"system":"http://terminology.hl7.org/CodeSystem/v3-ActCode","code":"AMB","display":"ambulatory"},"type":[{"coding":[{"system":"http://snomed.info/sct","version":"http://snomed.info/sct/731000124108/version/20240401","code":"185463005","display":"Visit out of hours (procedure)"}]}],"subject":{"reference":"Patient/5e4e034a-475f-476a-a8f7-cb0d361508ab"},"period":{"start":"2026-02-03T08:00:00+00:00","end":"2026-02-03T08:45:00+00:00"}},"request":{"method":"PUT","url":"Encounter/babf6fc4-c9dd-4ec6-b8ad-088e21aee809"}},{"fullUrl":"https://madie.cms.gov/Condition/99beea4f-9e62-4c3a-a6eb-3071fe38fb4b","resource":{"resourceType":"Condition","id":"99beea4f-9e62-4c3a-a6eb-3071fe38fb4b","meta":{"profile":["http://hl7.org/fhir/us/qicore/StructureDefinition/qicore-condition-problems-health-concerns"]},"clinicalStatus":{"coding":[{"system":"http://terminology.hl7.org/CodeSystem/condition-clinical","code":"active"}]},"verificationStatus":{"coding":[{"system":"http://terminology.hl7.org/CodeSystem/condition-ver-status","code":"confirmed"}]},"category":[{"coding":[{"system":"http://terminology.hl7.org/CodeSystem/condition-category","code":"problem-list-item","display":"Problem List Item"}]}],"code":{"coding":[{"system":"http://snomed.info/sct","version":"http://snomed.info/sct/731000124108/version/20240401","code":"254900004","display":"Carcinoma of prostate (disorder)"}]},"subject":{"reference":"Patient/5e4e034a-475f-476a-a8f7-cb0d361508ab"},"onsetPeriod":{"start":"2026-01-03T08:00:00.000+00:00"}},"request":{"method":"PUT","url":"Condition/99beea4f-9e62-4c3a-a6eb-3071fe38fb4b"}},{"fullUrl":"https://madie.cms.gov/MedicationRequest/fe9a5c10-31e8-42ef-a5c3-46b701a33213","resource":{"resourceType":"MedicationRequest","id":"fe9a5c10-31e8-42ef-a5c3-46b701a33213","meta":{"profile":["http://hl7.org/fhir/us/qicore/StructureDefinition/qicore-medicationrequest"]},"status":"active","intent":"order","doNotPerform":false,"medicationCodeableConcept":{"coding":[{"system":"http://www.nlm.nih.gov/research/umls/rxnorm","version":"2025-01","code":"314008","display":"goserelin 10.8 MG Drug Implant"}]},"subject":{"reference":"Patient/5e4e034a-475f-476a-a8f7-cb0d361508ab"},"authoredOn":"2026-02-01T08:00:00.000+00:00","requester":{"reference":"http://myGoodHealthcare.com/fhir/Practitioner/75597610-e80e-4094-8dd9-2a0b4b93a25a"},"dosageInstruction":[{"timing":{"repeat":{"boundsPeriod":{"start":"2026-02-03T08:00:00.000+00:00","end":"2026-03-03T09:00:00.000+00:00"}}}}]},"request":{"method":"PUT","url":"MedicationRequest/fe9a5c10-31e8-42ef-a5c3-46b701a33213"}},{"fullUrl":"https://madie.cms.gov/Practitioner/75597610-e80e-4094-8dd9-2a0b4b93a25a","resource":{"resourceType":"Practitioner","id":"75597610-e80e-4094-8dd9-2a0b4b93a25a","meta":{"profile":["http://hl7.org/fhir/us/qicore/StructureDefinition/qicore-practitioner"]},"identifier":[{"use":"temp","system":"urn:oid:2.16.840.1.113883.4.336","value":"Practitioner-23"}],"active":true,"name":[{"family":"Careful","given":["Adam"],"prefix":["Dr"]}],"address":[{"use":"home","line":["534 Erewhon St"],"city":"PleasantVille","state":"UT","postalCode":"84414"}],"qualification":[{"identifier":[{"system":"http://example.org/UniversityIdentifier","value":"12345"}],"code":{"coding":[{"system":"http://terminology.hl7.org/CodeSystem/v2-0360|2.7","code":"BS","display":"Bachelor of Science"}],"text":"Bachelor of Science"},"period":{"start":"1996"},"issuer":{"display":"Example University"}}]},"request":{"method":"PUT","url":"Practitioner/75597610-e80e-4094-8dd9-2a0b4b93a25a"}},{"fullUrl":"https://madie.cms.gov/ServiceRequest/dd3ce7fb-46bc-46ac-9504-3fec2fdf97ff","resource":{"resourceType":"ServiceRequest","id":"dd3ce7fb-46bc-46ac-9504-3fec2fdf97ff","meta":{"profile":["http://hl7.org/fhir/us/qicore/StructureDefinition/qicore-servicerequest"]},"status":"active","intent":"order","code":{"coding":[{"system":"http://snomed.info/sct","code":"456381000124102","display":"Injection of leuprolide acetate for twelve month period (regime/therapy)"}]},"subject":{"reference":"Patient/5e4e034a-475f-476a-a8f7-cb0d361508ab"},"authoredOn":"2026-02-03T08:00:00.000+00:00"},"request":{"method":"PUT","url":"ServiceRequest/dd3ce7fb-46bc-46ac-9504-3fec2fdf97ff"}},{"fullUrl":"https://madie.cms.gov/MeasureReport/bdec7a47-2aa0-490d-b838-56de273f257e","resource":{"resourceType":"MeasureReport","id":"bdec7a47-2aa0-490d-b838-56de273f257e","meta":{"profile":["http://hl7.org/fhir/us/cqfmeasures/StructureDefinition/test-case-cqfm"]},"contained":[{"resourceType":"Parameters","id":"b79e98a0-0102-48df-bd5d-aed5047445f3-parameters","parameter":[{"name":"subject","valueString":"5e4e034a-475f-476a-a8f7-cb0d361508ab"}]}],"extension":[{"url":"http://hl7.org/fhir/StructureDefinition/cqf-inputParameters","valueReference":{"reference":"#b79e98a0-0102-48df-bd5d-aed5047445f3-parameters"}},{"url":"http://hl7.org/fhir/us/cqfmeasures/StructureDefinition/cqfm-testCaseDescription","valueMarkdown":"Dx of Prostate Cancer, and Androgen deprivation therapy for Urology Care is not null. Passes IPP and Denom with no end date of diagnosis which is usual for Prostate Cancer not ending-clinically relevant."}],"modifierExtension":[{"url":"http://hl7.org/fhir/us/cqfmeasures/StructureDefinition/cqfm-isTestCase","valueBoolean":true}],"status":"complete","type":"individual","measure":"https://madie.cms.gov/Measure/CMS645FHIRBoneDensityProstateCancerAndrogenDeprivationTherapy","period":{"start":"2026-01-01","end":"2026-12-31"},"group":[{"id":"Group_1","population":[{"id":"InitialPopulation_1","code":{"coding":[{"system":"http://terminology.hl7.org/CodeSystem/measure-population","code":"initial-population","display":"Initial Population"}]},"count":1},{"id":"Denominator_1","code":{"coding":[{"system":"http://terminology.hl7.org/CodeSystem/measure-population","code":"denominator","display":"Denominator"}]},"count":1},{"id":"Numerator_1","code":{"coding":[{"system":"http://terminology.hl7.org/CodeSystem/measure-population","code":"numerator","display":"Numerator"}]},"count":0},{"id":"DenominatorException_1","code":{"coding":[{"system":"http://terminology.hl7.org/CodeSystem/measure-population","code":"denominator-exception","display":"Denominator Exception"}]},"count":0}],"measureScore":{"value":1.0}}],"evaluatedResource":[{"reference":"Patient/5e4e034a-475f-476a-a8f7-cb0d361508ab"},{"reference":"Encounter/babf6fc4-c9dd-4ec6-b8ad-088e21aee809"},{"reference":"Condition/99beea4f-9e62-4c3a-a6eb-3071fe38fb4b"},{"reference":"MedicationRequest/fe9a5c10-31e8-42ef-a5c3-46b701a33213"},{"reference":"Practitioner/75597610-e80e-4094-8dd9-2a0b4b93a25a"},{"reference":"ServiceRequest/dd3ce7fb-46bc-46ac-9504-3fec2fdf97ff"}]},"request":{"method":"PUT","url":"MeasureReport/bdec7a47-2aa0-490d-b838-56de273f257e"}}]},"request":{"method":"PUT","url":"Bundle/13161321321351024"}},{"resource":{"resourceType":"Encounter","id":"babf6fc4-c9dd-4ec6-b8ad-088e21aee809","meta":{"profile":["http://hl7.org/fhir/us/qicore/StructureDefinition/qicore-encounter"]},"status":"finished","class":{"system":"http://terminology.hl7.org/CodeSystem/v3-ActCode","code":"AMB","display":"ambulatory"},"type":[{"coding":[{"system":"http://snomed.info/sct","version":"http://snomed.info/sct/731000124108/version/20240401","code":"185463005","display":"Visit out of hours (procedure)"}]}],"subject":{"reference":"Patient/5e4e034a-475f-476a-a8f7-cb0d361508ab"},"period":{"start":"2026-02-03T08:00:00+00:00","end":"2026-02-03T08:45:00+00:00"}},"request":{"method":"PUT","url":"Encounter/babf6fc4-c9dd-4ec6-b8ad-088e21aee809"}},{"resource":{"resourceType":"ServiceRequest","id":"dd3ce7fb-46bc-46ac-9504-3fec2fdf97ff","meta":{"profile":["http://hl7.org/fhir/us/qicore/StructureDefinition/qicore-servicerequest"]},"status":"active","intent":"order","code":{"coding":[{"system":"http://snomed.info/sct","code":"456381000124102","display":"Injection of leuprolide acetate for twelve month period (regime/therapy)"}]},"subject":{"reference":"Patient/5e4e034a-475f-476a-a8f7-cb0d361508ab"},"authoredOn":"2026-02-03T08:00:00.000+00:00"},"request":{"method":"PUT","url":"ServiceRequest/dd3ce7fb-46bc-46ac-9504-3fec2fdf97ff"}},{"resource":{"resourceType":"MedicationRequest","id":"fe9a5c10-31e8-42ef-a5c3-46b701a33213","meta":{"profile":["http://hl7.org/fhir/us/qicore/StructureDefinition/qicore-medicationrequest"]},"status":"active","intent":"order","doNotPerform":false,"medicationCodeableConcept":{"coding":[{"system":"http://www.nlm.nih.gov/research/umls/rxnorm","version":"2025-01","code":"314008","display":"goserelin 10.8 MG Drug Implant"}]},"subject":{"reference":"Patient/5e4e034a-475f-476a-a8f7-cb0d361508ab"},"authoredOn":"2026-02-01T08:00:00.000+00:00","requester":{"reference":"http://myGoodHealthcare.com/fhir/Practitioner/75597610-e80e-4094-8dd9-2a0b4b93a25a"},"dosageInstruction":[{"timing":{"repeat":{"boundsPeriod":{"start":"2026-02-03T08:00:00.000+00:00","end":"2026-03-03T09:00:00.000+00:00"}}}}]},"request":{"method":"PUT","url":"MedicationRequest/fe9a5c10-31e8-42ef-a5c3-46b701a33213"}}]}