{"resourceType":"Bundle","id":"tests-8068a81d-feca-4719-aa75-cb45df5428e7-bundle","type":"transaction","entry":[{"fullUrl":"ServiceRequest/7fa9a429-6ecc-459b-a79b-cd1f086bad3a","resource":{"resourceType":"ServiceRequest","id":"7fa9a429-6ecc-459b-a79b-cd1f086bad3a","meta":{"profile":["http://hl7.org/fhir/us/qicore/StructureDefinition/qicore-servicerequest"]},"status":"active","intent":"order","code":{"coding":[{"system":"http://snomed.info/sct","code":"456381000124102","display":"Injection of leuprolide acetate for twelve month period (regime/therapy)"}]},"subject":{"reference":"Patient/8068a81d-feca-4719-aa75-cb45df5428e7"},"authoredOn":"2026-03-15T08:00:00.000+00:00"},"request":{"method":"PUT","url":"ServiceRequest/7fa9a429-6ecc-459b-a79b-cd1f086bad3a"}},{"fullUrl":"Practitioner/8348e6c7-4b4d-4c03-8815-8ca0f03beaa9","resource":{"resourceType":"Practitioner","id":"8348e6c7-4b4d-4c03-8815-8ca0f03beaa9","meta":{"profile":["http://hl7.org/fhir/us/qicore/StructureDefinition/qicore-practitioner"]},"identifier":[{"use":"temp","system":"urn:oid:2.16.840.1.113883.4.336","value":"Practitioner-23"}],"active":true,"name":[{"family":"Careful","given":["Adam"],"prefix":["Dr"]}],"address":[{"use":"home","line":["534 Erewhon St"],"city":"PleasantVille","state":"UT","postalCode":"84414"}],"qualification":[{"identifier":[{"system":"http://example.org/UniversityIdentifier","value":"12345"}],"code":{"coding":[{"system":"http://terminology.hl7.org/CodeSystem/v2-0360|2.7","code":"BS","display":"Bachelor of Science"}],"text":"Bachelor of Science"},"period":{"start":"1996"},"issuer":{"display":"Example University"}}]},"request":{"method":"PUT","url":"Practitioner/8348e6c7-4b4d-4c03-8815-8ca0f03beaa9"}},{"fullUrl":"Patient/8068a81d-feca-4719-aa75-cb45df5428e7","resource":{"resourceType":"Patient","id":"8068a81d-feca-4719-aa75-cb45df5428e7","meta":{"profile":["http://hl7.org/fhir/us/qicore/StructureDefinition/qicore-patient"]},"extension":[{"url":"http://hl7.org/fhir/us/core/StructureDefinition/us-core-race","extension":[{"url":"ombCategory","valueCoding":{"system":"urn:oid:2.16.840.1.113883.6.238","code":"1002-5","display":"American Indian or Alaska Native","userSelected":true}},{"url":"text","valueString":"American Indian or Alaska Native"}]},{"url":"http://hl7.org/fhir/us/core/StructureDefinition/us-core-ethnicity","extension":[{"url":"ombCategory","valueCoding":{"system":"urn:oid:2.16.840.1.113883.6.238","code":"2135-2","display":"Hispanic or Latino","userSelected":true}},{"url":"text","valueString":"Hispanic or Latino"}]}],"identifier":[{"type":{"coding":[{"system":"http://terminology.hl7.org/CodeSystem/v2-0203","code":"MR"}]},"system":"https://bonnie-fhir.healthit.gov","value":"62bc61713e113102f8cedc8b"}],"active":true,"name":[{"family":"DENOMPass","given":["PCaDxBeforeMP"]}],"gender":"male","birthDate":"1952-10-10"},"request":{"method":"PUT","url":"Patient/8068a81d-feca-4719-aa75-cb45df5428e7"}},{"fullUrl":"MedicationRequest/5db422c3-6061-47d0-9f00-12c657efd399","resource":{"resourceType":"MedicationRequest","id":"5db422c3-6061-47d0-9f00-12c657efd399","meta":{"profile":["http://hl7.org/fhir/us/qicore/StructureDefinition/qicore-medicationrequest"]},"status":"active","intent":"order","medicationCodeableConcept":{"coding":[{"system":"http://www.nlm.nih.gov/research/umls/rxnorm","code":"1115257","display":"1.5 ML leuprolide acetate 30 MG/ML Prefilled Syringe"}]},"subject":{"reference":"Patient/8068a81d-feca-4719-aa75-cb45df5428e7"},"authoredOn":"2026-03-15T08:00:00.000+00:00","requester":{"reference":"http://myGoodHealthcare.com/fhir/Practitioner/8348e6c7-4b4d-4c03-8815-8ca0f03beaa9"},"dosageInstruction":[{"timing":{"repeat":{"boundsPeriod":{"start":"2026-03-15T08:00:00.000+00:00","end":"2026-04-15T08:15:00.000+00:00"}}}}]},"request":{"method":"PUT","url":"MedicationRequest/5db422c3-6061-47d0-9f00-12c657efd399"}},{"fullUrl":"Encounter/7209acc8-13a1-45eb-8d7b-178a786a469d","resource":{"resourceType":"Encounter","id":"7209acc8-13a1-45eb-8d7b-178a786a469d","meta":{"profile":["http://hl7.org/fhir/us/qicore/StructureDefinition/qicore-encounter"]},"status":"finished","class":{"system":"http://terminology.hl7.org/CodeSystem/v3-ActCode","code":"AMB","display":"ambulatory"},"type":[{"coding":[{"system":"http://www.ama-assn.org/go/cpt","code":"99203"}]}],"subject":{"reference":"Patient/8068a81d-feca-4719-aa75-cb45df5428e7"},"period":{"start":"2026-02-01T08:00:00+00:00","end":"2026-02-01T08:15:00+00:00"}},"request":{"method":"PUT","url":"Encounter/7209acc8-13a1-45eb-8d7b-178a786a469d"}},{"fullUrl":"Bundle/135f1a32f4135431232d","resource":{"resourceType":"Bundle","id":"135f1a32f4135431232d","type":"transaction","entry":[{"fullUrl":"https://madie.cms.gov/Patient/8068a81d-feca-4719-aa75-cb45df5428e7","resource":{"resourceType":"Patient","id":"8068a81d-feca-4719-aa75-cb45df5428e7","meta":{"profile":["http://hl7.org/fhir/us/qicore/StructureDefinition/qicore-patient"]},"extension":[{"url":"http://hl7.org/fhir/us/core/StructureDefinition/us-core-race","extension":[{"url":"ombCategory","valueCoding":{"system":"urn:oid:2.16.840.1.113883.6.238","code":"1002-5","display":"American Indian or Alaska Native","userSelected":true}},{"url":"text","valueString":"American Indian or Alaska Native"}]},{"url":"http://hl7.org/fhir/us/core/StructureDefinition/us-core-ethnicity","extension":[{"url":"ombCategory","valueCoding":{"system":"urn:oid:2.16.840.1.113883.6.238","code":"2135-2","display":"Hispanic or Latino","userSelected":true}},{"url":"text","valueString":"Hispanic or Latino"}]}],"identifier":[{"type":{"coding":[{"system":"http://terminology.hl7.org/CodeSystem/v2-0203","code":"MR"}]},"system":"https://bonnie-fhir.healthit.gov","value":"62bc61713e113102f8cedc8b"}],"active":true,"name":[{"family":"DENOMPass","given":["PCaDxBeforeMP"]}],"gender":"male","birthDate":"1952-10-10"},"request":{"method":"PUT","url":"Patient/8068a81d-feca-4719-aa75-cb45df5428e7"}},{"fullUrl":"https://madie.cms.gov/Encounter/7209acc8-13a1-45eb-8d7b-178a786a469d","resource":{"resourceType":"Encounter","id":"7209acc8-13a1-45eb-8d7b-178a786a469d","meta":{"profile":["http://hl7.org/fhir/us/qicore/StructureDefinition/qicore-encounter"]},"status":"finished","class":{"system":"http://terminology.hl7.org/CodeSystem/v3-ActCode","code":"AMB","display":"ambulatory"},"type":[{"coding":[{"system":"http://www.ama-assn.org/go/cpt","code":"99203"}]}],"subject":{"reference":"Patient/8068a81d-feca-4719-aa75-cb45df5428e7"},"period":{"start":"2026-02-01T08:00:00+00:00","end":"2026-02-01T08:15:00+00:00"}},"request":{"method":"PUT","url":"Encounter/7209acc8-13a1-45eb-8d7b-178a786a469d"}},{"fullUrl":"https://madie.cms.gov/Condition/e80f217f-da2f-4bdc-911d-105570e4dd8a","resource":{"resourceType":"Condition","id":"e80f217f-da2f-4bdc-911d-105570e4dd8a","meta":{"profile":["http://hl7.org/fhir/us/qicore/StructureDefinition/qicore-condition-problems-health-concerns"]},"clinicalStatus":{"coding":[{"system":"http://terminology.hl7.org/CodeSystem/condition-clinical","code":"active"}]},"verificationStatus":{"coding":[{"system":"http://terminology.hl7.org/CodeSystem/condition-ver-status","code":"confirmed"}]},"category":[{"coding":[{"system":"http://terminology.hl7.org/CodeSystem/condition-category","code":"problem-list-item","display":"Problem List Item"}]}],"code":{"coding":[{"system":"http://snomed.info/sct","version":"http://snomed.info/sct/731000124108/version/20240401","code":"254900004","display":"Carcinoma of prostate (disorder)"}]},"subject":{"reference":"Patient/8068a81d-feca-4719-aa75-cb45df5428e7"},"onsetPeriod":{"start":"2022-03-15T08:00:00.000+00:00"}},"request":{"method":"PUT","url":"Condition/e80f217f-da2f-4bdc-911d-105570e4dd8a"}},{"fullUrl":"https://madie.cms.gov/MedicationRequest/5db422c3-6061-47d0-9f00-12c657efd399","resource":{"resourceType":"MedicationRequest","id":"5db422c3-6061-47d0-9f00-12c657efd399","meta":{"profile":["http://hl7.org/fhir/us/qicore/StructureDefinition/qicore-medicationrequest"]},"status":"active","intent":"order","medicationCodeableConcept":{"coding":[{"system":"http://www.nlm.nih.gov/research/umls/rxnorm","code":"1115257","display":"1.5 ML leuprolide acetate 30 MG/ML Prefilled Syringe"}]},"subject":{"reference":"Patient/8068a81d-feca-4719-aa75-cb45df5428e7"},"authoredOn":"2026-03-15T08:00:00.000+00:00","requester":{"reference":"http://myGoodHealthcare.com/fhir/Practitioner/8348e6c7-4b4d-4c03-8815-8ca0f03beaa9"},"dosageInstruction":[{"timing":{"repeat":{"boundsPeriod":{"start":"2026-03-15T08:00:00.000+00:00","end":"2026-04-15T08:15:00.000+00:00"}}}}]},"request":{"method":"PUT","url":"MedicationRequest/5db422c3-6061-47d0-9f00-12c657efd399"}},{"fullUrl":"https://madie.cms.gov/ServiceRequest/7fa9a429-6ecc-459b-a79b-cd1f086bad3a","resource":{"resourceType":"ServiceRequest","id":"7fa9a429-6ecc-459b-a79b-cd1f086bad3a","meta":{"profile":["http://hl7.org/fhir/us/qicore/StructureDefinition/qicore-servicerequest"]},"status":"active","intent":"order","code":{"coding":[{"system":"http://snomed.info/sct","code":"456381000124102","display":"Injection of leuprolide acetate for twelve month period (regime/therapy)"}]},"subject":{"reference":"Patient/8068a81d-feca-4719-aa75-cb45df5428e7"},"authoredOn":"2026-03-15T08:00:00.000+00:00"},"request":{"method":"PUT","url":"ServiceRequest/7fa9a429-6ecc-459b-a79b-cd1f086bad3a"}},{"fullUrl":"https://madie.cms.gov/Practitioner/8348e6c7-4b4d-4c03-8815-8ca0f03beaa9","resource":{"resourceType":"Practitioner","id":"8348e6c7-4b4d-4c03-8815-8ca0f03beaa9","meta":{"profile":["http://hl7.org/fhir/us/qicore/StructureDefinition/qicore-practitioner"]},"identifier":[{"use":"temp","system":"urn:oid:2.16.840.1.113883.4.336","value":"Practitioner-23"}],"active":true,"name":[{"family":"Careful","given":["Adam"],"prefix":["Dr"]}],"address":[{"use":"home","line":["534 Erewhon St"],"city":"PleasantVille","state":"UT","postalCode":"84414"}],"qualification":[{"identifier":[{"system":"http://example.org/UniversityIdentifier","value":"12345"}],"code":{"coding":[{"system":"http://terminology.hl7.org/CodeSystem/v2-0360|2.7","code":"BS","display":"Bachelor of Science"}],"text":"Bachelor of Science"},"period":{"start":"1996"},"issuer":{"display":"Example University"}}]},"request":{"method":"PUT","url":"Practitioner/8348e6c7-4b4d-4c03-8815-8ca0f03beaa9"}},{"fullUrl":"https://madie.cms.gov/MeasureReport/ff8fcccc-007e-49e1-b790-3b6352e0999b","resource":{"resourceType":"MeasureReport","id":"ff8fcccc-007e-49e1-b790-3b6352e0999b","meta":{"profile":["http://hl7.org/fhir/us/cqfmeasures/StructureDefinition/test-case-cqfm"]},"contained":[{"resourceType":"Parameters","id":"1408db0c-2f02-46d5-a044-29a08b47da02-parameters","parameter":[{"name":"subject","valueString":"8068a81d-feca-4719-aa75-cb45df5428e7"}]}],"extension":[{"url":"http://hl7.org/fhir/StructureDefinition/cqf-inputParameters","valueReference":{"reference":"#1408db0c-2f02-46d5-a044-29a08b47da02-parameters"}},{"url":"http://hl7.org/fhir/us/cqfmeasures/StructureDefinition/cqfm-testCaseDescription","valueMarkdown":"Dx of Prostate Cancer 3 years before measurement period begins.  OV, ADT and procedure order in MP.  Typical situation.  Passes IPP and Denom as expected."}],"modifierExtension":[{"url":"http://hl7.org/fhir/us/cqfmeasures/StructureDefinition/cqfm-isTestCase","valueBoolean":true}],"status":"complete","type":"individual","measure":"https://madie.cms.gov/Measure/CMS645FHIRBoneDensityProstateCancerAndrogenDeprivationTherapy","period":{"start":"2026-01-01","end":"2026-12-31"},"group":[{"id":"Group_1","population":[{"id":"InitialPopulation_1","code":{"coding":[{"system":"http://terminology.hl7.org/CodeSystem/measure-population","code":"initial-population","display":"Initial Population"}]},"count":1},{"id":"Denominator_1","code":{"coding":[{"system":"http://terminology.hl7.org/CodeSystem/measure-population","code":"denominator","display":"Denominator"}]},"count":1},{"id":"Numerator_1","code":{"coding":[{"system":"http://terminology.hl7.org/CodeSystem/measure-population","code":"numerator","display":"Numerator"}]},"count":0},{"id":"DenominatorException_1","code":{"coding":[{"system":"http://terminology.hl7.org/CodeSystem/measure-population","code":"denominator-exception","display":"Denominator Exception"}]},"count":0}],"measureScore":{"value":1.0}}],"evaluatedResource":[{"reference":"Patient/8068a81d-feca-4719-aa75-cb45df5428e7"},{"reference":"Encounter/7209acc8-13a1-45eb-8d7b-178a786a469d"},{"reference":"Condition/e80f217f-da2f-4bdc-911d-105570e4dd8a"},{"reference":"MedicationRequest/5db422c3-6061-47d0-9f00-12c657efd399"},{"reference":"ServiceRequest/7fa9a429-6ecc-459b-a79b-cd1f086bad3a"},{"reference":"Practitioner/8348e6c7-4b4d-4c03-8815-8ca0f03beaa9"}]},"request":{"method":"PUT","url":"MeasureReport/ff8fcccc-007e-49e1-b790-3b6352e0999b"}}]},"request":{"method":"PUT","url":"Bundle/135f1a32f4135431232d"}},{"fullUrl":"MeasureReport/ff8fcccc-007e-49e1-b790-3b6352e0999b","resource":{"resourceType":"MeasureReport","id":"ff8fcccc-007e-49e1-b790-3b6352e0999b","meta":{"profile":["http://hl7.org/fhir/us/cqfmeasures/StructureDefinition/test-case-cqfm"]},"contained":[{"resourceType":"Parameters","id":"1408db0c-2f02-46d5-a044-29a08b47da02-parameters","parameter":[{"name":"subject","valueString":"8068a81d-feca-4719-aa75-cb45df5428e7"}]}],"extension":[{"url":"http://hl7.org/fhir/StructureDefinition/cqf-inputParameters","valueReference":{"reference":"#1408db0c-2f02-46d5-a044-29a08b47da02-parameters"}},{"url":"http://hl7.org/fhir/us/cqfmeasures/StructureDefinition/cqfm-testCaseDescription","valueMarkdown":"Dx of Prostate Cancer 3 years before measurement period begins.  OV, ADT and procedure order in MP.  Typical situation.  Passes IPP and Denom as expected."}],"modifierExtension":[{"url":"http://hl7.org/fhir/us/cqfmeasures/StructureDefinition/cqfm-isTestCase","valueBoolean":true}],"status":"complete","type":"individual","measure":"https://madie.cms.gov/Measure/CMS645FHIRBoneDensityProstateCancerAndrogenDeprivationTherapy","period":{"start":"2026-01-01","end":"2026-12-31"},"group":[{"id":"Group_1","population":[{"id":"InitialPopulation_1","code":{"coding":[{"system":"http://terminology.hl7.org/CodeSystem/measure-population","code":"initial-population","display":"Initial Population"}]},"count":1},{"id":"Denominator_1","code":{"coding":[{"system":"http://terminology.hl7.org/CodeSystem/measure-population","code":"denominator","display":"Denominator"}]},"count":1},{"id":"Numerator_1","code":{"coding":[{"system":"http://terminology.hl7.org/CodeSystem/measure-population","code":"numerator","display":"Numerator"}]},"count":0},{"id":"DenominatorException_1","code":{"coding":[{"system":"http://terminology.hl7.org/CodeSystem/measure-population","code":"denominator-exception","display":"Denominator Exception"}]},"count":0}],"measureScore":{"value":1.0}}],"evaluatedResource":[{"reference":"Patient/8068a81d-feca-4719-aa75-cb45df5428e7"},{"reference":"Encounter/7209acc8-13a1-45eb-8d7b-178a786a469d"},{"reference":"Condition/e80f217f-da2f-4bdc-911d-105570e4dd8a"},{"reference":"MedicationRequest/5db422c3-6061-47d0-9f00-12c657efd399"},{"reference":"ServiceRequest/7fa9a429-6ecc-459b-a79b-cd1f086bad3a"},{"reference":"Practitioner/8348e6c7-4b4d-4c03-8815-8ca0f03beaa9"}]},"request":{"method":"PUT","url":"MeasureReport/ff8fcccc-007e-49e1-b790-3b6352e0999b"}},{"fullUrl":"Condition/e80f217f-da2f-4bdc-911d-105570e4dd8a","resource":{"resourceType":"Condition","id":"e80f217f-da2f-4bdc-911d-105570e4dd8a","meta":{"profile":["http://hl7.org/fhir/us/qicore/StructureDefinition/qicore-condition-problems-health-concerns"]},"clinicalStatus":{"coding":[{"system":"http://terminology.hl7.org/CodeSystem/condition-clinical","code":"active"}]},"verificationStatus":{"coding":[{"system":"http://terminology.hl7.org/CodeSystem/condition-ver-status","code":"confirmed"}]},"category":[{"coding":[{"system":"http://terminology.hl7.org/CodeSystem/condition-category","code":"problem-list-item","display":"Problem List Item"}]}],"code":{"coding":[{"system":"http://snomed.info/sct","version":"http://snomed.info/sct/731000124108/version/20240401","code":"254900004","display":"Carcinoma of prostate (disorder)"}]},"subject":{"reference":"Patient/8068a81d-feca-4719-aa75-cb45df5428e7"},"onsetPeriod":{"start":"2022-03-15T08:00:00.000+00:00"}},"request":{"method":"PUT","url":"Condition/e80f217f-da2f-4bdc-911d-105570e4dd8a"}}]}