{"resourceType":"Bundle","id":"tests-6aa2d002-1279-4313-85c3-a4a28e17da81-bundle","type":"transaction","entry":[{"fullUrl":"Bundle/62bb3859e8081f5ef5e199f5","resource":{"resourceType":"Bundle","id":"62bb3859e8081f5ef5e199f5","type":"transaction","entry":[{"fullUrl":"https://madie.cms.gov/Patient/6aa2d002-1279-4313-85c3-a4a28e17da81","resource":{"resourceType":"Patient","id":"6aa2d002-1279-4313-85c3-a4a28e17da81","meta":{"profile":["http://hl7.org/fhir/us/qicore/StructureDefinition/qicore-patient"]},"extension":[{"url":"http://hl7.org/fhir/us/core/StructureDefinition/us-core-race","extension":[{"url":"ombCategory","valueCoding":{"system":"urn:oid:2.16.840.1.113883.6.238","code":"1002-5","display":"American Indian or Alaska Native","userSelected":true}},{"url":"text","valueString":"American Indian or Alaska Native"}]},{"url":"http://hl7.org/fhir/us/core/StructureDefinition/us-core-ethnicity","extension":[{"url":"ombCategory","valueCoding":{"system":"urn:oid:2.16.840.1.113883.6.238","code":"2135-2","display":"Hispanic or Latino","userSelected":true}},{"url":"text","valueString":"Hispanic or Latino"}]}],"identifier":[{"type":{"coding":[{"system":"http://terminology.hl7.org/CodeSystem/v2-0203","code":"MR"}]},"system":"https://bonnie-fhir.healthit.gov/","value":"62bb3859e8081f5ef5e199f5"}],"name":[{"family":"IPPFail","given":["ADTWithoutPCa"]}],"gender":"male","birthDate":"1962-07-19"},"request":{"method":"PUT","url":"Patient/6aa2d002-1279-4313-85c3-a4a28e17da81"}},{"fullUrl":"https://madie.cms.gov/Encounter/286c24f0-46b6-49d9-8f61-b43cce0cae9f","resource":{"resourceType":"Encounter","id":"286c24f0-46b6-49d9-8f61-b43cce0cae9f","meta":{"profile":["http://hl7.org/fhir/us/qicore/StructureDefinition/qicore-encounter"]},"status":"finished","class":{"system":"http://terminology.hl7.org/CodeSystem/v3-ActCode","code":"AMB","display":"ambulatory"},"type":[{"coding":[{"system":"http://snomed.info/sct","version":"http://snomed.info/sct/731000124108/version/20240401","code":"185463005","display":"Visit out of hours (procedure)","userSelected":true}]}],"subject":{"reference":"Patient/6aa2d002-1279-4313-85c3-a4a28e17da81"},"period":{"start":"2026-05-03T08:00:00.000+00:00","end":"2026-05-03T08:15:00.000+00:00"}},"request":{"method":"PUT","url":"Encounter/286c24f0-46b6-49d9-8f61-b43cce0cae9f"}},{"fullUrl":"https://madie.cms.gov/MedicationRequest/a8f81bca-197e-4733-b615-8e16aeca2d37","resource":{"resourceType":"MedicationRequest","id":"a8f81bca-197e-4733-b615-8e16aeca2d37","meta":{"profile":["http://hl7.org/fhir/us/qicore/StructureDefinition/qicore-medicationrequest"]},"status":"active","intent":"order","medicationCodeableConcept":{"coding":[{"system":"http://www.nlm.nih.gov/research/umls/rxnorm","version":"2025-01","code":"752886","display":"0.375 ML leuprolide acetate 120 MG/ML Prefilled Syringe","userSelected":true}]},"subject":{"reference":"Patient/6aa2d002-1279-4313-85c3-a4a28e17da81"},"authoredOn":"2025-05-02T08:00:00.000+00:00","requester":{"reference":"http://myGoodHealthcare.com/fhir/Practitioner/646346"},"dosageInstruction":[{"timing":{"repeat":{"boundsPeriod":{"start":"2025-05-03T08:00:00.000+00:00"}}}}]},"request":{"method":"PUT","url":"MedicationRequest/a8f81bca-197e-4733-b615-8e16aeca2d37"}},{"fullUrl":"https://madie.cms.gov/ServiceRequest/bb37d4dd-c405-4f9c-a5a2-3077348cb8ee","resource":{"resourceType":"ServiceRequest","id":"bb37d4dd-c405-4f9c-a5a2-3077348cb8ee","meta":{"profile":["http://hl7.org/fhir/us/qicore/StructureDefinition/qicore-servicerequest"]},"status":"active","intent":"order","code":{"coding":[{"system":"http://snomed.info/sct","code":"456381000124102","display":"Injection of leuprolide acetate for twelve month period (regime/therapy)","userSelected":true}]},"subject":{"reference":"Patient/6aa2d002-1279-4313-85c3-a4a28e17da81"},"authoredOn":"2025-05-03T08:00:00.000+00:00"},"request":{"method":"PUT","url":"ServiceRequest/bb37d4dd-c405-4f9c-a5a2-3077348cb8ee"}},{"fullUrl":"https://madie.cms.gov/MeasureReport/75382917-293b-4d22-82cf-df641ee03723","resource":{"resourceType":"MeasureReport","id":"75382917-293b-4d22-82cf-df641ee03723","meta":{"profile":["http://hl7.org/fhir/us/cqfmeasures/StructureDefinition/test-case-cqfm"]},"contained":[{"resourceType":"Parameters","id":"b2c15201-bac6-4dc6-bd06-316623025564-parameters","parameter":[{"name":"subject","valueString":"6aa2d002-1279-4313-85c3-a4a28e17da81"}]}],"extension":[{"url":"http://hl7.org/fhir/StructureDefinition/cqf-inputParameters","valueReference":{"reference":"#b2c15201-bac6-4dc6-bd06-316623025564-parameters"}},{"url":"http://hl7.org/fhir/us/cqfmeasures/StructureDefinition/cqfm-testCaseDescription","valueMarkdown":"ADT but no PCa diagnosis. Fails IPP. "}],"modifierExtension":[{"url":"http://hl7.org/fhir/us/cqfmeasures/StructureDefinition/cqfm-isTestCase","valueBoolean":true}],"status":"complete","type":"individual","measure":"https://madie.cms.gov/Measure/CMS645FHIRBoneDensityProstateCancerAndrogenDeprivationTherapy","period":{"start":"2026-01-01","end":"2026-12-31"},"group":[{"id":"Group_1","population":[{"id":"InitialPopulation_1","code":{"coding":[{"system":"http://terminology.hl7.org/CodeSystem/measure-population","code":"initial-population","display":"Initial Population"}]},"count":0},{"id":"Denominator_1","code":{"coding":[{"system":"http://terminology.hl7.org/CodeSystem/measure-population","code":"denominator","display":"Denominator"}]},"count":0},{"id":"Numerator_1","code":{"coding":[{"system":"http://terminology.hl7.org/CodeSystem/measure-population","code":"numerator","display":"Numerator"}]},"count":0},{"id":"DenominatorException_1","code":{"coding":[{"system":"http://terminology.hl7.org/CodeSystem/measure-population","code":"denominator-exception","display":"Denominator Exception"}]},"count":0}],"measureScore":{"value":1.0}}],"evaluatedResource":[{"reference":"Patient/6aa2d002-1279-4313-85c3-a4a28e17da81"},{"reference":"Encounter/286c24f0-46b6-49d9-8f61-b43cce0cae9f"},{"reference":"MedicationRequest/a8f81bca-197e-4733-b615-8e16aeca2d37"},{"reference":"ServiceRequest/bb37d4dd-c405-4f9c-a5a2-3077348cb8ee"}]},"request":{"method":"PUT","url":"MeasureReport/75382917-293b-4d22-82cf-df641ee03723"}}]},"request":{"method":"PUT","url":"Bundle/62bb3859e8081f5ef5e199f5"}},{"fullUrl":"MeasureReport/75382917-293b-4d22-82cf-df641ee03723","resource":{"resourceType":"MeasureReport","id":"75382917-293b-4d22-82cf-df641ee03723","meta":{"profile":["http://hl7.org/fhir/us/cqfmeasures/StructureDefinition/test-case-cqfm"]},"contained":[{"resourceType":"Parameters","id":"b2c15201-bac6-4dc6-bd06-316623025564-parameters","parameter":[{"name":"subject","valueString":"6aa2d002-1279-4313-85c3-a4a28e17da81"}]}],"extension":[{"url":"http://hl7.org/fhir/StructureDefinition/cqf-inputParameters","valueReference":{"reference":"#b2c15201-bac6-4dc6-bd06-316623025564-parameters"}},{"url":"http://hl7.org/fhir/us/cqfmeasures/StructureDefinition/cqfm-testCaseDescription","valueMarkdown":"ADT but no PCa diagnosis. Fails IPP. "}],"modifierExtension":[{"url":"http://hl7.org/fhir/us/cqfmeasures/StructureDefinition/cqfm-isTestCase","valueBoolean":true}],"status":"complete","type":"individual","measure":"https://madie.cms.gov/Measure/CMS645FHIRBoneDensityProstateCancerAndrogenDeprivationTherapy","period":{"start":"2026-01-01","end":"2026-12-31"},"group":[{"id":"Group_1","population":[{"id":"InitialPopulation_1","code":{"coding":[{"system":"http://terminology.hl7.org/CodeSystem/measure-population","code":"initial-population","display":"Initial Population"}]},"count":0},{"id":"Denominator_1","code":{"coding":[{"system":"http://terminology.hl7.org/CodeSystem/measure-population","code":"denominator","display":"Denominator"}]},"count":0},{"id":"Numerator_1","code":{"coding":[{"system":"http://terminology.hl7.org/CodeSystem/measure-population","code":"numerator","display":"Numerator"}]},"count":0},{"id":"DenominatorException_1","code":{"coding":[{"system":"http://terminology.hl7.org/CodeSystem/measure-population","code":"denominator-exception","display":"Denominator Exception"}]},"count":0}],"measureScore":{"value":1.0}}],"evaluatedResource":[{"reference":"Patient/6aa2d002-1279-4313-85c3-a4a28e17da81"},{"reference":"Encounter/286c24f0-46b6-49d9-8f61-b43cce0cae9f"},{"reference":"MedicationRequest/a8f81bca-197e-4733-b615-8e16aeca2d37"},{"reference":"ServiceRequest/bb37d4dd-c405-4f9c-a5a2-3077348cb8ee"}]},"request":{"method":"PUT","url":"MeasureReport/75382917-293b-4d22-82cf-df641ee03723"}},{"fullUrl":"Patient/6aa2d002-1279-4313-85c3-a4a28e17da81","resource":{"resourceType":"Patient","id":"6aa2d002-1279-4313-85c3-a4a28e17da81","meta":{"profile":["http://hl7.org/fhir/us/qicore/StructureDefinition/qicore-patient"]},"extension":[{"url":"http://hl7.org/fhir/us/core/StructureDefinition/us-core-race","extension":[{"url":"ombCategory","valueCoding":{"system":"urn:oid:2.16.840.1.113883.6.238","code":"1002-5","display":"American Indian or Alaska Native","userSelected":true}},{"url":"text","valueString":"American Indian or Alaska Native"}]},{"url":"http://hl7.org/fhir/us/core/StructureDefinition/us-core-ethnicity","extension":[{"url":"ombCategory","valueCoding":{"system":"urn:oid:2.16.840.1.113883.6.238","code":"2135-2","display":"Hispanic or Latino","userSelected":true}},{"url":"text","valueString":"Hispanic or Latino"}]}],"identifier":[{"type":{"coding":[{"system":"http://terminology.hl7.org/CodeSystem/v2-0203","code":"MR"}]},"system":"https://bonnie-fhir.healthit.gov/","value":"62bb3859e8081f5ef5e199f5"}],"name":[{"family":"IPPFail","given":["ADTWithoutPCa"]}],"gender":"male","birthDate":"1962-07-19"},"request":{"method":"PUT","url":"Patient/6aa2d002-1279-4313-85c3-a4a28e17da81"}},{"fullUrl":"Encounter/286c24f0-46b6-49d9-8f61-b43cce0cae9f","resource":{"resourceType":"Encounter","id":"286c24f0-46b6-49d9-8f61-b43cce0cae9f","meta":{"profile":["http://hl7.org/fhir/us/qicore/StructureDefinition/qicore-encounter"]},"status":"finished","class":{"system":"http://terminology.hl7.org/CodeSystem/v3-ActCode","code":"AMB","display":"ambulatory"},"type":[{"coding":[{"system":"http://snomed.info/sct","version":"http://snomed.info/sct/731000124108/version/20240401","code":"185463005","display":"Visit out of hours (procedure)","userSelected":true}]}],"subject":{"reference":"Patient/6aa2d002-1279-4313-85c3-a4a28e17da81"},"period":{"start":"2026-05-03T08:00:00.000+00:00","end":"2026-05-03T08:15:00.000+00:00"}},"request":{"method":"PUT","url":"Encounter/286c24f0-46b6-49d9-8f61-b43cce0cae9f"}},{"fullUrl":"ServiceRequest/bb37d4dd-c405-4f9c-a5a2-3077348cb8ee","resource":{"resourceType":"ServiceRequest","id":"bb37d4dd-c405-4f9c-a5a2-3077348cb8ee","meta":{"profile":["http://hl7.org/fhir/us/qicore/StructureDefinition/qicore-servicerequest"]},"status":"active","intent":"order","code":{"coding":[{"system":"http://snomed.info/sct","code":"456381000124102","display":"Injection of leuprolide acetate for twelve month period (regime/therapy)","userSelected":true}]},"subject":{"reference":"Patient/6aa2d002-1279-4313-85c3-a4a28e17da81"},"authoredOn":"2025-05-03T08:00:00.000+00:00"},"request":{"method":"PUT","url":"ServiceRequest/bb37d4dd-c405-4f9c-a5a2-3077348cb8ee"}},{"fullUrl":"MedicationRequest/a8f81bca-197e-4733-b615-8e16aeca2d37","resource":{"resourceType":"MedicationRequest","id":"a8f81bca-197e-4733-b615-8e16aeca2d37","meta":{"profile":["http://hl7.org/fhir/us/qicore/StructureDefinition/qicore-medicationrequest"]},"status":"active","intent":"order","medicationCodeableConcept":{"coding":[{"system":"http://www.nlm.nih.gov/research/umls/rxnorm","version":"2025-01","code":"752886","display":"0.375 ML leuprolide acetate 120 MG/ML Prefilled Syringe","userSelected":true}]},"subject":{"reference":"Patient/6aa2d002-1279-4313-85c3-a4a28e17da81"},"authoredOn":"2025-05-02T08:00:00.000+00:00","requester":{"reference":"http://myGoodHealthcare.com/fhir/Practitioner/646346"},"dosageInstruction":[{"timing":{"repeat":{"boundsPeriod":{"start":"2025-05-03T08:00:00.000+00:00"}}}}]},"request":{"method":"PUT","url":"MedicationRequest/a8f81bca-197e-4733-b615-8e16aeca2d37"}}]}