{"resourceType":"Bundle","id":"tests-449eb3e6-3c46-439c-95cd-125aadd27e82-bundle","type":"transaction","entry":[{"resource":{"resourceType":"ServiceRequest","id":"dc2b96d2-6a18-4e87-bafe-cb10a626de15","meta":{"profile":["http://hl7.org/fhir/us/qicore/StructureDefinition/qicore-servicerequest"]},"status":"active","intent":"order","code":{"coding":[{"system":"http://snomed.info/sct","code":"456381000124102","display":"Injection of leuprolide acetate for twelve month period (regime/therapy)","userSelected":true}]},"subject":{"reference":"Patient/449eb3e6-3c46-439c-95cd-125aadd27e82"},"authoredOn":"2026-08-31T08:00:00.000+00:00"},"request":{"method":"PUT","url":"ServiceRequest/dc2b96d2-6a18-4e87-bafe-cb10a626de15"}},{"resource":{"resourceType":"Encounter","id":"c0b7ba02-5510-4112-abed-d47621031f24","meta":{"profile":["http://hl7.org/fhir/us/qicore/StructureDefinition/qicore-encounter"]},"status":"finished","class":{"system":"http://terminology.hl7.org/CodeSystem/v3-ActCode","code":"AMB","display":"ambulatory"},"type":[{"coding":[{"system":"http://snomed.info/sct","version":"2021-09","code":"185463005","display":"Visit out of hours (procedure)","userSelected":true}]}],"subject":{"reference":"Patient/449eb3e6-3c46-439c-95cd-125aadd27e82"},"period":{"start":"2026-08-04T08:00:00.000+00:00","end":"2026-08-04T08:15:00.000+00:00"}},"request":{"method":"PUT","url":"Encounter/c0b7ba02-5510-4112-abed-d47621031f24"}},{"resource":{"resourceType":"Observation","id":"cba077c9-35de-4942-90d5-a06d5f2b86e2","meta":{"profile":["http://hl7.org/fhir/us/qicore/StructureDefinition/qicore-observation-lab"]},"status":"final","category":[{"coding":[{"system":"http://terminology.hl7.org/CodeSystem/observation-category","code":"imaging","display":"Imaging"}]}],"code":{"coding":[{"system":"http://loinc.org","version":"2.69","code":"38265-5","display":"DXA Radius and Ulna [T-score] Bone density","userSelected":true}]},"subject":{"reference":"Patient/449eb3e6-3c46-439c-95cd-125aadd27e82"},"effectivePeriod":{"start":"2025-09-01T10:00:00.000+00:00","end":"2025-09-01T11:00:00.000+00:00"}},"request":{"method":"PUT","url":"Observation/cba077c9-35de-4942-90d5-a06d5f2b86e2"}},{"resource":{"resourceType":"Bundle","id":"60abda28bf0a01003e3f76bd","type":"transaction","entry":[{"fullUrl":"https://madie.cms.gov/Patient/449eb3e6-3c46-439c-95cd-125aadd27e82","resource":{"resourceType":"Patient","id":"449eb3e6-3c46-439c-95cd-125aadd27e82","meta":{"profile":["http://hl7.org/fhir/us/qicore/StructureDefinition/qicore-patient"]},"extension":[{"url":"http://hl7.org/fhir/us/core/StructureDefinition/us-core-race","extension":[{"url":"ombCategory","valueCoding":{"system":"urn:oid:2.16.840.1.113883.6.238","code":"2054-5","display":"Black or African American","userSelected":true}},{"url":"text","valueString":"Black or African American"}]},{"url":"http://hl7.org/fhir/us/core/StructureDefinition/us-core-ethnicity","extension":[{"url":"ombCategory","valueCoding":{"system":"urn:oid:2.16.840.1.113883.6.238","code":"2186-5","display":"Not Hispanic or Latino","userSelected":true}},{"url":"text","valueString":"Not Hispanic or Latino"}]}],"identifier":[{"type":{"coding":[{"system":"http://terminology.hl7.org/CodeSystem/v2-0203","code":"MR"}]},"system":"https://bonnie-fhir.healthit.gov/","value":"60abda28bf0a01003e3f76bd"}],"name":[{"family":"NUMERPass","given":["DEXA1YearBeforeADT"]}],"gender":"male","birthDate":"1930-06-15"},"request":{"method":"PUT","url":"Patient/449eb3e6-3c46-439c-95cd-125aadd27e82"}},{"fullUrl":"https://madie.cms.gov/Encounter/c0b7ba02-5510-4112-abed-d47621031f24","resource":{"resourceType":"Encounter","id":"c0b7ba02-5510-4112-abed-d47621031f24","meta":{"profile":["http://hl7.org/fhir/us/qicore/StructureDefinition/qicore-encounter"]},"status":"finished","class":{"system":"http://terminology.hl7.org/CodeSystem/v3-ActCode","code":"AMB","display":"ambulatory"},"type":[{"coding":[{"system":"http://snomed.info/sct","version":"2021-09","code":"185463005","display":"Visit out of hours (procedure)","userSelected":true}]}],"subject":{"reference":"Patient/449eb3e6-3c46-439c-95cd-125aadd27e82"},"period":{"start":"2026-08-04T08:00:00.000+00:00","end":"2026-08-04T08:15:00.000+00:00"}},"request":{"method":"PUT","url":"Encounter/c0b7ba02-5510-4112-abed-d47621031f24"}},{"fullUrl":"https://madie.cms.gov/Condition/39d596b1-1176-4f10-89db-3e3d373789a1","resource":{"resourceType":"Condition","id":"39d596b1-1176-4f10-89db-3e3d373789a1","meta":{"profile":["http://hl7.org/fhir/us/qicore/StructureDefinition/qicore-condition-problems-health-concerns"]},"clinicalStatus":{"coding":[{"system":"http://terminology.hl7.org/CodeSystem/condition-clinical","code":"active","display":"Active","userSelected":true}]},"verificationStatus":{"coding":[{"system":"http://terminology.hl7.org/CodeSystem/condition-ver-status","code":"confirmed"}]},"category":[{"coding":[{"system":"http://terminology.hl7.org/CodeSystem/condition-category","code":"problem-list-item","display":"Problem List Item"}]}],"code":{"coding":[{"system":"http://snomed.info/sct","version":"2021-09","code":"254900004","display":"Carcinoma of prostate (disorder)","userSelected":true}]},"subject":{"reference":"Patient/449eb3e6-3c46-439c-95cd-125aadd27e82"},"onsetPeriod":{"start":"2026-08-04T08:00:00.000+00:00"}},"request":{"method":"PUT","url":"Condition/39d596b1-1176-4f10-89db-3e3d373789a1"}},{"fullUrl":"https://madie.cms.gov/Observation/cba077c9-35de-4942-90d5-a06d5f2b86e2","resource":{"resourceType":"Observation","id":"cba077c9-35de-4942-90d5-a06d5f2b86e2","meta":{"profile":["http://hl7.org/fhir/us/qicore/StructureDefinition/qicore-observation-lab"]},"status":"final","category":[{"coding":[{"system":"http://terminology.hl7.org/CodeSystem/observation-category","code":"imaging","display":"Imaging"}]}],"code":{"coding":[{"system":"http://loinc.org","version":"2.69","code":"38265-5","display":"DXA Radius and Ulna [T-score] Bone density","userSelected":true}]},"subject":{"reference":"Patient/449eb3e6-3c46-439c-95cd-125aadd27e82"},"effectivePeriod":{"start":"2025-09-01T10:00:00.000+00:00","end":"2025-09-01T11:00:00.000+00:00"}},"request":{"method":"PUT","url":"Observation/cba077c9-35de-4942-90d5-a06d5f2b86e2"}},{"fullUrl":"https://madie.cms.gov/Practitioner/2253ccea-9b21-47a1-ad75-31c8957d0489","resource":{"resourceType":"Practitioner","id":"2253ccea-9b21-47a1-ad75-31c8957d0489","meta":{"profile":["http://hl7.org/fhir/us/qicore/StructureDefinition/qicore-practitioner"]},"identifier":[{"use":"temp","system":"urn:oid:2.16.840.1.113883.4.336","value":"Practitioner-23"}],"active":true,"name":[{"family":"Careful","given":["Adam"],"prefix":["Dr"]}],"address":[{"use":"home","line":["534 Erewhon St"],"city":"PleasantVille","state":"UT","postalCode":"84414"}],"qualification":[{"identifier":[{"system":"http://example.org/UniversityIdentifier","value":"12345"}],"code":{"coding":[{"system":"http://terminology.hl7.org/CodeSystem/v2-0360|2.7","code":"BS","display":"Bachelor of Science"}],"text":"Bachelor of Science"},"period":{"start":"1996"},"issuer":{"display":"Example University"}}]},"request":{"method":"PUT","url":"Practitioner/2253ccea-9b21-47a1-ad75-31c8957d0489"}},{"fullUrl":"https://madie.cms.gov/MedicationRequest/6a961089-62d0-4d93-81f4-6f0ac9584163","resource":{"resourceType":"MedicationRequest","id":"6a961089-62d0-4d93-81f4-6f0ac9584163","meta":{"profile":["http://hl7.org/fhir/us/qicore/StructureDefinition/qicore-medicationrequest"]},"status":"active","intent":"order","medicationCodeableConcept":{"coding":[{"system":"http://www.nlm.nih.gov/research/umls/rxnorm","code":"1115257","display":"1.5 ML leuprolide acetate 30 MG/ML Prefilled Syringe","userSelected":true}]},"subject":{"reference":"Patient/449eb3e6-3c46-439c-95cd-125aadd27e82"},"authoredOn":"2026-08-28T08:00:00.000+00:00","requester":{"reference":"http://myGoodHealthcare.com/fhir/Practitioner/2253ccea-9b21-47a1-ad75-31c8957d0489"},"dosageInstruction":[{"timing":{"repeat":{"boundsPeriod":{"start":"2026-08-31T08:00:00.000+00:00"}}}}]},"request":{"method":"PUT","url":"MedicationRequest/6a961089-62d0-4d93-81f4-6f0ac9584163"}},{"fullUrl":"https://madie.cms.gov/ServiceRequest/dc2b96d2-6a18-4e87-bafe-cb10a626de15","resource":{"resourceType":"ServiceRequest","id":"dc2b96d2-6a18-4e87-bafe-cb10a626de15","meta":{"profile":["http://hl7.org/fhir/us/qicore/StructureDefinition/qicore-servicerequest"]},"status":"active","intent":"order","code":{"coding":[{"system":"http://snomed.info/sct","code":"456381000124102","display":"Injection of leuprolide acetate for twelve month period (regime/therapy)","userSelected":true}]},"subject":{"reference":"Patient/449eb3e6-3c46-439c-95cd-125aadd27e82"},"authoredOn":"2026-08-31T08:00:00.000+00:00"},"request":{"method":"PUT","url":"ServiceRequest/dc2b96d2-6a18-4e87-bafe-cb10a626de15"}},{"fullUrl":"https://madie.cms.gov/MeasureReport/052eea3b-96bb-4466-8fcc-c9b937c75a30","resource":{"resourceType":"MeasureReport","id":"052eea3b-96bb-4466-8fcc-c9b937c75a30","meta":{"profile":["http://hl7.org/fhir/us/cqfmeasures/StructureDefinition/test-case-cqfm"]},"contained":[{"resourceType":"Parameters","id":"07f5ea48-c3be-439c-ab7f-1d6c45eff894-parameters","parameter":[{"name":"subject","valueString":"449eb3e6-3c46-439c-95cd-125aadd27e82"}]}],"extension":[{"url":"http://hl7.org/fhir/StructureDefinition/cqf-inputParameters","valueReference":{"reference":"#07f5ea48-c3be-439c-ab7f-1d6c45eff894-parameters"}},{"url":"http://hl7.org/fhir/us/cqfmeasures/StructureDefinition/cqfm-testCaseDescription","valueMarkdown":"Dx of Prostate Cancer with qualifying encounter(s) in MP.  DEXA 1 year prior to Prostate cancer diagnosis and ADT.  Passes NUMER criteria"}],"modifierExtension":[{"url":"http://hl7.org/fhir/us/cqfmeasures/StructureDefinition/cqfm-isTestCase","valueBoolean":true}],"status":"complete","type":"individual","measure":"https://madie.cms.gov/Measure/CMS645FHIRBoneDensityProstateCancerAndrogenDeprivationTherapy","period":{"start":"2026-01-01","end":"2026-12-31"},"group":[{"id":"Group_1","population":[{"id":"InitialPopulation_1","code":{"coding":[{"system":"http://terminology.hl7.org/CodeSystem/measure-population","code":"initial-population","display":"Initial Population"}]},"count":1},{"id":"Denominator_1","code":{"coding":[{"system":"http://terminology.hl7.org/CodeSystem/measure-population","code":"denominator","display":"Denominator"}]},"count":1},{"id":"Numerator_1","code":{"coding":[{"system":"http://terminology.hl7.org/CodeSystem/measure-population","code":"numerator","display":"Numerator"}]},"count":1},{"id":"DenominatorException_1","code":{"coding":[{"system":"http://terminology.hl7.org/CodeSystem/measure-population","code":"denominator-exception","display":"Denominator Exception"}]},"count":0}],"measureScore":{"value":1.0}}],"evaluatedResource":[{"reference":"Patient/449eb3e6-3c46-439c-95cd-125aadd27e82"},{"reference":"Encounter/c0b7ba02-5510-4112-abed-d47621031f24"},{"reference":"Condition/39d596b1-1176-4f10-89db-3e3d373789a1"},{"reference":"Observation/cba077c9-35de-4942-90d5-a06d5f2b86e2"},{"reference":"Practitioner/2253ccea-9b21-47a1-ad75-31c8957d0489"},{"reference":"MedicationRequest/6a961089-62d0-4d93-81f4-6f0ac9584163"},{"reference":"ServiceRequest/dc2b96d2-6a18-4e87-bafe-cb10a626de15"}]},"request":{"method":"PUT","url":"MeasureReport/052eea3b-96bb-4466-8fcc-c9b937c75a30"}}]},"request":{"method":"PUT","url":"Bundle/60abda28bf0a01003e3f76bd"}},{"resource":{"resourceType":"Patient","id":"449eb3e6-3c46-439c-95cd-125aadd27e82","meta":{"profile":["http://hl7.org/fhir/us/qicore/StructureDefinition/qicore-patient"]},"extension":[{"url":"http://hl7.org/fhir/us/core/StructureDefinition/us-core-race","extension":[{"url":"ombCategory","valueCoding":{"system":"urn:oid:2.16.840.1.113883.6.238","code":"2054-5","display":"Black or African American","userSelected":true}},{"url":"text","valueString":"Black or African American"}]},{"url":"http://hl7.org/fhir/us/core/StructureDefinition/us-core-ethnicity","extension":[{"url":"ombCategory","valueCoding":{"system":"urn:oid:2.16.840.1.113883.6.238","code":"2186-5","display":"Not Hispanic or Latino","userSelected":true}},{"url":"text","valueString":"Not Hispanic or Latino"}]}],"identifier":[{"type":{"coding":[{"system":"http://terminology.hl7.org/CodeSystem/v2-0203","code":"MR"}]},"system":"https://bonnie-fhir.healthit.gov/","value":"60abda28bf0a01003e3f76bd"}],"name":[{"family":"NUMERPass","given":["DEXA1YearBeforeADT"]}],"gender":"male","birthDate":"1930-06-15"},"request":{"method":"PUT","url":"Patient/449eb3e6-3c46-439c-95cd-125aadd27e82"}},{"resource":{"resourceType":"Condition","id":"39d596b1-1176-4f10-89db-3e3d373789a1","meta":{"profile":["http://hl7.org/fhir/us/qicore/StructureDefinition/qicore-condition-problems-health-concerns"]},"clinicalStatus":{"coding":[{"system":"http://terminology.hl7.org/CodeSystem/condition-clinical","code":"active","display":"Active","userSelected":true}]},"verificationStatus":{"coding":[{"system":"http://terminology.hl7.org/CodeSystem/condition-ver-status","code":"confirmed"}]},"category":[{"coding":[{"system":"http://terminology.hl7.org/CodeSystem/condition-category","code":"problem-list-item","display":"Problem List Item"}]}],"code":{"coding":[{"system":"http://snomed.info/sct","version":"2021-09","code":"254900004","display":"Carcinoma of prostate (disorder)","userSelected":true}]},"subject":{"reference":"Patient/449eb3e6-3c46-439c-95cd-125aadd27e82"},"onsetPeriod":{"start":"2026-08-04T08:00:00.000+00:00"}},"request":{"method":"PUT","url":"Condition/39d596b1-1176-4f10-89db-3e3d373789a1"}},{"resource":{"resourceType":"MeasureReport","id":"052eea3b-96bb-4466-8fcc-c9b937c75a30","meta":{"profile":["http://hl7.org/fhir/us/cqfmeasures/StructureDefinition/test-case-cqfm"]},"contained":[{"resourceType":"Parameters","id":"07f5ea48-c3be-439c-ab7f-1d6c45eff894-parameters","parameter":[{"name":"subject","valueString":"449eb3e6-3c46-439c-95cd-125aadd27e82"}]}],"extension":[{"url":"http://hl7.org/fhir/StructureDefinition/cqf-inputParameters","valueReference":{"reference":"#07f5ea48-c3be-439c-ab7f-1d6c45eff894-parameters"}},{"url":"http://hl7.org/fhir/us/cqfmeasures/StructureDefinition/cqfm-testCaseDescription","valueMarkdown":"Dx of Prostate Cancer with qualifying encounter(s) in MP.  DEXA 1 year prior to Prostate cancer diagnosis and ADT.  Passes NUMER criteria"}],"modifierExtension":[{"url":"http://hl7.org/fhir/us/cqfmeasures/StructureDefinition/cqfm-isTestCase","valueBoolean":true}],"status":"complete","type":"individual","measure":"https://madie.cms.gov/Measure/CMS645FHIRBoneDensityProstateCancerAndrogenDeprivationTherapy","period":{"start":"2026-01-01","end":"2026-12-31"},"group":[{"id":"Group_1","population":[{"id":"InitialPopulation_1","code":{"coding":[{"system":"http://terminology.hl7.org/CodeSystem/measure-population","code":"initial-population","display":"Initial Population"}]},"count":1},{"id":"Denominator_1","code":{"coding":[{"system":"http://terminology.hl7.org/CodeSystem/measure-population","code":"denominator","display":"Denominator"}]},"count":1},{"id":"Numerator_1","code":{"coding":[{"system":"http://terminology.hl7.org/CodeSystem/measure-population","code":"numerator","display":"Numerator"}]},"count":1},{"id":"DenominatorException_1","code":{"coding":[{"system":"http://terminology.hl7.org/CodeSystem/measure-population","code":"denominator-exception","display":"Denominator Exception"}]},"count":0}],"measureScore":{"value":1.0}}],"evaluatedResource":[{"reference":"Patient/449eb3e6-3c46-439c-95cd-125aadd27e82"},{"reference":"Encounter/c0b7ba02-5510-4112-abed-d47621031f24"},{"reference":"Condition/39d596b1-1176-4f10-89db-3e3d373789a1"},{"reference":"Observation/cba077c9-35de-4942-90d5-a06d5f2b86e2"},{"reference":"Practitioner/2253ccea-9b21-47a1-ad75-31c8957d0489"},{"reference":"MedicationRequest/6a961089-62d0-4d93-81f4-6f0ac9584163"},{"reference":"ServiceRequest/dc2b96d2-6a18-4e87-bafe-cb10a626de15"}]},"request":{"method":"PUT","url":"MeasureReport/052eea3b-96bb-4466-8fcc-c9b937c75a30"}},{"resource":{"resourceType":"Practitioner","id":"2253ccea-9b21-47a1-ad75-31c8957d0489","meta":{"profile":["http://hl7.org/fhir/us/qicore/StructureDefinition/qicore-practitioner"]},"identifier":[{"use":"temp","system":"urn:oid:2.16.840.1.113883.4.336","value":"Practitioner-23"}],"active":true,"name":[{"family":"Careful","given":["Adam"],"prefix":["Dr"]}],"address":[{"use":"home","line":["534 Erewhon St"],"city":"PleasantVille","state":"UT","postalCode":"84414"}],"qualification":[{"identifier":[{"system":"http://example.org/UniversityIdentifier","value":"12345"}],"code":{"coding":[{"system":"http://terminology.hl7.org/CodeSystem/v2-0360|2.7","code":"BS","display":"Bachelor of Science"}],"text":"Bachelor of Science"},"period":{"start":"1996"},"issuer":{"display":"Example University"}}]},"request":{"method":"PUT","url":"Practitioner/2253ccea-9b21-47a1-ad75-31c8957d0489"}},{"resource":{"resourceType":"MedicationRequest","id":"6a961089-62d0-4d93-81f4-6f0ac9584163","meta":{"profile":["http://hl7.org/fhir/us/qicore/StructureDefinition/qicore-medicationrequest"]},"status":"active","intent":"order","medicationCodeableConcept":{"coding":[{"system":"http://www.nlm.nih.gov/research/umls/rxnorm","code":"1115257","display":"1.5 ML leuprolide acetate 30 MG/ML Prefilled Syringe","userSelected":true}]},"subject":{"reference":"Patient/449eb3e6-3c46-439c-95cd-125aadd27e82"},"authoredOn":"2026-08-28T08:00:00.000+00:00","requester":{"reference":"http://myGoodHealthcare.com/fhir/Practitioner/2253ccea-9b21-47a1-ad75-31c8957d0489"},"dosageInstruction":[{"timing":{"repeat":{"boundsPeriod":{"start":"2026-08-31T08:00:00.000+00:00"}}}}]},"request":{"method":"PUT","url":"MedicationRequest/6a961089-62d0-4d93-81f4-6f0ac9584163"}}]}