{"resourceType":"Bundle","id":"tests-b2fd08f5-6a75-4221-8b2d-eb28f45ed981-bundle","type":"transaction","entry":[{"resource":{"resourceType":"Observation","id":"4aa21cbc-62d2-4f18-85c7-898d4503ab97","meta":{"profile":["http://hl7.org/fhir/us/qicore/StructureDefinition/qicore-observation-lab"]},"status":"final","category":[{"coding":[{"system":"http://terminology.hl7.org/CodeSystem/observation-category","code":"imaging","display":"Imaging"}]}],"code":{"coding":[{"system":"http://loinc.org","version":"2.76","code":"38265-5","display":"DXA Radius and Ulna [T-score] Bone density"}]},"subject":{"reference":"Patient/b2fd08f5-6a75-4221-8b2d-eb28f45ed981"},"effectivePeriod":{"start":"2026-12-31T10:00:00.000+00:00"}},"request":{"method":"PUT","url":"Observation/4aa21cbc-62d2-4f18-85c7-898d4503ab97"}},{"resource":{"resourceType":"MeasureReport","id":"014a453d-a8a0-411e-86ba-f318a9f0a508","meta":{"profile":["http://hl7.org/fhir/us/cqfmeasures/StructureDefinition/test-case-cqfm"]},"contained":[{"resourceType":"Parameters","id":"3d0a10d9-0936-4234-a63b-744fc2543bc8-parameters","parameter":[{"name":"subject","valueString":"b2fd08f5-6a75-4221-8b2d-eb28f45ed981"}]}],"extension":[{"url":"http://hl7.org/fhir/StructureDefinition/cqf-inputParameters","valueReference":{"reference":"#3d0a10d9-0936-4234-a63b-744fc2543bc8-parameters"}},{"url":"http://hl7.org/fhir/us/cqfmeasures/StructureDefinition/cqfm-testCaseDescription","valueMarkdown":"Encounter Office Visit in MP.  Dx Prostate Cancer in MP. ADT on 9/30 and DEXA done on 12/31 of MP to test timing.  Fails NUMER Criteria "}],"modifierExtension":[{"url":"http://hl7.org/fhir/us/cqfmeasures/StructureDefinition/cqfm-isTestCase","valueBoolean":true}],"status":"complete","type":"individual","measure":"https://madie.cms.gov/Measure/CMS645FHIRBoneDensityProstateCancerAndrogenDeprivationTherapy","period":{"start":"2026-01-01","end":"2026-12-31"},"group":[{"id":"Group_1","population":[{"id":"InitialPopulation_1","code":{"coding":[{"system":"http://terminology.hl7.org/CodeSystem/measure-population","code":"initial-population","display":"Initial Population"}]},"count":1},{"id":"Denominator_1","code":{"coding":[{"system":"http://terminology.hl7.org/CodeSystem/measure-population","code":"denominator","display":"Denominator"}]},"count":1},{"id":"Numerator_1","code":{"coding":[{"system":"http://terminology.hl7.org/CodeSystem/measure-population","code":"numerator","display":"Numerator"}]},"count":0},{"id":"DenominatorException_1","code":{"coding":[{"system":"http://terminology.hl7.org/CodeSystem/measure-population","code":"denominator-exception","display":"Denominator Exception"}]},"count":0}],"measureScore":{"value":1.0}}],"evaluatedResource":[{"reference":"Patient/b2fd08f5-6a75-4221-8b2d-eb28f45ed981"},{"reference":"Encounter/025a918f-c16a-40ba-86c0-db51e03736e6"},{"reference":"Condition/02b5f662-9c0d-44ba-a6dd-51adc36408c0"},{"reference":"Observation/4aa21cbc-62d2-4f18-85c7-898d4503ab97"},{"reference":"Practitioner/15492ef6-eaa6-4446-a599-db98217ffc31"},{"reference":"MedicationRequest/b757c9c9-0029-4a40-8b91-f3afcd28f4a0"},{"reference":"ServiceRequest/219f06bd-d383-428d-9d99-e5ed3abc6b0e"}]},"request":{"method":"PUT","url":"MeasureReport/014a453d-a8a0-411e-86ba-f318a9f0a508"}},{"resource":{"resourceType":"Condition","id":"02b5f662-9c0d-44ba-a6dd-51adc36408c0","meta":{"profile":["http://hl7.org/fhir/us/qicore/StructureDefinition/qicore-condition-problems-health-concerns"]},"clinicalStatus":{"coding":[{"system":"http://terminology.hl7.org/CodeSystem/condition-clinical","code":"active","display":"Active","userSelected":true}]},"verificationStatus":{"coding":[{"system":"http://terminology.hl7.org/CodeSystem/condition-ver-status","code":"confirmed"}]},"category":[{"coding":[{"system":"http://terminology.hl7.org/CodeSystem/condition-category","code":"problem-list-item","display":"Problem List Item"}]}],"code":{"coding":[{"system":"http://snomed.info/sct","version":"http://snomed.info/sct/731000124108/version/20240301","code":"254900004","display":"Carcinoma of prostate (disorder)"}]},"subject":{"reference":"Patient/b2fd08f5-6a75-4221-8b2d-eb28f45ed981"},"onsetPeriod":{"start":"2026-09-01T08:00:00.000+00:00"}},"request":{"method":"PUT","url":"Condition/02b5f662-9c0d-44ba-a6dd-51adc36408c0"}},{"resource":{"resourceType":"Patient","id":"b2fd08f5-6a75-4221-8b2d-eb28f45ed981","meta":{"profile":["http://hl7.org/fhir/us/qicore/StructureDefinition/qicore-patient"]},"extension":[{"url":"http://hl7.org/fhir/us/core/StructureDefinition/us-core-race","extension":[{"url":"ombCategory","valueCoding":{"system":"urn:oid:2.16.840.1.113883.6.238","code":"2054-5","display":"Black or African American"}},{"url":"text","valueString":"Black or African American"}]},{"url":"http://hl7.org/fhir/us/core/StructureDefinition/us-core-ethnicity","extension":[{"url":"ombCategory","valueCoding":{"system":"urn:oid:2.16.840.1.113883.6.238","code":"2186-5","display":"Not Hispanic or Latino"}},{"url":"text","valueString":"Not Hispanic or Latino"}]}],"identifier":[{"type":{"coding":[{"system":"http://terminology.hl7.org/CodeSystem/v2-0203","code":"MR"}]},"system":"https://bonnie-fhir.healthit.gov/","value":"463131313187656"}],"name":[{"family":"NUMERPass","given":["ADT9MonthsAfterStartofMPEdge"]}],"gender":"male","birthDate":"1930-06-15"},"request":{"method":"PUT","url":"Patient/b2fd08f5-6a75-4221-8b2d-eb28f45ed981"}},{"resource":{"resourceType":"MedicationRequest","id":"b757c9c9-0029-4a40-8b91-f3afcd28f4a0","meta":{"profile":["http://hl7.org/fhir/us/qicore/StructureDefinition/qicore-medicationrequest"]},"status":"active","intent":"order","medicationCodeableConcept":{"coding":[{"system":"http://www.nlm.nih.gov/research/umls/rxnorm","version":"04012024","code":"1115257","display":"1.5 ML leuprolide acetate 30 MG/ML Prefilled Syringe"}]},"subject":{"reference":"Patient/b2fd08f5-6a75-4221-8b2d-eb28f45ed981"},"authoredOn":"2026-09-29T08:00:00.000+00:00","requester":{"reference":"http://myGoodHealthcare.com/fhir/Practitioner/15492ef6-eaa6-4446-a599-db98217ffc31"},"dosageInstruction":[{"timing":{"repeat":{"boundsPeriod":{"start":"2026-09-30T08:00:00.000+00:00"}}}}]},"request":{"method":"PUT","url":"MedicationRequest/b757c9c9-0029-4a40-8b91-f3afcd28f4a0"}},{"resource":{"resourceType":"Practitioner","id":"15492ef6-eaa6-4446-a599-db98217ffc31","meta":{"profile":["http://hl7.org/fhir/us/qicore/StructureDefinition/qicore-practitioner"]},"identifier":[{"use":"temp","system":"urn:oid:2.16.840.1.113883.4.336","value":"Practitioner-23"}],"active":true,"name":[{"family":"Careful","given":["Adam"],"prefix":["Dr"]}],"address":[{"use":"home","line":["534 Erewhon St"],"city":"PleasantVille","state":"UT","postalCode":"84414"}],"qualification":[{"identifier":[{"system":"http://example.org/UniversityIdentifier","value":"12345"}],"code":{"coding":[{"system":"http://terminology.hl7.org/CodeSystem/v2-0360|2.7","code":"BS","display":"Bachelor of Science"}],"text":"Bachelor of Science"},"period":{"start":"1996"},"issuer":{"display":"Example University"}}]},"request":{"method":"PUT","url":"Practitioner/15492ef6-eaa6-4446-a599-db98217ffc31"}},{"resource":{"resourceType":"Bundle","id":"60abda28bf0a01003e3f76bd","type":"transaction","entry":[{"fullUrl":"https://madie.cms.gov/Patient/b2fd08f5-6a75-4221-8b2d-eb28f45ed981","resource":{"resourceType":"Patient","id":"b2fd08f5-6a75-4221-8b2d-eb28f45ed981","meta":{"profile":["http://hl7.org/fhir/us/qicore/StructureDefinition/qicore-patient"]},"extension":[{"url":"http://hl7.org/fhir/us/core/StructureDefinition/us-core-race","extension":[{"url":"ombCategory","valueCoding":{"system":"urn:oid:2.16.840.1.113883.6.238","code":"2054-5","display":"Black or African American"}},{"url":"text","valueString":"Black or African American"}]},{"url":"http://hl7.org/fhir/us/core/StructureDefinition/us-core-ethnicity","extension":[{"url":"ombCategory","valueCoding":{"system":"urn:oid:2.16.840.1.113883.6.238","code":"2186-5","display":"Not Hispanic or Latino"}},{"url":"text","valueString":"Not Hispanic or Latino"}]}],"identifier":[{"type":{"coding":[{"system":"http://terminology.hl7.org/CodeSystem/v2-0203","code":"MR"}]},"system":"https://bonnie-fhir.healthit.gov/","value":"463131313187656"}],"name":[{"family":"NUMERPass","given":["ADT9MonthsAfterStartofMPEdge"]}],"gender":"male","birthDate":"1930-06-15"},"request":{"method":"PUT","url":"Patient/b2fd08f5-6a75-4221-8b2d-eb28f45ed981"}},{"fullUrl":"https://madie.cms.gov/Encounter/025a918f-c16a-40ba-86c0-db51e03736e6","resource":{"resourceType":"Encounter","id":"025a918f-c16a-40ba-86c0-db51e03736e6","meta":{"profile":["http://hl7.org/fhir/us/qicore/StructureDefinition/qicore-encounter"]},"status":"finished","class":{"system":"http://terminology.hl7.org/CodeSystem/v3-ActCode","code":"AMB","display":"ambulatory"},"type":[{"coding":[{"system":"http://snomed.info/sct","version":"http://snomed.info/sct/731000124108/version/20240301","code":"185463005","display":"Visit out of hours (procedure)"}]}],"subject":{"reference":"Patient/b2fd08f5-6a75-4221-8b2d-eb28f45ed981"},"period":{"start":"2026-09-01T08:00:00.000+00:00","end":"2026-09-01T08:15:00.000+00:00"}},"request":{"method":"PUT","url":"Encounter/025a918f-c16a-40ba-86c0-db51e03736e6"}},{"fullUrl":"https://madie.cms.gov/Condition/02b5f662-9c0d-44ba-a6dd-51adc36408c0","resource":{"resourceType":"Condition","id":"02b5f662-9c0d-44ba-a6dd-51adc36408c0","meta":{"profile":["http://hl7.org/fhir/us/qicore/StructureDefinition/qicore-condition-problems-health-concerns"]},"clinicalStatus":{"coding":[{"system":"http://terminology.hl7.org/CodeSystem/condition-clinical","code":"active","display":"Active","userSelected":true}]},"verificationStatus":{"coding":[{"system":"http://terminology.hl7.org/CodeSystem/condition-ver-status","code":"confirmed"}]},"category":[{"coding":[{"system":"http://terminology.hl7.org/CodeSystem/condition-category","code":"problem-list-item","display":"Problem List Item"}]}],"code":{"coding":[{"system":"http://snomed.info/sct","version":"http://snomed.info/sct/731000124108/version/20240301","code":"254900004","display":"Carcinoma of prostate (disorder)"}]},"subject":{"reference":"Patient/b2fd08f5-6a75-4221-8b2d-eb28f45ed981"},"onsetPeriod":{"start":"2026-09-01T08:00:00.000+00:00"}},"request":{"method":"PUT","url":"Condition/02b5f662-9c0d-44ba-a6dd-51adc36408c0"}},{"fullUrl":"https://madie.cms.gov/Observation/4aa21cbc-62d2-4f18-85c7-898d4503ab97","resource":{"resourceType":"Observation","id":"4aa21cbc-62d2-4f18-85c7-898d4503ab97","meta":{"profile":["http://hl7.org/fhir/us/qicore/StructureDefinition/qicore-observation-lab"]},"status":"final","category":[{"coding":[{"system":"http://terminology.hl7.org/CodeSystem/observation-category","code":"imaging","display":"Imaging"}]}],"code":{"coding":[{"system":"http://loinc.org","version":"2.76","code":"38265-5","display":"DXA Radius and Ulna [T-score] Bone density"}]},"subject":{"reference":"Patient/b2fd08f5-6a75-4221-8b2d-eb28f45ed981"},"effectivePeriod":{"start":"2026-12-31T10:00:00.000+00:00"}},"request":{"method":"PUT","url":"Observation/4aa21cbc-62d2-4f18-85c7-898d4503ab97"}},{"fullUrl":"https://madie.cms.gov/Practitioner/15492ef6-eaa6-4446-a599-db98217ffc31","resource":{"resourceType":"Practitioner","id":"15492ef6-eaa6-4446-a599-db98217ffc31","meta":{"profile":["http://hl7.org/fhir/us/qicore/StructureDefinition/qicore-practitioner"]},"identifier":[{"use":"temp","system":"urn:oid:2.16.840.1.113883.4.336","value":"Practitioner-23"}],"active":true,"name":[{"family":"Careful","given":["Adam"],"prefix":["Dr"]}],"address":[{"use":"home","line":["534 Erewhon St"],"city":"PleasantVille","state":"UT","postalCode":"84414"}],"qualification":[{"identifier":[{"system":"http://example.org/UniversityIdentifier","value":"12345"}],"code":{"coding":[{"system":"http://terminology.hl7.org/CodeSystem/v2-0360|2.7","code":"BS","display":"Bachelor of Science"}],"text":"Bachelor of Science"},"period":{"start":"1996"},"issuer":{"display":"Example University"}}]},"request":{"method":"PUT","url":"Practitioner/15492ef6-eaa6-4446-a599-db98217ffc31"}},{"fullUrl":"https://madie.cms.gov/MedicationRequest/b757c9c9-0029-4a40-8b91-f3afcd28f4a0","resource":{"resourceType":"MedicationRequest","id":"b757c9c9-0029-4a40-8b91-f3afcd28f4a0","meta":{"profile":["http://hl7.org/fhir/us/qicore/StructureDefinition/qicore-medicationrequest"]},"status":"active","intent":"order","medicationCodeableConcept":{"coding":[{"system":"http://www.nlm.nih.gov/research/umls/rxnorm","version":"04012024","code":"1115257","display":"1.5 ML leuprolide acetate 30 MG/ML Prefilled Syringe"}]},"subject":{"reference":"Patient/b2fd08f5-6a75-4221-8b2d-eb28f45ed981"},"authoredOn":"2026-09-29T08:00:00.000+00:00","requester":{"reference":"http://myGoodHealthcare.com/fhir/Practitioner/15492ef6-eaa6-4446-a599-db98217ffc31"},"dosageInstruction":[{"timing":{"repeat":{"boundsPeriod":{"start":"2026-09-30T08:00:00.000+00:00"}}}}]},"request":{"method":"PUT","url":"MedicationRequest/b757c9c9-0029-4a40-8b91-f3afcd28f4a0"}},{"fullUrl":"https://madie.cms.gov/ServiceRequest/219f06bd-d383-428d-9d99-e5ed3abc6b0e","resource":{"resourceType":"ServiceRequest","id":"219f06bd-d383-428d-9d99-e5ed3abc6b0e","meta":{"profile":["http://hl7.org/fhir/us/qicore/StructureDefinition/qicore-servicerequest"]},"status":"active","intent":"order","code":{"coding":[{"system":"http://snomed.info/sct","version":"http://snomed.info/sct/731000124108/version/20240301","code":"456381000124102","display":"Injection of leuprolide acetate for twelve month period (regime/therapy)"}]},"subject":{"reference":"Patient/b2fd08f5-6a75-4221-8b2d-eb28f45ed981"},"authoredOn":"2026-09-30T08:00:00.000+00:00"},"request":{"method":"PUT","url":"ServiceRequest/219f06bd-d383-428d-9d99-e5ed3abc6b0e"}},{"fullUrl":"https://madie.cms.gov/MeasureReport/014a453d-a8a0-411e-86ba-f318a9f0a508","resource":{"resourceType":"MeasureReport","id":"014a453d-a8a0-411e-86ba-f318a9f0a508","meta":{"profile":["http://hl7.org/fhir/us/cqfmeasures/StructureDefinition/test-case-cqfm"]},"contained":[{"resourceType":"Parameters","id":"3d0a10d9-0936-4234-a63b-744fc2543bc8-parameters","parameter":[{"name":"subject","valueString":"b2fd08f5-6a75-4221-8b2d-eb28f45ed981"}]}],"extension":[{"url":"http://hl7.org/fhir/StructureDefinition/cqf-inputParameters","valueReference":{"reference":"#3d0a10d9-0936-4234-a63b-744fc2543bc8-parameters"}},{"url":"http://hl7.org/fhir/us/cqfmeasures/StructureDefinition/cqfm-testCaseDescription","valueMarkdown":"Encounter Office Visit in MP.  Dx Prostate Cancer in MP. ADT on 9/30 and DEXA done on 12/31 of MP to test timing.  Fails NUMER Criteria "}],"modifierExtension":[{"url":"http://hl7.org/fhir/us/cqfmeasures/StructureDefinition/cqfm-isTestCase","valueBoolean":true}],"status":"complete","type":"individual","measure":"https://madie.cms.gov/Measure/CMS645FHIRBoneDensityProstateCancerAndrogenDeprivationTherapy","period":{"start":"2026-01-01","end":"2026-12-31"},"group":[{"id":"Group_1","population":[{"id":"InitialPopulation_1","code":{"coding":[{"system":"http://terminology.hl7.org/CodeSystem/measure-population","code":"initial-population","display":"Initial Population"}]},"count":1},{"id":"Denominator_1","code":{"coding":[{"system":"http://terminology.hl7.org/CodeSystem/measure-population","code":"denominator","display":"Denominator"}]},"count":1},{"id":"Numerator_1","code":{"coding":[{"system":"http://terminology.hl7.org/CodeSystem/measure-population","code":"numerator","display":"Numerator"}]},"count":0},{"id":"DenominatorException_1","code":{"coding":[{"system":"http://terminology.hl7.org/CodeSystem/measure-population","code":"denominator-exception","display":"Denominator Exception"}]},"count":0}],"measureScore":{"value":1.0}}],"evaluatedResource":[{"reference":"Patient/b2fd08f5-6a75-4221-8b2d-eb28f45ed981"},{"reference":"Encounter/025a918f-c16a-40ba-86c0-db51e03736e6"},{"reference":"Condition/02b5f662-9c0d-44ba-a6dd-51adc36408c0"},{"reference":"Observation/4aa21cbc-62d2-4f18-85c7-898d4503ab97"},{"reference":"Practitioner/15492ef6-eaa6-4446-a599-db98217ffc31"},{"reference":"MedicationRequest/b757c9c9-0029-4a40-8b91-f3afcd28f4a0"},{"reference":"ServiceRequest/219f06bd-d383-428d-9d99-e5ed3abc6b0e"}]},"request":{"method":"PUT","url":"MeasureReport/014a453d-a8a0-411e-86ba-f318a9f0a508"}}]},"request":{"method":"PUT","url":"Bundle/60abda28bf0a01003e3f76bd"}},{"resource":{"resourceType":"ServiceRequest","id":"219f06bd-d383-428d-9d99-e5ed3abc6b0e","meta":{"profile":["http://hl7.org/fhir/us/qicore/StructureDefinition/qicore-servicerequest"]},"status":"active","intent":"order","code":{"coding":[{"system":"http://snomed.info/sct","version":"http://snomed.info/sct/731000124108/version/20240301","code":"456381000124102","display":"Injection of leuprolide acetate for twelve month period (regime/therapy)"}]},"subject":{"reference":"Patient/b2fd08f5-6a75-4221-8b2d-eb28f45ed981"},"authoredOn":"2026-09-30T08:00:00.000+00:00"},"request":{"method":"PUT","url":"ServiceRequest/219f06bd-d383-428d-9d99-e5ed3abc6b0e"}},{"resource":{"resourceType":"Encounter","id":"025a918f-c16a-40ba-86c0-db51e03736e6","meta":{"profile":["http://hl7.org/fhir/us/qicore/StructureDefinition/qicore-encounter"]},"status":"finished","class":{"system":"http://terminology.hl7.org/CodeSystem/v3-ActCode","code":"AMB","display":"ambulatory"},"type":[{"coding":[{"system":"http://snomed.info/sct","version":"http://snomed.info/sct/731000124108/version/20240301","code":"185463005","display":"Visit out of hours (procedure)"}]}],"subject":{"reference":"Patient/b2fd08f5-6a75-4221-8b2d-eb28f45ed981"},"period":{"start":"2026-09-01T08:00:00.000+00:00","end":"2026-09-01T08:15:00.000+00:00"}},"request":{"method":"PUT","url":"Encounter/025a918f-c16a-40ba-86c0-db51e03736e6"}}]}