{"resourceType":"Bundle","id":"tests-a5307581-654f-415f-912f-cec5e9dc00dc-bundle","type":"transaction","entry":[{"fullUrl":"Encounter/32bff13f-268b-4564-9000-b45541babee0","resource":{"resourceType":"Encounter","id":"32bff13f-268b-4564-9000-b45541babee0","meta":{"profile":["http://hl7.org/fhir/us/qicore/StructureDefinition/qicore-encounter"]},"status":"finished","class":{"system":"http://terminology.hl7.org/CodeSystem/v3-ActCode","code":"AMB","display":"ambulatory"},"type":[{"coding":[{"system":"http://www.ama-assn.org/go/cpt","code":"99203"}]}],"subject":{"reference":"Patient/a5307581-654f-415f-912f-cec5e9dc00dc"},"period":{"start":"2026-08-01T08:00:00+00:00","end":"2026-08-01T08:15:00+00:00"}},"request":{"method":"PUT","url":"Encounter/32bff13f-268b-4564-9000-b45541babee0"}},{"fullUrl":"Practitioner/a2a64335-cf71-4b7e-9db1-ae895f806fdd","resource":{"resourceType":"Practitioner","id":"a2a64335-cf71-4b7e-9db1-ae895f806fdd","meta":{"profile":["http://hl7.org/fhir/us/qicore/StructureDefinition/qicore-practitioner"]},"identifier":[{"use":"temp","system":"urn:oid:2.16.840.1.113883.4.336","value":"Practitioner-23"}],"active":true,"name":[{"family":"Careful","given":["Adam"],"prefix":["Dr"]}],"address":[{"use":"home","line":["534 Erewhon St"],"city":"PleasantVille","state":"UT","postalCode":"84414"}],"qualification":[{"identifier":[{"system":"http://example.org/UniversityIdentifier","value":"12345"}],"code":{"coding":[{"system":"http://terminology.hl7.org/CodeSystem/v2-0360|2.7","code":"BS","display":"Bachelor of Science"}],"text":"Bachelor of Science"},"period":{"start":"1996"},"issuer":{"display":"Example University"}}]},"request":{"method":"PUT","url":"Practitioner/a2a64335-cf71-4b7e-9db1-ae895f806fdd"}},{"fullUrl":"Condition/0b136177-f18a-4924-b981-2652adf362ab","resource":{"resourceType":"Condition","id":"0b136177-f18a-4924-b981-2652adf362ab","meta":{"profile":["http://hl7.org/fhir/us/qicore/StructureDefinition/qicore-condition-problems-health-concerns"]},"clinicalStatus":{"coding":[{"system":"http://terminology.hl7.org/CodeSystem/condition-clinical","code":"active"}]},"verificationStatus":{"coding":[{"system":"http://terminology.hl7.org/CodeSystem/condition-ver-status","code":"confirmed"}]},"category":[{"coding":[{"system":"http://terminology.hl7.org/CodeSystem/condition-category","code":"problem-list-item","display":"Problem List Item"}]}],"code":{"coding":[{"system":"http://snomed.info/sct","version":"http://snomed.info/sct/731000124108/version/20240401","code":"254900004","display":"Carcinoma of prostate (disorder)"}]},"subject":{"reference":"Patient/a5307581-654f-415f-912f-cec5e9dc00dc"},"onsetPeriod":{"start":"2026-03-15T08:00:00.000+00:00"}},"request":{"method":"PUT","url":"Condition/0b136177-f18a-4924-b981-2652adf362ab"}},{"fullUrl":"Patient/a5307581-654f-415f-912f-cec5e9dc00dc","resource":{"resourceType":"Patient","id":"a5307581-654f-415f-912f-cec5e9dc00dc","meta":{"profile":["http://hl7.org/fhir/us/qicore/StructureDefinition/qicore-patient"]},"extension":[{"url":"http://hl7.org/fhir/us/core/StructureDefinition/us-core-race","extension":[{"url":"ombCategory","valueCoding":{"system":"urn:oid:2.16.840.1.113883.6.238","code":"1002-5","display":"American Indian or Alaska Native","userSelected":true}},{"url":"text","valueString":"American Indian or Alaska Native"}]},{"url":"http://hl7.org/fhir/us/core/StructureDefinition/us-core-ethnicity","extension":[{"url":"ombCategory","valueCoding":{"system":"urn:oid:2.16.840.1.113883.6.238","code":"2135-2","display":"Hispanic or Latino","userSelected":true}},{"url":"text","valueString":"Hispanic or Latino"}]}],"identifier":[{"type":{"coding":[{"system":"http://terminology.hl7.org/CodeSystem/v2-0203","code":"MR"}]},"system":"https://bonnie-fhir.healthit.gov","value":"62bc61713e113102f8cedc8b"}],"active":true,"name":[{"family":"DENOMPass","given":["MedReqBoundsEndofMP"]}],"gender":"male","birthDate":"1952-10-10"},"request":{"method":"PUT","url":"Patient/a5307581-654f-415f-912f-cec5e9dc00dc"}},{"fullUrl":"MedicationRequest/f0bad78c-aebf-4df7-8cfe-718a789f5d61","resource":{"resourceType":"MedicationRequest","id":"f0bad78c-aebf-4df7-8cfe-718a789f5d61","meta":{"profile":["http://hl7.org/fhir/us/qicore/StructureDefinition/qicore-medicationrequest"]},"status":"active","intent":"order","medicationCodeableConcept":{"coding":[{"system":"http://www.nlm.nih.gov/research/umls/rxnorm","code":"1115257","display":"1.5 ML leuprolide acetate 30 MG/ML Prefilled Syringe"}]},"subject":{"reference":"Patient/a5307581-654f-415f-912f-cec5e9dc00dc"},"authoredOn":"2026-09-10T08:00:00.000+00:00","requester":{"reference":"http://myGoodHealthcare.com/fhir/Practitioner/a2a64335-cf71-4b7e-9db1-ae895f806fdd"},"dosageInstruction":[{"timing":{"repeat":{"boundsPeriod":{"start":"2026-09-30T08:00:00.000+00:00","end":"2026-09-30T08:15:00.000+00:00"}}}}]},"request":{"method":"PUT","url":"MedicationRequest/f0bad78c-aebf-4df7-8cfe-718a789f5d61"}},{"fullUrl":"MeasureReport/5db5bf9f-d285-4381-ba43-c4cfa6690ca1","resource":{"resourceType":"MeasureReport","id":"5db5bf9f-d285-4381-ba43-c4cfa6690ca1","meta":{"profile":["http://hl7.org/fhir/us/cqfmeasures/StructureDefinition/test-case-cqfm"]},"contained":[{"resourceType":"Parameters","id":"60d0938a-7874-4857-a7e3-cf4ce0d5ea7d-parameters","parameter":[{"name":"subject","valueString":"a5307581-654f-415f-912f-cec5e9dc00dc"}]}],"extension":[{"url":"http://hl7.org/fhir/StructureDefinition/cqf-inputParameters","valueReference":{"reference":"#60d0938a-7874-4857-a7e3-cf4ce0d5ea7d-parameters"}},{"url":"http://hl7.org/fhir/us/cqfmeasures/StructureDefinition/cqfm-testCaseDescription","valueMarkdown":"Test of FirstADT definition procedure order with order at end of measurement period and PCa with no end date. Performs as expected - passes IPP and DENOM"}],"modifierExtension":[{"url":"http://hl7.org/fhir/us/cqfmeasures/StructureDefinition/cqfm-isTestCase","valueBoolean":true}],"status":"complete","type":"individual","measure":"https://madie.cms.gov/Measure/CMS645FHIRBoneDensityProstateCancerAndrogenDeprivationTherapy","period":{"start":"2026-01-01","end":"2026-12-31"},"group":[{"id":"Group_1","population":[{"id":"InitialPopulation_1","code":{"coding":[{"system":"http://terminology.hl7.org/CodeSystem/measure-population","code":"initial-population","display":"Initial Population"}]},"count":1},{"id":"Denominator_1","code":{"coding":[{"system":"http://terminology.hl7.org/CodeSystem/measure-population","code":"denominator","display":"Denominator"}]},"count":1},{"id":"Numerator_1","code":{"coding":[{"system":"http://terminology.hl7.org/CodeSystem/measure-population","code":"numerator","display":"Numerator"}]},"count":0},{"id":"DenominatorException_1","code":{"coding":[{"system":"http://terminology.hl7.org/CodeSystem/measure-population","code":"denominator-exception","display":"Denominator Exception"}]},"count":0}],"measureScore":{"value":1.0}}],"evaluatedResource":[{"reference":"Patient/a5307581-654f-415f-912f-cec5e9dc00dc"},{"reference":"Encounter/32bff13f-268b-4564-9000-b45541babee0"},{"reference":"Condition/0b136177-f18a-4924-b981-2652adf362ab"},{"reference":"MedicationRequest/f0bad78c-aebf-4df7-8cfe-718a789f5d61"},{"reference":"ServiceRequest/9a4c466c-ac5b-47a7-9648-6e96c60a77a0"},{"reference":"Practitioner/a2a64335-cf71-4b7e-9db1-ae895f806fdd"}]},"request":{"method":"PUT","url":"MeasureReport/5db5bf9f-d285-4381-ba43-c4cfa6690ca1"}},{"fullUrl":"Bundle/135f1a32f4135431232d","resource":{"resourceType":"Bundle","id":"135f1a32f4135431232d","type":"transaction","entry":[{"fullUrl":"https://madie.cms.gov/Patient/a5307581-654f-415f-912f-cec5e9dc00dc","resource":{"resourceType":"Patient","id":"a5307581-654f-415f-912f-cec5e9dc00dc","meta":{"profile":["http://hl7.org/fhir/us/qicore/StructureDefinition/qicore-patient"]},"extension":[{"url":"http://hl7.org/fhir/us/core/StructureDefinition/us-core-race","extension":[{"url":"ombCategory","valueCoding":{"system":"urn:oid:2.16.840.1.113883.6.238","code":"1002-5","display":"American Indian or Alaska Native","userSelected":true}},{"url":"text","valueString":"American Indian or Alaska Native"}]},{"url":"http://hl7.org/fhir/us/core/StructureDefinition/us-core-ethnicity","extension":[{"url":"ombCategory","valueCoding":{"system":"urn:oid:2.16.840.1.113883.6.238","code":"2135-2","display":"Hispanic or Latino","userSelected":true}},{"url":"text","valueString":"Hispanic or Latino"}]}],"identifier":[{"type":{"coding":[{"system":"http://terminology.hl7.org/CodeSystem/v2-0203","code":"MR"}]},"system":"https://bonnie-fhir.healthit.gov","value":"62bc61713e113102f8cedc8b"}],"active":true,"name":[{"family":"DENOMPass","given":["MedReqBoundsEndofMP"]}],"gender":"male","birthDate":"1952-10-10"},"request":{"method":"PUT","url":"Patient/a5307581-654f-415f-912f-cec5e9dc00dc"}},{"fullUrl":"https://madie.cms.gov/Encounter/32bff13f-268b-4564-9000-b45541babee0","resource":{"resourceType":"Encounter","id":"32bff13f-268b-4564-9000-b45541babee0","meta":{"profile":["http://hl7.org/fhir/us/qicore/StructureDefinition/qicore-encounter"]},"status":"finished","class":{"system":"http://terminology.hl7.org/CodeSystem/v3-ActCode","code":"AMB","display":"ambulatory"},"type":[{"coding":[{"system":"http://www.ama-assn.org/go/cpt","code":"99203"}]}],"subject":{"reference":"Patient/a5307581-654f-415f-912f-cec5e9dc00dc"},"period":{"start":"2026-08-01T08:00:00+00:00","end":"2026-08-01T08:15:00+00:00"}},"request":{"method":"PUT","url":"Encounter/32bff13f-268b-4564-9000-b45541babee0"}},{"fullUrl":"https://madie.cms.gov/Condition/0b136177-f18a-4924-b981-2652adf362ab","resource":{"resourceType":"Condition","id":"0b136177-f18a-4924-b981-2652adf362ab","meta":{"profile":["http://hl7.org/fhir/us/qicore/StructureDefinition/qicore-condition-problems-health-concerns"]},"clinicalStatus":{"coding":[{"system":"http://terminology.hl7.org/CodeSystem/condition-clinical","code":"active"}]},"verificationStatus":{"coding":[{"system":"http://terminology.hl7.org/CodeSystem/condition-ver-status","code":"confirmed"}]},"category":[{"coding":[{"system":"http://terminology.hl7.org/CodeSystem/condition-category","code":"problem-list-item","display":"Problem List Item"}]}],"code":{"coding":[{"system":"http://snomed.info/sct","version":"http://snomed.info/sct/731000124108/version/20240401","code":"254900004","display":"Carcinoma of prostate (disorder)"}]},"subject":{"reference":"Patient/a5307581-654f-415f-912f-cec5e9dc00dc"},"onsetPeriod":{"start":"2026-03-15T08:00:00.000+00:00"}},"request":{"method":"PUT","url":"Condition/0b136177-f18a-4924-b981-2652adf362ab"}},{"fullUrl":"https://madie.cms.gov/MedicationRequest/f0bad78c-aebf-4df7-8cfe-718a789f5d61","resource":{"resourceType":"MedicationRequest","id":"f0bad78c-aebf-4df7-8cfe-718a789f5d61","meta":{"profile":["http://hl7.org/fhir/us/qicore/StructureDefinition/qicore-medicationrequest"]},"status":"active","intent":"order","medicationCodeableConcept":{"coding":[{"system":"http://www.nlm.nih.gov/research/umls/rxnorm","code":"1115257","display":"1.5 ML leuprolide acetate 30 MG/ML Prefilled Syringe"}]},"subject":{"reference":"Patient/a5307581-654f-415f-912f-cec5e9dc00dc"},"authoredOn":"2026-09-10T08:00:00.000+00:00","requester":{"reference":"http://myGoodHealthcare.com/fhir/Practitioner/a2a64335-cf71-4b7e-9db1-ae895f806fdd"},"dosageInstruction":[{"timing":{"repeat":{"boundsPeriod":{"start":"2026-09-30T08:00:00.000+00:00","end":"2026-09-30T08:15:00.000+00:00"}}}}]},"request":{"method":"PUT","url":"MedicationRequest/f0bad78c-aebf-4df7-8cfe-718a789f5d61"}},{"fullUrl":"https://madie.cms.gov/ServiceRequest/9a4c466c-ac5b-47a7-9648-6e96c60a77a0","resource":{"resourceType":"ServiceRequest","id":"9a4c466c-ac5b-47a7-9648-6e96c60a77a0","meta":{"profile":["http://hl7.org/fhir/us/qicore/StructureDefinition/qicore-servicerequest"]},"status":"active","intent":"order","code":{"coding":[{"system":"http://snomed.info/sct","code":"456381000124102","display":"Injection of leuprolide acetate for twelve month period (regime/therapy)"}]},"subject":{"reference":"Patient/a5307581-654f-415f-912f-cec5e9dc00dc"},"authoredOn":"2026-09-30T08:00:00.000+00:00"},"request":{"method":"PUT","url":"ServiceRequest/9a4c466c-ac5b-47a7-9648-6e96c60a77a0"}},{"fullUrl":"https://madie.cms.gov/Practitioner/a2a64335-cf71-4b7e-9db1-ae895f806fdd","resource":{"resourceType":"Practitioner","id":"a2a64335-cf71-4b7e-9db1-ae895f806fdd","meta":{"profile":["http://hl7.org/fhir/us/qicore/StructureDefinition/qicore-practitioner"]},"identifier":[{"use":"temp","system":"urn:oid:2.16.840.1.113883.4.336","value":"Practitioner-23"}],"active":true,"name":[{"family":"Careful","given":["Adam"],"prefix":["Dr"]}],"address":[{"use":"home","line":["534 Erewhon St"],"city":"PleasantVille","state":"UT","postalCode":"84414"}],"qualification":[{"identifier":[{"system":"http://example.org/UniversityIdentifier","value":"12345"}],"code":{"coding":[{"system":"http://terminology.hl7.org/CodeSystem/v2-0360|2.7","code":"BS","display":"Bachelor of Science"}],"text":"Bachelor of Science"},"period":{"start":"1996"},"issuer":{"display":"Example University"}}]},"request":{"method":"PUT","url":"Practitioner/a2a64335-cf71-4b7e-9db1-ae895f806fdd"}},{"fullUrl":"https://madie.cms.gov/MeasureReport/5db5bf9f-d285-4381-ba43-c4cfa6690ca1","resource":{"resourceType":"MeasureReport","id":"5db5bf9f-d285-4381-ba43-c4cfa6690ca1","meta":{"profile":["http://hl7.org/fhir/us/cqfmeasures/StructureDefinition/test-case-cqfm"]},"contained":[{"resourceType":"Parameters","id":"60d0938a-7874-4857-a7e3-cf4ce0d5ea7d-parameters","parameter":[{"name":"subject","valueString":"a5307581-654f-415f-912f-cec5e9dc00dc"}]}],"extension":[{"url":"http://hl7.org/fhir/StructureDefinition/cqf-inputParameters","valueReference":{"reference":"#60d0938a-7874-4857-a7e3-cf4ce0d5ea7d-parameters"}},{"url":"http://hl7.org/fhir/us/cqfmeasures/StructureDefinition/cqfm-testCaseDescription","valueMarkdown":"Test of FirstADT definition procedure order with order at end of measurement period and PCa with no end date. Performs as expected - passes IPP and DENOM"}],"modifierExtension":[{"url":"http://hl7.org/fhir/us/cqfmeasures/StructureDefinition/cqfm-isTestCase","valueBoolean":true}],"status":"complete","type":"individual","measure":"https://madie.cms.gov/Measure/CMS645FHIRBoneDensityProstateCancerAndrogenDeprivationTherapy","period":{"start":"2026-01-01","end":"2026-12-31"},"group":[{"id":"Group_1","population":[{"id":"InitialPopulation_1","code":{"coding":[{"system":"http://terminology.hl7.org/CodeSystem/measure-population","code":"initial-population","display":"Initial Population"}]},"count":1},{"id":"Denominator_1","code":{"coding":[{"system":"http://terminology.hl7.org/CodeSystem/measure-population","code":"denominator","display":"Denominator"}]},"count":1},{"id":"Numerator_1","code":{"coding":[{"system":"http://terminology.hl7.org/CodeSystem/measure-population","code":"numerator","display":"Numerator"}]},"count":0},{"id":"DenominatorException_1","code":{"coding":[{"system":"http://terminology.hl7.org/CodeSystem/measure-population","code":"denominator-exception","display":"Denominator Exception"}]},"count":0}],"measureScore":{"value":1.0}}],"evaluatedResource":[{"reference":"Patient/a5307581-654f-415f-912f-cec5e9dc00dc"},{"reference":"Encounter/32bff13f-268b-4564-9000-b45541babee0"},{"reference":"Condition/0b136177-f18a-4924-b981-2652adf362ab"},{"reference":"MedicationRequest/f0bad78c-aebf-4df7-8cfe-718a789f5d61"},{"reference":"ServiceRequest/9a4c466c-ac5b-47a7-9648-6e96c60a77a0"},{"reference":"Practitioner/a2a64335-cf71-4b7e-9db1-ae895f806fdd"}]},"request":{"method":"PUT","url":"MeasureReport/5db5bf9f-d285-4381-ba43-c4cfa6690ca1"}}]},"request":{"method":"PUT","url":"Bundle/135f1a32f4135431232d"}},{"fullUrl":"ServiceRequest/9a4c466c-ac5b-47a7-9648-6e96c60a77a0","resource":{"resourceType":"ServiceRequest","id":"9a4c466c-ac5b-47a7-9648-6e96c60a77a0","meta":{"profile":["http://hl7.org/fhir/us/qicore/StructureDefinition/qicore-servicerequest"]},"status":"active","intent":"order","code":{"coding":[{"system":"http://snomed.info/sct","code":"456381000124102","display":"Injection of leuprolide acetate for twelve month period (regime/therapy)"}]},"subject":{"reference":"Patient/a5307581-654f-415f-912f-cec5e9dc00dc"},"authoredOn":"2026-09-30T08:00:00.000+00:00"},"request":{"method":"PUT","url":"ServiceRequest/9a4c466c-ac5b-47a7-9648-6e96c60a77a0"}}]}