{
  "resourceType": "Bundle",
  "id": "612e6b1702c62a011f2ec653",
  "type": "transaction",
  "entry": [ {
    "fullUrl": "https://madie.cms.gov/Patient/1d907390-04db-46f5-b429-955aa427e815",
    "resource": {
      "resourceType": "Patient",
      "id": "1d907390-04db-46f5-b429-955aa427e815",
      "meta": {
        "profile": [ "http://hl7.org/fhir/us/qicore/StructureDefinition/qicore-patient" ]
      },
      "text": {
        "status": "generated",
        "div": "<div xmlns=\"http://www.w3.org/1999/xhtml\"><div class=\"hapiHeaderText\">NOccur1FailIP1NumMAWarfSameDayBFAdmit <b>NUMERPASS </b></div><table class=\"hapiPropertyTable\"><tbody><tr><td>Identifier</td><td>f6b3ce4fb2b87a4aa5f00ca8118e0e9a</td></tr><tr><td>Date of birth</td><td><span>02 January 1974</span></td></tr></tbody></table></div>"
      },
      "extension": [ {
        "url": "http://hl7.org/fhir/us/core/StructureDefinition/us-core-race",
        "extension": [ {
          "url": "ombCategory",
          "valueCoding": {
            "system": "urn:oid:2.16.840.1.113883.6.238",
            "code": "1002-5",
            "display": "American Indian or Alaska Native",
            "userSelected": true
          }
        }, {
          "url": "text",
          "valueString": "American Indian or Alaska Native"
        } ]
      }, {
        "url": "http://hl7.org/fhir/us/core/StructureDefinition/us-core-ethnicity",
        "extension": [ {
          "url": "ombCategory",
          "valueCoding": {
            "system": "urn:oid:2.16.840.1.113883.6.238",
            "code": "2135-2",
            "display": "Hispanic or Latino",
            "userSelected": true
          }
        }, {
          "url": "text",
          "valueString": "Hispanic or Latino"
        } ]
      } ],
      "identifier": [ {
        "type": {
          "coding": [ {
            "system": "http://terminology.hl7.org/CodeSystem/v2-0203",
            "code": "MR"
          } ]
        },
        "system": "https://bonnie-fhir.healthit.gov/",
        "value": "612e6b1702c62a011f2ec653"
      } ],
      "active": true,
      "name": [ {
        "use": "usual",
        "family": "NUMERPass",
        "given": [ "NOccur1FailIP1NumMAWarfSameDayBFAdmit" ]
      } ],
      "gender": "male",
      "birthDate": "1975-01-02"
    },
    "request": {
      "method": "PUT",
      "url": "Patient/1d907390-04db-46f5-b429-955aa427e815"
    }
  }, {
    "fullUrl": "https://madie.cms.gov/Encounter/c0c70850-1ba2-4a9e-851c-ffe4f83e8653",
    "resource": {
      "resourceType": "Encounter",
      "id": "c0c70850-1ba2-4a9e-851c-ffe4f83e8653",
      "meta": {
        "profile": [ "http://hl7.org/fhir/us/qicore/StructureDefinition/qicore-encounter" ]
      },
      "status": "finished",
      "class": {
        "system": "http://terminology.hl7.org/CodeSystem/v3-ActCode",
        "code": "IMP",
        "display": "inpatient encounter"
      },
      "type": [ {
        "coding": [ {
          "system": "http://snomed.info/sct",
          "code": "8715000"
        } ]
      } ],
      "subject": {
        "reference": "Patient/1d907390-04db-46f5-b429-955aa427e815"
      },
      "period": {
        "start": "2026-10-03T08:00:00.000+00:00",
        "end": "2026-10-05T08:15:00.000+00:00"
      },
      "length": {
        "value": 2,
        "unit": "days"
      },
      "reasonReference": [ {
        "reference": "Condition/cc292cf6-1ef2-4823-a81a-81471870c4ed"
      } ]
    },
    "request": {
      "method": "PUT",
      "url": "Encounter/c0c70850-1ba2-4a9e-851c-ffe4f83e8653"
    }
  }, {
    "fullUrl": "https://madie.cms.gov/Encounter/21aa465f-9de4-4336-8907-24cd5b340b06",
    "resource": {
      "resourceType": "Encounter",
      "id": "21aa465f-9de4-4336-8907-24cd5b340b06",
      "meta": {
        "profile": [ "http://hl7.org/fhir/us/qicore/StructureDefinition/qicore-encounter" ]
      },
      "status": "finished",
      "class": {
        "system": "http://terminology.hl7.org/CodeSystem/v3-ActCode",
        "code": "IMP",
        "display": "inpatient encounter"
      },
      "type": [ {
        "coding": [ {
          "system": "http://snomed.info/sct",
          "code": "8715000"
        } ]
      } ],
      "subject": {
        "reference": "Patient/1d907390-04db-46f5-b429-955aa427e815"
      },
      "period": {
        "start": "2026-11-01T08:00:00.000+00:00",
        "end": "2026-11-26T08:15:00.000+00:00"
      },
      "length": {
        "value": 25,
        "unit": "days"
      }
    },
    "request": {
      "method": "PUT",
      "url": "Encounter/21aa465f-9de4-4336-8907-24cd5b340b06"
    }
  }, {
    "fullUrl": "https://madie.cms.gov/Coverage/fc241021-3c41-45ae-a6de-77b767bc0f45",
    "resource": {
      "resourceType": "Coverage",
      "id": "fc241021-3c41-45ae-a6de-77b767bc0f45",
      "status": "active",
      "beneficiary": {
        "reference": "Patient/1d907390-04db-46f5-b429-955aa427e815"
      },
      "period": {
        "start": "1975-01-02T08:00:00.000+00:00"
      },
      "payor": [ {
        "reference": "Organization/f014f050-dd79-45a2-aa16-6a094bbf48aa"
      } ]
    },
    "request": {
      "method": "PUT",
      "url": "Coverage/fc241021-3c41-45ae-a6de-77b767bc0f45"
    }
  }, {
    "fullUrl": "https://madie.cms.gov/MedicationAdministration/daf0ee41-a68f-4fe5-a4f7-0ed1d8ee6a5b",
    "resource": {
      "resourceType": "MedicationAdministration",
      "id": "daf0ee41-a68f-4fe5-a4f7-0ed1d8ee6a5b",
      "meta": {
        "profile": [ "http://hl7.org/fhir/us/qicore/StructureDefinition/qicore-medicationadministration" ]
      },
      "status": "completed",
      "medicationCodeableConcept": {
        "coding": [ {
          "system": "http://www.nlm.nih.gov/research/umls/rxnorm",
          "code": "855288"
        } ]
      },
      "subject": {
        "reference": "Patient/1d907390-04db-46f5-b429-955aa427e815"
      },
      "effectivePeriod": {
        "start": "2026-11-01T06:00:00.000+00:00",
        "end": "2026-11-01T06:15:00.000+00:00"
      }
    },
    "request": {
      "method": "PUT",
      "url": "MedicationAdministration/daf0ee41-a68f-4fe5-a4f7-0ed1d8ee6a5b"
    }
  }, {
    "fullUrl": "https://madie.cms.gov/Condition/cc292cf6-1ef2-4823-a81a-81471870c4ed",
    "resource": {
      "resourceType": "Condition",
      "id": "cc292cf6-1ef2-4823-a81a-81471870c4ed",
      "meta": {
        "profile": [ "http://hl7.org/fhir/us/qicore/StructureDefinition/qicore-condition-encounter-diagnosis" ]
      },
      "category": [ {
        "coding": [ {
          "system": "http://terminology.hl7.org/CodeSystem/condition-category",
          "code": "encounter-diagnosis",
          "display": "Encounter Diagnosis"
        } ]
      } ],
      "code": {
        "coding": [ {
          "system": "http://snomed.info/sct",
          "code": "10217006",
          "display": "Third degree perineal laceration (disorder)",
          "userSelected": true
        } ]
      },
      "subject": {
        "reference": "Patient/1d907390-04db-46f5-b429-955aa427e815"
      },
      "recordedDate": "2026-07-20T08:00:00.000+00:00"
    },
    "request": {
      "method": "PUT",
      "url": "Condition/cc292cf6-1ef2-4823-a81a-81471870c4ed"
    }
  }, {
    "fullUrl": "https://madie.cms.gov/Organization/f014f050-dd79-45a2-aa16-6a094bbf48aa",
    "resource": {
      "resourceType": "Organization",
      "id": "f014f050-dd79-45a2-aa16-6a094bbf48aa",
      "meta": {
        "profile": [ "http://hl7.org/fhir/us/qicore/StructureDefinition/qicore-organization" ]
      },
      "identifier": [ {
        "use": "temp",
        "system": "urn:oid:2.16.840.1.113883.4.4",
        "value": "21-3259825"
      } ],
      "active": true,
      "type": [ {
        "coding": [ {
          "system": "http://terminology.hl7.org/CodeSystem/organization-type",
          "code": "pay",
          "display": "Payer"
        } ]
      } ],
      "name": "Blue Cross Blue Shield of Texas",
      "telecom": [ {
        "system": "phone",
        "value": "(+1) 972-766-6900"
      } ],
      "address": [ {
        "use": "billing",
        "type": "postal",
        "line": [ "P.O. Box 660044" ],
        "city": "Dallas",
        "state": "TX",
        "postalCode": "75266-0044",
        "country": "USA"
      } ]
    },
    "request": {
      "method": "PUT",
      "url": "Organization/f014f050-dd79-45a2-aa16-6a094bbf48aa"
    }
  }, {
    "fullUrl": "https://madie.cms.gov/Practitioner/f5b74492-a6ef-40dc-8f97-0c7e3d9347ab",
    "resource": {
      "resourceType": "Practitioner",
      "id": "f5b74492-a6ef-40dc-8f97-0c7e3d9347ab",
      "identifier": [ {
        "system": "http://hl7.org/fhir/sid/us-npi",
        "value": "123456"
      } ],
      "name": [ {
        "family": "Evil",
        "prefix": [ "Dr" ]
      } ]
    },
    "request": {
      "method": "PUT",
      "url": "Practitioner/f5b74492-a6ef-40dc-8f97-0c7e3d9347ab"
    }
  }, {
    "fullUrl": "https://madie.cms.gov/MeasureReport/a4d8ad9b-5c60-455f-a80e-0e6eef338468",
    "resource": {
      "resourceType": "MeasureReport",
      "id": "a4d8ad9b-5c60-455f-a80e-0e6eef338468",
      "meta": {
        "profile": [ "http://hl7.org/fhir/us/cqfmeasures/StructureDefinition/test-case-cqfm" ]
      },
      "contained": [ {
        "resourceType": "Parameters",
        "id": "2740b946-c36c-40d4-89f2-e78f512dc18f-parameters",
        "parameter": [ {
          "name": "subject",
          "valueString": "1d907390-04db-46f5-b429-955aa427e815"
        } ]
      } ],
      "extension": [ {
        "url": "http://hl7.org/fhir/StructureDefinition/cqf-inputParameters",
        "valueReference": {
          "reference": "#2740b946-c36c-40d4-89f2-e78f512dc18f-parameters"
        }
      }, {
        "url": "http://hl7.org/fhir/us/cqfmeasures/StructureDefinition/cqfm-testCaseDescription",
        "valueMarkdown": "2 encounters. One is failed IPP and another encountewarfarin administered  on the same day as adm but it was before adm time\n"
      } ],
      "modifierExtension": [ {
        "url": "http://hl7.org/fhir/us/cqfmeasures/StructureDefinition/cqfm-isTestCase",
        "valueBoolean": true
      } ],
      "status": "complete",
      "type": "individual",
      "measure": "https://madie.cms.gov/Measure/CMS108FHIRVTEProphylaxis",
      "period": {
        "start": "2026-01-01",
        "end": "2026-12-31"
      },
      "group": [ {
        "id": "Group_1",
        "population": [ {
          "id": "InitialPopulation_1",
          "code": {
            "coding": [ {
              "system": "http://terminology.hl7.org/CodeSystem/measure-population",
              "code": "initial-population",
              "display": "Initial Population"
            } ]
          },
          "count": 1
        }, {
          "id": "Denominator_1",
          "code": {
            "coding": [ {
              "system": "http://terminology.hl7.org/CodeSystem/measure-population",
              "code": "denominator",
              "display": "Denominator"
            } ]
          },
          "count": 1
        }, {
          "id": "DenominatorExclusion_1",
          "code": {
            "coding": [ {
              "system": "http://terminology.hl7.org/CodeSystem/measure-population",
              "code": "denominator-exclusion",
              "display": "Denominator Exclusion"
            } ]
          },
          "count": 0
        }, {
          "id": "Numerator_1",
          "code": {
            "coding": [ {
              "system": "http://terminology.hl7.org/CodeSystem/measure-population",
              "code": "numerator",
              "display": "Numerator"
            } ]
          },
          "count": 1
        } ],
        "measureScore": {
          "value": 0.0
        }
      } ],
      "evaluatedResource": [ {
        "reference": "Patient/1d907390-04db-46f5-b429-955aa427e815"
      }, {
        "reference": "Encounter/c0c70850-1ba2-4a9e-851c-ffe4f83e8653"
      }, {
        "reference": "Encounter/21aa465f-9de4-4336-8907-24cd5b340b06"
      }, {
        "reference": "Coverage/fc241021-3c41-45ae-a6de-77b767bc0f45"
      }, {
        "reference": "MedicationAdministration/daf0ee41-a68f-4fe5-a4f7-0ed1d8ee6a5b"
      }, {
        "reference": "Condition/cc292cf6-1ef2-4823-a81a-81471870c4ed"
      }, {
        "reference": "Organization/f014f050-dd79-45a2-aa16-6a094bbf48aa"
      }, {
        "reference": "Practitioner/f5b74492-a6ef-40dc-8f97-0c7e3d9347ab"
      } ]
    },
    "request": {
      "method": "PUT",
      "url": "MeasureReport/a4d8ad9b-5c60-455f-a80e-0e6eef338468"
    }
  } ]
}