{
  "resourceType": "Bundle",
  "id": "61168b8798086b77ef9c5ec2",
  "type": "transaction",
  "entry": [ {
    "fullUrl": "https://madie.cms.gov/Patient/0abeb5d4-0e98-4b8f-9745-2435306d9978",
    "resource": {
      "resourceType": "Patient",
      "id": "0abeb5d4-0e98-4b8f-9745-2435306d9978",
      "meta": {
        "profile": [ "http://hl7.org/fhir/us/qicore/StructureDefinition/qicore-patient" ]
      },
      "extension": [ {
        "url": "http://hl7.org/fhir/us/core/StructureDefinition/us-core-race",
        "extension": [ {
          "url": "ombCategory",
          "valueCoding": {
            "system": "urn:oid:2.16.840.1.113883.6.238",
            "code": "2054-5",
            "display": "Black or African American",
            "userSelected": true
          }
        }, {
          "url": "text",
          "valueString": "Black or African American"
        } ]
      }, {
        "url": "http://hl7.org/fhir/us/core/StructureDefinition/us-core-ethnicity",
        "extension": [ {
          "url": "ombCategory",
          "valueCoding": {
            "system": "urn:oid:2.16.840.1.113883.6.238",
            "code": "2135-2",
            "display": "Hispanic or Latino",
            "userSelected": true
          }
        }, {
          "url": "text",
          "valueString": "Hispanic or Latino"
        } ]
      } ],
      "identifier": [ {
        "type": {
          "coding": [ {
            "system": "http://terminology.hl7.org/CodeSystem/v2-0203",
            "code": "MR"
          } ]
        },
        "system": "https://myGoodHealthCare.com/",
        "value": "61168b8798086b77ef9c5ec2"
      } ],
      "active": true,
      "name": [ {
        "use": "usual",
        "family": "IPFail",
        "given": [ "RetinopathyDxUnconfirmed" ]
      } ],
      "gender": "female",
      "birthDate": "1979-01-01"
    },
    "request": {
      "method": "PUT",
      "url": "Patient/0abeb5d4-0e98-4b8f-9745-2435306d9978"
    }
  }, {
    "fullUrl": "https://madie.cms.gov/Condition/93d72f8d-8b58-481a-8a02-9a062d6b4f13",
    "resource": {
      "resourceType": "Condition",
      "id": "93d72f8d-8b58-481a-8a02-9a062d6b4f13",
      "meta": {
        "profile": [ "http://hl7.org/fhir/us/qicore/StructureDefinition/qicore-condition-problems-health-concerns" ]
      },
      "clinicalStatus": {
        "coding": [ {
          "system": "http://terminology.hl7.org/CodeSystem/condition-clinical",
          "code": "active",
          "display": "active",
          "userSelected": true
        } ]
      },
      "verificationStatus": {
        "coding": [ {
          "system": "http://terminology.hl7.org/CodeSystem/condition-ver-status",
          "code": "unconfirmed",
          "display": "Unconfirmed",
          "userSelected": true
        } ]
      },
      "category": [ {
        "coding": [ {
          "system": "http://terminology.hl7.org/CodeSystem/condition-category",
          "code": "problem-list-item",
          "display": "Problem List Item"
        } ]
      } ],
      "code": {
        "coding": [ {
          "system": "http://snomed.info/sct",
          "version": "http://snomed.info/sct/731000124108/version/202303",
          "code": "314014002"
        } ]
      },
      "subject": {
        "reference": "Patient/0abeb5d4-0e98-4b8f-9745-2435306d9978"
      },
      "onsetDateTime": "2026-09-10T10:45:00.000+00:00"
    },
    "request": {
      "method": "PUT",
      "url": "Condition/93d72f8d-8b58-481a-8a02-9a062d6b4f13"
    }
  }, {
    "fullUrl": "https://madie.cms.gov/Encounter/59e27c1b-1dfa-4a8a-a9f2-26a5ccd96968",
    "resource": {
      "resourceType": "Encounter",
      "id": "59e27c1b-1dfa-4a8a-a9f2-26a5ccd96968",
      "meta": {
        "profile": [ "http://hl7.org/fhir/us/qicore/StructureDefinition/qicore-encounter" ]
      },
      "status": "finished",
      "class": {
        "system": "http://terminology.hl7.org/CodeSystem/v3-ActCode",
        "code": "AMB"
      },
      "type": [ {
        "coding": [ {
          "system": "http://www.ama-assn.org/go/cpt",
          "version": "2023",
          "code": "99205"
        } ]
      } ],
      "subject": {
        "reference": "Patient/0abeb5d4-0e98-4b8f-9745-2435306d9978"
      },
      "period": {
        "start": "2026-09-11T10:00:00.000+00:00",
        "end": "2026-09-11T11:00:00.000+00:00"
      }
    },
    "request": {
      "method": "PUT",
      "url": "Encounter/59e27c1b-1dfa-4a8a-a9f2-26a5ccd96968"
    }
  }, {
    "fullUrl": "https://madie.cms.gov/Coverage/07ee22c7-8a36-4a88-947b-0e17b98930cc",
    "resource": {
      "resourceType": "Coverage",
      "id": "07ee22c7-8a36-4a88-947b-0e17b98930cc",
      "meta": {
        "profile": [ "http://hl7.org/fhir/us/qicore/StructureDefinition/qicore-coverage" ]
      },
      "status": "active",
      "beneficiary": {
        "reference": "Patient/0abeb5d4-0e98-4b8f-9745-2435306d9978"
      },
      "payor": [ {
        "reference": "Organization/00864cf8-bbdc-44e2-a937-489930de7ce7"
      } ]
    },
    "request": {
      "method": "PUT",
      "url": "Coverage/07ee22c7-8a36-4a88-947b-0e17b98930cc"
    }
  }, {
    "fullUrl": "https://madie.cms.gov/Organization/00864cf8-bbdc-44e2-a937-489930de7ce7",
    "resource": {
      "resourceType": "Organization",
      "id": "00864cf8-bbdc-44e2-a937-489930de7ce7",
      "meta": {
        "profile": [ "http://hl7.org/fhir/us/qicore/StructureDefinition/qicore-organization" ]
      },
      "identifier": [ {
        "use": "temp",
        "system": "urn:oid:2.16.840.1.113883.4.4",
        "value": "21-3259825"
      } ],
      "active": true,
      "type": [ {
        "coding": [ {
          "system": "http://terminology.hl7.org/CodeSystem/organization-type",
          "code": "pay",
          "display": "Payer"
        } ]
      } ],
      "name": "Blue Cross Blue Shield of Texas",
      "telecom": [ {
        "system": "phone",
        "value": "(+1) 972-766-6900"
      } ],
      "address": [ {
        "use": "billing",
        "type": "postal",
        "line": [ "P.O. Box 660044" ],
        "city": "Dallas",
        "state": "TX",
        "postalCode": "75266-0044",
        "country": "USA"
      } ]
    },
    "request": {
      "method": "PUT",
      "url": "Organization/00864cf8-bbdc-44e2-a937-489930de7ce7"
    }
  }, {
    "fullUrl": "https://madie.cms.gov/MeasureReport/64d7c48b-0940-448b-976d-82faba50b03b",
    "resource": {
      "resourceType": "MeasureReport",
      "id": "64d7c48b-0940-448b-976d-82faba50b03b",
      "meta": {
        "profile": [ "http://hl7.org/fhir/us/cqfmeasures/StructureDefinition/test-case-cqfm" ]
      },
      "contained": [ {
        "resourceType": "Parameters",
        "id": "bc573aff-1b3e-4e7d-b71f-d747008b6c30-parameters",
        "parameter": [ {
          "name": "subject",
          "valueString": "0abeb5d4-0e98-4b8f-9745-2435306d9978"
        } ]
      } ],
      "extension": [ {
        "url": "http://hl7.org/fhir/StructureDefinition/cqf-inputParameters",
        "valueReference": {
          "reference": "#bc573aff-1b3e-4e7d-b71f-d747008b6c30-parameters"
        }
      }, {
        "url": "http://hl7.org/fhir/us/cqfmeasures/StructureDefinition/cqfm-testCaseDescription",
        "valueMarkdown": "Patient with Qualifying Encounter and Retinopathy Diagnosis does not meet IPP because of Unconfirmed verification status of the diagnosis."
      } ],
      "modifierExtension": [ {
        "url": "http://hl7.org/fhir/us/cqfmeasures/StructureDefinition/cqfm-isTestCase",
        "valueBoolean": true
      } ],
      "status": "complete",
      "type": "individual",
      "measure": "https://madie.cms.gov/Measure/CMS142FHIRDRCommunicationWithPhysicianManagingDiabetes",
      "period": {
        "start": "2026-01-01",
        "end": "2026-12-31"
      },
      "group": [ {
        "id": "Group_1",
        "population": [ {
          "id": "InitialPopulation_1",
          "code": {
            "coding": [ {
              "system": "http://terminology.hl7.org/CodeSystem/measure-population",
              "code": "initial-population",
              "display": "Initial Population"
            } ]
          },
          "count": 0
        }, {
          "id": "Denominator_1",
          "code": {
            "coding": [ {
              "system": "http://terminology.hl7.org/CodeSystem/measure-population",
              "code": "denominator",
              "display": "Denominator"
            } ]
          },
          "count": 0
        }, {
          "id": "Numerator_1",
          "code": {
            "coding": [ {
              "system": "http://terminology.hl7.org/CodeSystem/measure-population",
              "code": "numerator",
              "display": "Numerator"
            } ]
          },
          "count": 0
        }, {
          "id": "DenominatorException_1",
          "code": {
            "coding": [ {
              "system": "http://terminology.hl7.org/CodeSystem/measure-population",
              "code": "denominator-exception",
              "display": "Denominator Exception"
            } ]
          },
          "count": 0
        } ],
        "measureScore": {
          "value": 1.0
        }
      } ],
      "evaluatedResource": [ {
        "reference": "Patient/0abeb5d4-0e98-4b8f-9745-2435306d9978"
      }, {
        "reference": "Condition/93d72f8d-8b58-481a-8a02-9a062d6b4f13"
      }, {
        "reference": "Encounter/59e27c1b-1dfa-4a8a-a9f2-26a5ccd96968"
      }, {
        "reference": "Coverage/07ee22c7-8a36-4a88-947b-0e17b98930cc"
      }, {
        "reference": "Organization/00864cf8-bbdc-44e2-a937-489930de7ce7"
      } ]
    },
    "request": {
      "method": "PUT",
      "url": "MeasureReport/64d7c48b-0940-448b-976d-82faba50b03b"
    }
  } ]
}