{
  "resourceType": "Bundle",
  "id": "62bb0269a2aa708c99ded708",
  "type": "transaction",
  "entry": [ {
    "fullUrl": "https://madie.cms.gov/Patient/f29e2786-fade-4dca-b14d-7037a34ef498",
    "resource": {
      "resourceType": "Patient",
      "id": "f29e2786-fade-4dca-b14d-7037a34ef498",
      "meta": {
        "profile": [ "http://hl7.org/fhir/us/qicore/StructureDefinition/qicore-patient" ]
      },
      "extension": [ {
        "url": "http://hl7.org/fhir/us/core/StructureDefinition/us-core-race",
        "extension": [ {
          "url": "ombCategory",
          "valueCoding": {
            "system": "urn:oid:2.16.840.1.113883.6.238",
            "code": "1002-5",
            "display": "American Indian or Alaska Native",
            "userSelected": true
          }
        }, {
          "url": "text",
          "valueString": "American Indian or Alaska Native"
        } ]
      }, {
        "url": "http://hl7.org/fhir/us/core/StructureDefinition/us-core-ethnicity",
        "extension": [ {
          "url": "ombCategory",
          "valueCoding": {
            "system": "urn:oid:2.16.840.1.113883.6.238",
            "code": "2135-2",
            "display": "Hispanic or Latino",
            "userSelected": true
          }
        }, {
          "url": "text",
          "valueString": "Hispanic or Latino"
        } ]
      } ],
      "identifier": [ {
        "type": {
          "coding": [ {
            "system": "http://terminology.hl7.org/CodeSystem/v2-0203",
            "code": "MR"
          } ]
        },
        "system": "https://bonnie-fhir.healthit.gov/",
        "value": "62bb0269a2aa708c99ded708"
      } ],
      "name": [ {
        "family": "DENEXCEPPass",
        "given": [ "AdultMedicalReasonForNoDepressionScreenAge17" ]
      } ],
      "gender": "male",
      "birthDate": "2009-01-01"
    },
    "request": {
      "method": "PUT",
      "url": "Patient/f29e2786-fade-4dca-b14d-7037a34ef498"
    }
  }, {
    "fullUrl": "https://madie.cms.gov/Encounter/8d9b7bd0-a499-4b85-b30f-c44937e8f050",
    "resource": {
      "resourceType": "Encounter",
      "id": "8d9b7bd0-a499-4b85-b30f-c44937e8f050",
      "meta": {
        "profile": [ "http://hl7.org/fhir/us/qicore/StructureDefinition/qicore-encounter" ]
      },
      "status": "finished",
      "class": {
        "system": "http://terminology.hl7.org/CodeSystem/v3-ActCode",
        "code": "AMB",
        "display": "ambulatory"
      },
      "type": [ {
        "coding": [ {
          "system": "http://snomed.info/sct",
          "version": "2021-09",
          "code": "10197000",
          "display": "Psychiatric interview and evaluation (procedure)",
          "userSelected": true
        } ]
      } ],
      "subject": {
        "reference": "Patient/f29e2786-fade-4dca-b14d-7037a34ef498"
      },
      "period": {
        "start": "2026-06-28T08:00:00.000+00:00",
        "end": "2026-06-28T08:15:00.000+00:00"
      }
    },
    "request": {
      "method": "PUT",
      "url": "Encounter/8d9b7bd0-a499-4b85-b30f-c44937e8f050"
    }
  }, {
    "fullUrl": "https://madie.cms.gov/Observation/b57954da-7038-44ab-a441-394d12524387",
    "resource": {
      "resourceType": "Observation",
      "id": "b57954da-7038-44ab-a441-394d12524387",
      "meta": {
        "profile": [ "http://hl7.org/fhir/us/qicore/StructureDefinition/qicore-observationcancelled" ]
      },
      "extension": [ {
        "url": "http://hl7.org/fhir/us/qicore/StructureDefinition/qicore-notDoneReason",
        "valueCodeableConcept": {
          "coding": [ {
            "system": "http://snomed.info/sct",
            "code": "183932001",
            "display": "Procedure contraindicated (situation)",
            "userSelected": true
          } ]
        }
      } ],
      "status": "cancelled",
      "category": [ {
        "coding": [ {
          "system": "http://terminology.hl7.org/CodeSystem/observation-category",
          "code": "procedure",
          "display": "Procedure"
        } ]
      } ],
      "code": {
        "coding": [ {
          "system": "http://loinc.org",
          "code": "73832-8",
          "display": "Adult depression screening assessment",
          "userSelected": true
        } ]
      },
      "subject": {
        "reference": "Patient/f29e2786-fade-4dca-b14d-7037a34ef498"
      },
      "issued": "2026-06-28T08:00:00.000+00:00",
      "valueBoolean": true
    },
    "request": {
      "method": "PUT",
      "url": "Observation/b57954da-7038-44ab-a441-394d12524387"
    }
  }, {
    "fullUrl": "https://madie.cms.gov/Coverage/64195779-3210-45ec-84d9-5dc7590e69e8",
    "resource": {
      "resourceType": "Coverage",
      "id": "64195779-3210-45ec-84d9-5dc7590e69e8",
      "meta": {
        "profile": [ "http://hl7.org/fhir/us/qicore/StructureDefinition/qicore-coverage" ]
      },
      "status": "active",
      "beneficiary": {
        "reference": "Patient/f29e2786-fade-4dca-b14d-7037a34ef498"
      },
      "payor": [ {
        "reference": "Organization/7267dc45-669f-4289-8dec-449fec3bb81a"
      } ]
    },
    "request": {
      "method": "PUT",
      "url": "Coverage/64195779-3210-45ec-84d9-5dc7590e69e8"
    }
  }, {
    "fullUrl": "https://madie.cms.gov/Organization/7267dc45-669f-4289-8dec-449fec3bb81a",
    "resource": {
      "resourceType": "Organization",
      "id": "7267dc45-669f-4289-8dec-449fec3bb81a",
      "meta": {
        "profile": [ "http://hl7.org/fhir/us/qicore/StructureDefinition/qicore-organization" ]
      },
      "identifier": [ {
        "use": "temp",
        "system": "urn:oid:2.16.840.1.113883.4.4",
        "value": "21-3259825"
      } ],
      "active": true,
      "type": [ {
        "coding": [ {
          "system": "http://terminology.hl7.org/CodeSystem/organization-type",
          "code": "pay",
          "display": "Payer"
        } ]
      } ],
      "name": "Blue Cross Blue Shield of Texas",
      "telecom": [ {
        "system": "phone",
        "value": "(+1) 972-766-6900"
      } ],
      "address": [ {
        "use": "billing",
        "type": "postal",
        "line": [ "P.O. Box 660044" ],
        "city": "Dallas",
        "state": "TX",
        "postalCode": "75266-0044",
        "country": "USA"
      } ]
    },
    "request": {
      "method": "PUT",
      "url": "Organization/7267dc45-669f-4289-8dec-449fec3bb81a"
    }
  }, {
    "fullUrl": "https://madie.cms.gov/Practitioner/7f1f6633-aa22-4588-b28a-ccaff26eb64d",
    "resource": {
      "resourceType": "Practitioner",
      "id": "7f1f6633-aa22-4588-b28a-ccaff26eb64d",
      "meta": {
        "profile": [ "http://hl7.org/fhir/us/qicore/StructureDefinition/qicore-practitioner" ]
      },
      "identifier": [ {
        "system": "http://hl7.org/fhir/sid/us-npi",
        "value": "123456"
      } ],
      "name": [ {
        "family": "Evil",
        "prefix": [ "Dr" ]
      } ]
    },
    "request": {
      "method": "PUT",
      "url": "Practitioner/7f1f6633-aa22-4588-b28a-ccaff26eb64d"
    }
  }, {
    "fullUrl": "https://madie.cms.gov/MeasureReport/484abb4b-b611-40bd-8755-20b088250cca",
    "resource": {
      "resourceType": "MeasureReport",
      "id": "484abb4b-b611-40bd-8755-20b088250cca",
      "meta": {
        "profile": [ "http://hl7.org/fhir/us/cqfmeasures/StructureDefinition/test-case-cqfm" ]
      },
      "contained": [ {
        "resourceType": "Parameters",
        "id": "ab8565da-4bd3-4a19-a4ed-b14a8d284f4f-parameters",
        "parameter": [ {
          "name": "subject",
          "valueString": "f29e2786-fade-4dca-b14d-7037a34ef498"
        } ]
      } ],
      "extension": [ {
        "url": "http://hl7.org/fhir/StructureDefinition/cqf-inputParameters",
        "valueReference": {
          "reference": "#ab8565da-4bd3-4a19-a4ed-b14a8d284f4f-parameters"
        }
      }, {
        "url": "http://hl7.org/fhir/us/cqfmeasures/StructureDefinition/cqfm-testCaseDescription",
        "valueMarkdown": "17 yo male with medical reason for not screening for depression - 17 on first day MP"
      } ],
      "modifierExtension": [ {
        "url": "http://hl7.org/fhir/us/cqfmeasures/StructureDefinition/cqfm-isTestCase",
        "valueBoolean": true
      } ],
      "status": "complete",
      "type": "individual",
      "measure": "https://madie.cms.gov/Measure/CMS2FHIRPCSDepressionScreenAndFollowUp",
      "period": {
        "start": "2026-01-01",
        "end": "2026-12-31"
      },
      "group": [ {
        "id": "Group_1",
        "population": [ {
          "id": "InitialPopulation_1",
          "code": {
            "coding": [ {
              "system": "http://terminology.hl7.org/CodeSystem/measure-population",
              "code": "initial-population",
              "display": "Initial Population"
            } ]
          },
          "count": 1
        }, {
          "id": "Denominator_1",
          "code": {
            "coding": [ {
              "system": "http://terminology.hl7.org/CodeSystem/measure-population",
              "code": "denominator",
              "display": "Denominator"
            } ]
          },
          "count": 1
        }, {
          "id": "DenominatorExclusion_1",
          "code": {
            "coding": [ {
              "system": "http://terminology.hl7.org/CodeSystem/measure-population",
              "code": "denominator-exclusion",
              "display": "Denominator Exclusion"
            } ]
          },
          "count": 0
        }, {
          "id": "Numerator_1",
          "code": {
            "coding": [ {
              "system": "http://terminology.hl7.org/CodeSystem/measure-population",
              "code": "numerator",
              "display": "Numerator"
            } ]
          },
          "count": 0
        }, {
          "id": "DenominatorException_1",
          "code": {
            "coding": [ {
              "system": "http://terminology.hl7.org/CodeSystem/measure-population",
              "code": "denominator-exception",
              "display": "Denominator Exception"
            } ]
          },
          "count": 1
        } ],
        "measureScore": {
          "value": 1.0
        }
      } ],
      "evaluatedResource": [ {
        "reference": "Patient/f29e2786-fade-4dca-b14d-7037a34ef498"
      }, {
        "reference": "Encounter/8d9b7bd0-a499-4b85-b30f-c44937e8f050"
      }, {
        "reference": "Observation/b57954da-7038-44ab-a441-394d12524387"
      }, {
        "reference": "Coverage/64195779-3210-45ec-84d9-5dc7590e69e8"
      }, {
        "reference": "Organization/7267dc45-669f-4289-8dec-449fec3bb81a"
      }, {
        "reference": "Practitioner/7f1f6633-aa22-4588-b28a-ccaff26eb64d"
      } ]
    },
    "request": {
      "method": "PUT",
      "url": "MeasureReport/484abb4b-b611-40bd-8755-20b088250cca"
    }
  } ]
}