{
    "entry": [
        {
            "request": {
                "method": "PUT",
                "url": "Patient/d5f7630a-6fcf-4cfc-ba20-dfd5ee88af9a"
            },
            "resource": {
                "identifier": [{
                    "system": "https://bonnie-fhir.healthit.gov/",
                    "type": {"coding": [{
                        "system": "http://terminology.hl7.org/CodeSystem/v2-0203",
                        "code": "MR"
                    }]},
                    "value": "62b1e0cb3968556e5150cf3a"
                }],
                "extension": [
                    {
                        "extension": [
                            {
                                "valueCoding": {
                                    "system": "urn:oid:2.16.840.1.113883.6.238",
                                    "code": "1002-5",
                                    "userSelected": true,
                                    "display": "American Indian or Alaska Native"
                                },
                                "url": "ombCategory"
                            },
                            {
                                "valueString": "American Indian or Alaska Native",
                                "url": "text"
                            }
                        ],
                        "url": "http://hl7.org/fhir/us/core/StructureDefinition/us-core-race"
                    },
                    {
                        "extension": [
                            {
                                "valueCoding": {
                                    "system": "urn:oid:2.16.840.1.113883.6.238",
                                    "code": "2135-2",
                                    "userSelected": true,
                                    "display": "Hispanic or Latino"
                                },
                                "url": "ombCategory"
                            },
                            {
                                "valueString": "Hispanic or Latino",
                                "url": "text"
                            }
                        ],
                        "url": "http://hl7.org/fhir/us/core/StructureDefinition/us-core-ethnicity"
                    }
                ],
                "gender": "male",
                "meta": {"profile": ["http://hl7.org/fhir/us/qicore/StructureDefinition/qicore-patient"]},
                "name": [{
                    "given": ["12yoPosAdolDepScreenandFollowUpPrescription"],
                    "family": "NUMERPass"
                }],
                "id": "d5f7630a-6fcf-4cfc-ba20-dfd5ee88af9a",
                "birthDate": "2014-01-01",
                "resourceType": "Patient"
            },
            "fullUrl": "https://madie.cms.gov/Patient/d5f7630a-6fcf-4cfc-ba20-dfd5ee88af9a"
        },
        {
            "request": {
                "method": "PUT",
                "url": "Encounter/ef2f2525-289a-4934-a88c-3dfea95b790f"
            },
            "resource": {
                "period": {
                    "start": "2026-06-21T08:00:00.000+00:00",
                    "end": "2026-06-21T08:15:00.000+00:00"
                },
                "meta": {"profile": ["http://hl7.org/fhir/us/qicore/StructureDefinition/qicore-encounter"]},
                "subject": {"reference": "Patient/d5f7630a-6fcf-4cfc-ba20-dfd5ee88af9a"},
                "id": "ef2f2525-289a-4934-a88c-3dfea95b790f",
                "type": [{"coding": [{
                    "system": "http://snomed.info/sct",
                    "code": "10197000",
                    "userSelected": true,
                    "display": "Psychiatric interview and evaluation (procedure)",
                    "version": "2021-09"
                }]}],
                "class": {
                    "system": "http://terminology.hl7.org/CodeSystem/v3-ActCode",
                    "code": "AMB",
                    "display": "ambulatory"
                },
                "resourceType": "Encounter",
                "status": "finished"
            },
            "fullUrl": "https://madie.cms.gov/Encounter/ef2f2525-289a-4934-a88c-3dfea95b790f"
        },
        {
            "request": {
                "method": "PUT",
                "url": "Observation/2d921f68-e079-4008-b6b4-d3c2f8b1a99c"
            },
            "resource": {
                "valueCodeableConcept": {"coding": [{
                    "system": "http://snomed.info/sct",
                    "code": "428181000124104",
                    "userSelected": true,
                    "display": "Depression screening positive (finding)"
                }]},
                "code": {"coding": [{
                    "system": "http://loinc.org",
                    "code": "73831-0",
                    "userSelected": true,
                    "display": "Adolescent depression screening assessment"
                }]},
                "effectiveDateTime": "2026-06-15T08:00:00.000+00:00",
                "meta": {"profile": ["http://hl7.org/fhir/us/qicore/StructureDefinition/qicore-observation-screening-assessment"]},
                "subject": {"reference": "Patient/d5f7630a-6fcf-4cfc-ba20-dfd5ee88af9a"},
                "id": "2d921f68-e079-4008-b6b4-d3c2f8b1a99c",
                "category": [{"coding": [{
                    "system": "http://terminology.hl7.org/CodeSystem/observation-category",
                    "code": "procedure",
                    "display": "Procedure"
                }]}],
                "resourceType": "Observation",
                "status": "final"
            },
            "fullUrl": "https://madie.cms.gov/Observation/2d921f68-e079-4008-b6b4-d3c2f8b1a99c"
        },
        {
            "request": {
                "method": "PUT",
                "url": "MedicationRequest/ad466151-fa65-4fcd-9468-0cfa54411c20"
            },
            "resource": {
                "requester": {"reference": "Practitioner/Practitioner-123456"},
                "authoredOn": "2026-06-21T08:00:00.000+00:00",
                "meta": {"profile": ["http://hl7.org/fhir/us/qicore/StructureDefinition/qicore-medicationrequest"]},
                "subject": {"reference": "Patient/d5f7630a-6fcf-4cfc-ba20-dfd5ee88af9a"},
                "id": "ad466151-fa65-4fcd-9468-0cfa54411c20",
                "doNotPerform": false,
                "medicationCodeableConcept": {"coding": [{
                    "system": "http://www.nlm.nih.gov/research/umls/rxnorm",
                    "code": "1190110",
                    "userSelected": true,
                    "display": "fluoxetine 60 MG Oral Tablet"
                }]},
                "intent": "order",
                "resourceType": "MedicationRequest",
                "status": "active"
            },
            "fullUrl": "https://madie.cms.gov/MedicationRequest/ad466151-fa65-4fcd-9468-0cfa54411c20"
        },
        {
            "request": {
                "method": "PUT",
                "url": "Coverage/a4b5b480-cd79-4e7e-823b-18ef572a75d2"
            },
            "resource": {
                "payor": [{"reference": "Organization/f85a7e54-f5ec-432b-b4e5-1100445bb3af"}],
                "beneficiary": {"reference": "Patient/d5f7630a-6fcf-4cfc-ba20-dfd5ee88af9a"},
                "meta": {"profile": ["http://hl7.org/fhir/us/qicore/StructureDefinition/qicore-coverage"]},
                "id": "a4b5b480-cd79-4e7e-823b-18ef572a75d2",
                "resourceType": "Coverage",
                "status": "active"
            },
            "fullUrl": "https://madie.cms.gov/Coverage/a4b5b480-cd79-4e7e-823b-18ef572a75d2"
        },
        {
            "request": {
                "method": "PUT",
                "url": "Organization/f85a7e54-f5ec-432b-b4e5-1100445bb3af"
            },
            "resource": {
                "identifier": [{
                    "system": "urn:oid:2.16.840.1.113883.4.4",
                    "use": "temp",
                    "value": "21-3259825"
                }],
                "address": [{
                    "country": "USA",
                    "city": "Dallas",
                    "use": "billing",
                    "line": ["P.O. Box 660044"],
                    "postalCode": "75266-0044",
                    "state": "TX",
                    "type": "postal"
                }],
                "meta": {"profile": ["http://hl7.org/fhir/us/qicore/StructureDefinition/qicore-organization"]},
                "name": "Blue Cross Blue Shield of Texas",
                "active": true,
                "telecom": [{
                    "system": "phone",
                    "value": "(+1) 972-766-6900"
                }],
                "id": "f85a7e54-f5ec-432b-b4e5-1100445bb3af",
                "type": [{"coding": [{
                    "system": "http://terminology.hl7.org/CodeSystem/organization-type",
                    "code": "pay",
                    "display": "Payer"
                }]}],
                "resourceType": "Organization"
            },
            "fullUrl": "https://madie.cms.gov/Organization/f85a7e54-f5ec-432b-b4e5-1100445bb3af"
        },
        {
            "request": {
                "method": "PUT",
                "url": "Practitioner/2f6ab443-468d-42c8-85f8-43e29b6f1f7c"
            },
            "resource": {
                "identifier": [{
                    "system": "http://hl7.org/fhir/sid/us-npi",
                    "value": "123456"
                }],
                "meta": {"profile": ["http://hl7.org/fhir/us/qicore/StructureDefinition/qicore-practitioner"]},
                "name": [{
                    "prefix": ["Dr"],
                    "family": "Evil"
                }],
                "id": "2f6ab443-468d-42c8-85f8-43e29b6f1f7c",
                "resourceType": "Practitioner"
            },
            "fullUrl": "https://madie.cms.gov/Practitioner/2f6ab443-468d-42c8-85f8-43e29b6f1f7c"
        },
        {
            "request": {
                "method": "PUT",
                "url": "MeasureReport/dc775c56-0e95-4afd-a087-06f3564570c0"
            },
            "resource": {
                "contained": [{
                    "parameter": [{
                        "valueString": "d5f7630a-6fcf-4cfc-ba20-dfd5ee88af9a",
                        "name": "subject"
                    }],
                    "id": "aeee60ac-b817-4478-8333-e1b03eda08bf-parameters",
                    "resourceType": "Parameters"
                }],
                "extension": [
                    {
                        "valueReference": {"reference": "#aeee60ac-b817-4478-8333-e1b03eda08bf-parameters"},
                        "url": "http://hl7.org/fhir/StructureDefinition/cqf-inputParameters"
                    },
                    {
                        "valueMarkdown": "12yo with previous positive adolescent depression screening and medication request follow up",
                        "url": "http://hl7.org/fhir/us/cqfmeasures/StructureDefinition/cqfm-testCaseDescription"
                    }
                ],
                "period": {
                    "start": "2026-01-01",
                    "end": "2026-12-31"
                },
                "measure": "https://madie.cms.gov/Measure/CMS2FHIRPCSDepressionScreenAndFollowUp",
                "meta": {"profile": ["http://hl7.org/fhir/us/cqfmeasures/StructureDefinition/test-case-cqfm"]},
                "modifierExtension": [{
                    "valueBoolean": true,
                    "url": "http://hl7.org/fhir/us/cqfmeasures/StructureDefinition/cqfm-isTestCase"
                }],
                "id": "dc775c56-0e95-4afd-a087-06f3564570c0",
                "evaluatedResource": [
                    {"reference": "Patient/d5f7630a-6fcf-4cfc-ba20-dfd5ee88af9a"},
                    {"reference": "Encounter/ef2f2525-289a-4934-a88c-3dfea95b790f"},
                    {"reference": "Observation/2d921f68-e079-4008-b6b4-d3c2f8b1a99c"},
                    {"reference": "MedicationRequest/ad466151-fa65-4fcd-9468-0cfa54411c20"},
                    {"reference": "Coverage/a4b5b480-cd79-4e7e-823b-18ef572a75d2"},
                    {"reference": "Organization/f85a7e54-f5ec-432b-b4e5-1100445bb3af"},
                    {"reference": "Practitioner/2f6ab443-468d-42c8-85f8-43e29b6f1f7c"}
                ],
                "type": "individual",
                "resourceType": "MeasureReport",
                "status": "complete",
                "group": [{
                    "id": "Group_1",
                    "measureScore": {"value": 1},
                    "population": [
                        {
                            "code": {"coding": [{
                                "system": "http://terminology.hl7.org/CodeSystem/measure-population",
                                "code": "initial-population",
                                "display": "Initial Population"
                            }]},
                            "count": 1,
                            "id": "InitialPopulation_1"
                        },
                        {
                            "code": {"coding": [{
                                "system": "http://terminology.hl7.org/CodeSystem/measure-population",
                                "code": "denominator",
                                "display": "Denominator"
                            }]},
                            "count": 1,
                            "id": "Denominator_1"
                        },
                        {
                            "code": {"coding": [{
                                "system": "http://terminology.hl7.org/CodeSystem/measure-population",
                                "code": "denominator-exclusion",
                                "display": "Denominator Exclusion"
                            }]},
                            "count": 0,
                            "id": "DenominatorExclusion_1"
                        },
                        {
                            "code": {"coding": [{
                                "system": "http://terminology.hl7.org/CodeSystem/measure-population",
                                "code": "numerator",
                                "display": "Numerator"
                            }]},
                            "count": 1,
                            "id": "Numerator_1"
                        },
                        {
                            "code": {"coding": [{
                                "system": "http://terminology.hl7.org/CodeSystem/measure-population",
                                "code": "denominator-exception",
                                "display": "Denominator Exception"
                            }]},
                            "count": 0,
                            "id": "DenominatorException_1"
                        }
                    ]
                }]
            },
            "fullUrl": "https://madie.cms.gov/MeasureReport/dc775c56-0e95-4afd-a087-06f3564570c0"
        }
    ],
    "id": "62b1e0cb3968556e5150cf3a",
    "type": "transaction",
    "resourceType": "Bundle"
}