{
  "resourceType": "Bundle",
  "id": "62b1e0cb3968556e5150cf3a",
  "type": "transaction",
  "entry": [ {
    "fullUrl": "https://madie.cms.gov/Patient/d5f7630a-6fcf-4cfc-ba20-dfd5ee88af9a",
    "resource": {
      "resourceType": "Patient",
      "id": "d5f7630a-6fcf-4cfc-ba20-dfd5ee88af9a",
      "meta": {
        "profile": [ "http://hl7.org/fhir/us/qicore/StructureDefinition/qicore-patient" ]
      },
      "extension": [ {
        "url": "http://hl7.org/fhir/us/core/StructureDefinition/us-core-race",
        "extension": [ {
          "url": "ombCategory",
          "valueCoding": {
            "system": "urn:oid:2.16.840.1.113883.6.238",
            "code": "1002-5",
            "display": "American Indian or Alaska Native",
            "userSelected": true
          }
        }, {
          "url": "text",
          "valueString": "American Indian or Alaska Native"
        } ]
      }, {
        "url": "http://hl7.org/fhir/us/core/StructureDefinition/us-core-ethnicity",
        "extension": [ {
          "url": "ombCategory",
          "valueCoding": {
            "system": "urn:oid:2.16.840.1.113883.6.238",
            "code": "2135-2",
            "display": "Hispanic or Latino",
            "userSelected": true
          }
        }, {
          "url": "text",
          "valueString": "Hispanic or Latino"
        } ]
      } ],
      "identifier": [ {
        "type": {
          "coding": [ {
            "system": "http://terminology.hl7.org/CodeSystem/v2-0203",
            "code": "MR"
          } ]
        },
        "system": "https://bonnie-fhir.healthit.gov/",
        "value": "62b1e0cb3968556e5150cf3a"
      } ],
      "name": [ {
        "family": "NUMERPass",
        "given": [ "12yoPosAdolDepScreenandFollowUpPrescription" ]
      } ],
      "gender": "male",
      "birthDate": "2014-01-01"
    },
    "request": {
      "method": "PUT",
      "url": "Patient/d5f7630a-6fcf-4cfc-ba20-dfd5ee88af9a"
    }
  }, {
    "fullUrl": "https://madie.cms.gov/Encounter/ad6b2f7a-721e-44c8-bb1d-aad71c3a1152",
    "resource": {
      "resourceType": "Encounter",
      "id": "ad6b2f7a-721e-44c8-bb1d-aad71c3a1152",
      "meta": {
        "profile": [ "http://hl7.org/fhir/us/qicore/StructureDefinition/qicore-encounter" ]
      },
      "status": "finished",
      "class": {
        "system": "http://terminology.hl7.org/CodeSystem/v3-ActCode",
        "code": "AMB",
        "display": "ambulatory"
      },
      "type": [ {
        "coding": [ {
          "system": "http://snomed.info/sct",
          "code": "10197000",
          "display": "Psychiatric interview and evaluation (procedure)",
          "userSelected": true
        } ]
      } ],
      "subject": {
        "reference": "Patient/d5f7630a-6fcf-4cfc-ba20-dfd5ee88af9a"
      },
      "period": {
        "start": "2026-06-21T08:00:00Z",
        "end": "2026-06-21T08:15:00Z"
      }
    },
    "request": {
      "method": "PUT",
      "url": "Encounter/ad6b2f7a-721e-44c8-bb1d-aad71c3a1152"
    }
  }, {
    "fullUrl": "https://madie.cms.gov/Observation/92cd0447-3cc7-4269-ae49-c3023183eb5e",
    "resource": {
      "resourceType": "Observation",
      "id": "92cd0447-3cc7-4269-ae49-c3023183eb5e",
      "meta": {
        "profile": [ "http://hl7.org/fhir/us/qicore/StructureDefinition/qicore-observation-screening-assessment" ]
      },
      "status": "final",
      "category": [ {
        "coding": [ {
          "system": "http://terminology.hl7.org/CodeSystem/observation-category",
          "code": "procedure",
          "display": "Procedure"
        } ]
      }, {
        "coding": [ {
          "system": "http://terminology.hl7.org/CodeSystem/observation-category",
          "code": "survey",
          "display": "Survey"
        } ]
      } ],
      "code": {
        "coding": [ {
          "system": "http://loinc.org",
          "code": "73831-0",
          "display": "Adolescent depression screening assessment",
          "userSelected": true
        } ]
      },
      "subject": {
        "reference": "Patient/d5f7630a-6fcf-4cfc-ba20-dfd5ee88af9a"
      },
      "effectiveDateTime": "2026-06-15T08:00:00Z",
      "valueCodeableConcept": {
        "coding": [ {
          "system": "http://snomed.info/sct",
          "code": "428181000124104",
          "display": "Depression screening positive (finding)",
          "userSelected": true
        } ]
      }
    },
    "request": {
      "method": "PUT",
      "url": "Observation/92cd0447-3cc7-4269-ae49-c3023183eb5e"
    }
  }, {
    "fullUrl": "https://madie.cms.gov/MedicationRequest/0609c55c-e164-41e7-9888-4638351bdfdc",
    "resource": {
      "resourceType": "MedicationRequest",
      "id": "0609c55c-e164-41e7-9888-4638351bdfdc",
      "meta": {
        "profile": [ "http://hl7.org/fhir/us/qicore/StructureDefinition/qicore-medicationrequest" ]
      },
      "status": "active",
      "intent": "order",
      "doNotPerform": false,
      "medicationCodeableConcept": {
        "coding": [ {
          "system": "http://www.nlm.nih.gov/research/umls/rxnorm",
          "code": "1190110",
          "display": "fluoxetine 60 MG Oral Tablet",
          "userSelected": true
        } ]
      },
      "subject": {
        "reference": "Patient/d5f7630a-6fcf-4cfc-ba20-dfd5ee88af9a"
      },
      "authoredOn": "2026-06-21T08:00:00Z",
      "requester": {
        "reference": "Practitioner/123456"
      },
      "dispenseRequest": {
        "expectedSupplyDuration": {
          "value": 30,
          "system": "http://unitsofmeasure.org",
          "code": "days"
        }
      }
    },
    "request": {
      "method": "PUT",
      "url": "MedicationRequest/0609c55c-e164-41e7-9888-4638351bdfdc"
    }
  }, {
    "fullUrl": "https://madie.cms.gov/Coverage/07f2696f-4dc9-4425-b9fc-c21610b481a5",
    "resource": {
      "resourceType": "Coverage",
      "id": "07f2696f-4dc9-4425-b9fc-c21610b481a5",
      "meta": {
        "profile": [ "http://hl7.org/fhir/us/qicore/StructureDefinition/qicore-coverage" ]
      },
      "status": "active",
      "subscriberId": "123456789",
      "beneficiary": {
        "reference": "Patient/d5f7630a-6fcf-4cfc-ba20-dfd5ee88af9a"
      },
      "relationship": {
        "coding": [ {
          "system": "http://terminology.hl7.org/CodeSystem/subscriber-relationship",
          "code": "self",
          "display": "Self",
          "userSelected": true
        } ]
      },
      "payor": [ {
        "reference": "Organization/61027e8f-22b2-4d0e-bc70-f72ee6e1ba55"
      } ]
    },
    "request": {
      "method": "PUT",
      "url": "Coverage/07f2696f-4dc9-4425-b9fc-c21610b481a5"
    }
  }, {
    "fullUrl": "https://madie.cms.gov/Organization/61027e8f-22b2-4d0e-bc70-f72ee6e1ba55",
    "resource": {
      "resourceType": "Organization",
      "id": "61027e8f-22b2-4d0e-bc70-f72ee6e1ba55",
      "meta": {
        "profile": [ "http://hl7.org/fhir/us/qicore/StructureDefinition/qicore-organization" ]
      },
      "identifier": [ {
        "use": "temp",
        "system": "urn:oid:2.16.840.1.113883.4.4",
        "value": "21-3259825"
      } ],
      "active": true,
      "type": [ {
        "coding": [ {
          "system": "http://terminology.hl7.org/CodeSystem/organization-type",
          "code": "pay",
          "display": "Payer"
        } ]
      } ],
      "name": "Blue Cross Blue Shield of Texas",
      "telecom": [ {
        "system": "phone",
        "value": "(+1) 972-766-6900"
      } ],
      "address": [ {
        "use": "billing",
        "type": "postal",
        "line": [ "P.O. Box 660044" ],
        "city": "Dallas",
        "state": "TX",
        "postalCode": "75266-0044",
        "country": "USA"
      } ]
    },
    "request": {
      "method": "PUT",
      "url": "Organization/61027e8f-22b2-4d0e-bc70-f72ee6e1ba55"
    }
  }, {
    "fullUrl": "https://madie.cms.gov/Practitioner/41265445-f6f2-4930-82e8-7e3b881cea5d",
    "resource": {
      "resourceType": "Practitioner",
      "id": "41265445-f6f2-4930-82e8-7e3b881cea5d",
      "meta": {
        "profile": [ "http://hl7.org/fhir/us/qicore/StructureDefinition/qicore-practitioner" ]
      },
      "identifier": [ {
        "system": "http://hl7.org/fhir/sid/us-npi",
        "value": "1234567893"
      } ],
      "name": [ {
        "family": "Evil",
        "prefix": [ "Dr" ]
      } ]
    },
    "request": {
      "method": "PUT",
      "url": "Practitioner/41265445-f6f2-4930-82e8-7e3b881cea5d"
    }
  }, {
    "fullUrl": "https://madie.cms.gov/MeasureReport/766570f0-b7cb-4605-8bc9-88d9fd3309e8",
    "resource": {
      "resourceType": "MeasureReport",
      "id": "766570f0-b7cb-4605-8bc9-88d9fd3309e8",
      "meta": {
        "profile": [ "http://hl7.org/fhir/us/cqfmeasures/StructureDefinition/test-case-cqfm" ]
      },
      "contained": [ {
        "resourceType": "Parameters",
        "id": "5865e225-159a-4ae0-9c95-21883a2956eb-parameters",
        "parameter": [ {
          "name": "subject",
          "valueString": "d5f7630a-6fcf-4cfc-ba20-dfd5ee88af9a"
        } ]
      } ],
      "extension": [ {
        "url": "http://hl7.org/fhir/StructureDefinition/cqf-inputParameters",
        "valueReference": {
          "reference": "#5865e225-159a-4ae0-9c95-21883a2956eb-parameters"
        }
      }, {
        "url": "http://hl7.org/fhir/us/cqfmeasures/StructureDefinition/cqfm-testCaseDescription",
        "valueMarkdown": "12yo with previous positive adolescent depression screening and medication request follow up"
      } ],
      "modifierExtension": [ {
        "url": "http://hl7.org/fhir/us/cqfmeasures/StructureDefinition/cqfm-isTestCase",
        "valueBoolean": true
      } ],
      "status": "complete",
      "type": "individual",
      "measure": "https://madie.cms.gov/Measure/CMS2FHIRPCSDepressionScreenAndFollowUp",
      "period": {
        "start": "2026-01-01",
        "end": "2026-12-31"
      },
      "group": [ {
        "id": "Group_1",
        "population": [ {
          "id": "InitialPopulation_1",
          "code": {
            "coding": [ {
              "system": "http://terminology.hl7.org/CodeSystem/measure-population",
              "code": "initial-population",
              "display": "Initial Population"
            } ]
          },
          "count": 1
        }, {
          "id": "Denominator_1",
          "code": {
            "coding": [ {
              "system": "http://terminology.hl7.org/CodeSystem/measure-population",
              "code": "denominator",
              "display": "Denominator"
            } ]
          },
          "count": 1
        }, {
          "id": "DenominatorExclusion_1",
          "code": {
            "coding": [ {
              "system": "http://terminology.hl7.org/CodeSystem/measure-population",
              "code": "denominator-exclusion",
              "display": "Denominator Exclusion"
            } ]
          },
          "count": 0
        }, {
          "id": "Numerator_1",
          "code": {
            "coding": [ {
              "system": "http://terminology.hl7.org/CodeSystem/measure-population",
              "code": "numerator",
              "display": "Numerator"
            } ]
          },
          "count": 1
        }, {
          "id": "DenominatorException_1",
          "code": {
            "coding": [ {
              "system": "http://terminology.hl7.org/CodeSystem/measure-population",
              "code": "denominator-exception",
              "display": "Denominator Exception"
            } ]
          },
          "count": 0
        } ],
        "measureScore": {
          "value": 1.0
        }
      } ],
      "evaluatedResource": [ {
        "reference": "Patient/d5f7630a-6fcf-4cfc-ba20-dfd5ee88af9a"
      }, {
        "reference": "Encounter/ad6b2f7a-721e-44c8-bb1d-aad71c3a1152"
      }, {
        "reference": "Observation/92cd0447-3cc7-4269-ae49-c3023183eb5e"
      }, {
        "reference": "MedicationRequest/0609c55c-e164-41e7-9888-4638351bdfdc"
      }, {
        "reference": "Coverage/07f2696f-4dc9-4425-b9fc-c21610b481a5"
      }, {
        "reference": "Organization/61027e8f-22b2-4d0e-bc70-f72ee6e1ba55"
      }, {
        "reference": "Practitioner/41265445-f6f2-4930-82e8-7e3b881cea5d"
      } ]
    },
    "request": {
      "method": "PUT",
      "url": "MeasureReport/766570f0-b7cb-4605-8bc9-88d9fd3309e8"
    }
  } ]
}