{
  "resourceType": "Library",
  "id": "Manifest-Release-2025",
  "meta": {
    "versionId": "2",
    "lastUpdated": "2025-05-06T11:35:11.402-06:00",
    "source": "#pBNzD63szI9GsCTT",
    "profile": [ "http://hl7.org/fhir/uv/crmi/StructureDefinition/crmi-manifestlibrary" ]
  },
  "contained": [ {
    "resourceType": "Parameters",
    "id": "exp-params",
    "parameter": [ {
      "name": "system-version",
      "valueUri": "http://snomed.info/sct|http://snomed.info/sct/731000124108/version/20230901"
    }, {
      "name": "system-version",
      "valueUri": "http://loinc.org|2.76"
    }, {
      "name": "system-version",
      "valueUri": "http://terminology.hl7.org/CodeSystem/v3-ActCode|9.0.0"
    }, {
      "name": "system-version",
      "valueUri": "http://terminology.hl7.org/CodeSystem/v3-AdministrativeGender|3.0.0"
    }, {
      "name": "system-version",
      "valueUri": "http://terminology.hl7.org/CodeSystem/CD2|2.0.1"
    }, {
      "name": "system-version",
      "valueUri": "urn:oid:2.16.840.1.113883.6.238|1.2"
    }, {
      "name": "system-version",
      "valueUri": "http://www.ama-assn.org/go/cpt|3.0.1"
    }, {
      "name": "system-version",
      "valueUri": "http://hl7.org/fhir/sid/cvx|4.0.0"
    }, {
      "name": "system-version",
      "valueUri": "http://terminology.hl7.org/CodeSystem/HCPCS-all-codes|3.0.0"
    }, {
      "name": "system-version",
      "valueUri": "http://www.cms.gov/Medicare/Coding/HCPCSReleaseCodeSets|1.0.2"
    }, {
      "name": "system-version",
      "valueUri": "http://hl7.org/fhir/sid/icd-10-cm|2.0.1"
    }, {
      "name": "system-version",
      "valueUri": "http://www.cms.gov/Medicare/Coding/ICD10|2.0.1"
    }, {
      "name": "system-version",
      "valueUri": "http://terminology.hl7.org/CodeSystem/icd9cm|2.0.1"
    }, {
      "name": "system-version",
      "valueUri": "http://terminology.hl7.org/CodeSystem/v2-0895|2.2.0"
    }, {
      "name": "system-version",
      "valueUri": "http://www.nlm.nih.gov/research/umls/rxnorm|3.0.1"
    }, {
      "name": "system-version",
      "valueUri": "https://nahdo.org/sopt|1.0.1"
    } ]
  }, {
    "resourceType": "Parameters",
    "id": "endpoints",
    "parameter": [ {
      "name": "artifactEndpointConfiguration",
      "part": [ {
        "name": "artifactRoute",
        "valueUri": "http://cts.nlm.nih.gov/fhir/ValueSet/2.16.840.1.113883.3.464.1003.1167|20220820"
      }, {
        "name": "endpointUri",
        "valueUri": "https://example.org/fhir/"
      } ]
    }, {
      "name": "artifactEndpointConfiguration",
      "part": [ {
        "name": "artifactRoute",
        "valueUri": "http://cts.nlm.nih.gov/fhir/"
      }, {
        "name": "endpointUri",
        "valueUri": "https://uat-cts.nlm.nih.gov/fhir/"
      } ]
    }, {
      "name": "artifactEndpointConfiguration",
      "part": [ {
        "name": "artifactRoute",
        "valueUri": "http://terminology.hl7.org/"
      }, {
        "name": "endpointUri",
        "valueUri": "https://tx.fhir.org/r4/"
      } ]
    }, {
      "name": "artifactEndpointConfiguration",
      "part": [ {
        "name": "artifactRoute",
        "valueUri": "http://hl7.org/fhir/"
      }, {
        "name": "endpointUri",
        "valueUri": "https://tx.fhir.org/r4/"
      } ]
    } ]
  } ],
  "extension": [ {
    "url": "http://hl7.org/fhir/StructureDefinition/cqf-expansionParameters",
    "valueReference": {
      "reference": "#exp-params"
    }
  }, {
    "url": "http://hl7.org/fhir/StructureDefinition/cqf-endpointConfiguration",
    "valueReference": {
      "reference": "#endpoints"
    }
  }, {
    "url": "http://hl7.org/fhir/us/cqfmeasures/StructureDefinition/cqfm-softwaresystem",
    "valueReference": {
      "reference": "Device/cqf-tooling"
    }
  } ],
  "url": "http://hl7.org/fhir/us/cqfmeasures/Library/ecqm-update-qi-core-2025",
  "identifier": [ {
    "use": "official",
    "system": "http://example.org/fhir/cqi/ecqm/Library/Identifier",
    "value": "eCQM Update QI Core 2025"
  } ],
  "version": "1.1.1",
  "name": "ECQMUpdateQICore2025",
  "title": "eCQM Update QI Core 2025",
  "status": "active",
  "experimental": true,
  "type": {
    "coding": [ {
      "system": "http://terminology.hl7.org/CodeSystem/library-type",
      "code": "asset-collection"
    } ]
  },
  "date": "2025-05-06T11:28:52-06:00",
  "publisher": "Clinical Quality Information WG",
  "contact": [ {
    "telecom": [ {
      "system": "url",
      "value": "http://www.hl7.org/Special/committees/cqi"
    } ]
  } ],
  "description": "This library is an example final draft of a version manifest (also referred to as an expansion profile) that specifies expansion rules for a set of value sets used for an example set of EP/EC measures.",
  "jurisdiction": [ {
    "coding": [ {
      "system": "urn:iso:std:iso:3166",
      "code": "US"
    } ]
  } ],
  "purpose": "This library is defined to illustrate a Version Manifest in final draft status, as it would look at the end of an eCQM Annual Update cycle, approved on April 23rd, 2024. The latest available version of code systems used at that time is specified to provide stability for value set expansion during the testing and implementation phase. Terminology.HL7.org, in particular, was version 5.5.0 at the time, and FHIR code system versions are chosen from that release.",
  "approvalDate": "2025-05-06",
  "lastReviewDate": "2025-05-06",
  "relatedArtifact": [ {
    "type": "composed-of",
    "display": "Measure Preventive Care and Screening: Screening for Depression and Follow-Up PlanFHIR, 0.4.000",
    "resource": "https://madie.cms.gov/Measure/CMS2FHIRPCSDepressionScreenAndFollowUp|0.4.000"
  }, {
    "type": "composed-of",
    "display": "Measure Preventive Care and Screening: Screening for High Blood Pressure and Follow-Up DocumentedFHIR, 0.3.000",
    "resource": "https://madie.cms.gov/Measure/CMS22FHIRPCSBPScreeningFollowUp|0.3.000"
  }, {
    "type": "composed-of",
    "display": "Measure Closing the Referral Loop: Receipt of Specialist ReportFHIR, 0.4.000",
    "resource": "https://madie.cms.gov/Measure/CMS50FHIRCRLReceiptofSpecialistReport|0.4.000"
  }, {
    "type": "composed-of",
    "display": "Measure Functional Status Assessment for Total Hip ReplacementFHIR, 1.1.000",
    "resource": "https://madie.cms.gov/Measure/CMS56FHIRFunctionalStatusAssessmentforTotalHipReplacement|1.1.000"
  }, {
    "type": "composed-of",
    "display": "Measure Documentation of Current Medications in the Medical RecordFHIR, 0.3.000",
    "resource": "https://madie.cms.gov/Measure/CMS68FHIRDocumentationofCurrentMedications|0.3.000"
  }, {
    "type": "composed-of",
    "display": "Measure Preventive Care and Screening: Body Mass Index (BMI) Screening and Follow-Up PlanFHIR, 0.3.000",
    "resource": "https://madie.cms.gov/Measure/CMS69FHIRPCSBMIScreenAndFollowUp|0.3.000"
  }, {
    "type": "composed-of",
    "display": "Measure Primary Caries Prevention Intervention as Offered by DentistsFHIR, 1.1.000",
    "resource": "https://madie.cms.gov/Measure/CMS74FHIRPrimaryCariesPreventionasOfferedbyDentists|1.1.000"
  }, {
    "type": "composed-of",
    "display": "Measure Children Who Have Dental Decay or CavitiesFHIR, 1.1.000",
    "resource": "https://madie.cms.gov/Measure/CMS75FHIRChildrenWhoHaveDentalDecayOrCavities|1.1.000"
  }, {
    "type": "composed-of",
    "display": "Measure Childhood Immunization StatusFHIR, 0.3.000",
    "resource": "https://madie.cms.gov/Measure/CMS117FHIRChildhoodImmunizationStatus|0.3.000"
  }, {
    "type": "composed-of",
    "display": "Measure Antidepressant Medication ManagementFHIR, 0.3.000",
    "resource": "https://madie.cms.gov/Measure/CMS128FHIRAntidepressantMedManagement|0.3.000"
  }, {
    "type": "composed-of",
    "display": "Measure Cataracts: 20/40 or Better Visual Acuity within 90 Days Following Cataract SurgeryFHIR, 0.2.000",
    "resource": "https://madie.cms.gov/Measure/CMS133FHIRCataracts2040BCVAwithin90Days|0.2.000"
  }, {
    "type": "composed-of",
    "display": "Measure Heart Failure (HF): Angiotensin-Converting Enzyme (ACE) Inhibitor or Angiotensin Receptor Blocker (ARB) or Angiotensin Receptor-Neprilysin Inhibitor (ARNI) Therapy for Left Ventricular Systolic Dysfunction (LVSD)FHIR, 0.4.000",
    "resource": "https://madie.cms.gov/Measure/CMS135FHIRHFACEIorARBorARNIforLVSD|0.4.000"
  }, {
    "type": "depends-on",
    "display": "Measure Preventive Care and Screening: Screening for Depression and Follow-Up PlanFHIR, 0.4.000",
    "resource": "https://madie.cms.gov/Measure/CMS2FHIRPCSDepressionScreenAndFollowUp|0.4.000"
  }, {
    "type": "depends-on",
    "display": "Measure Preventive Care and Screening: Screening for High Blood Pressure and Follow-Up DocumentedFHIR, 0.3.000",
    "resource": "https://madie.cms.gov/Measure/CMS22FHIRPCSBPScreeningFollowUp|0.3.000"
  }, {
    "type": "depends-on",
    "display": "Measure Closing the Referral Loop: Receipt of Specialist ReportFHIR, 0.4.000",
    "resource": "https://madie.cms.gov/Measure/CMS50FHIRCRLReceiptofSpecialistReport|0.4.000"
  }, {
    "type": "depends-on",
    "display": "Measure Functional Status Assessment for Total Hip ReplacementFHIR, 1.1.000",
    "resource": "https://madie.cms.gov/Measure/CMS56FHIRFunctionalStatusAssessmentforTotalHipReplacement|1.1.000"
  }, {
    "type": "depends-on",
    "display": "Measure Documentation of Current Medications in the Medical RecordFHIR, 0.3.000",
    "resource": "https://madie.cms.gov/Measure/CMS68FHIRDocumentationofCurrentMedications|0.3.000"
  }, {
    "type": "depends-on",
    "display": "Measure Preventive Care and Screening: Body Mass Index (BMI) Screening and Follow-Up PlanFHIR, 0.3.000",
    "resource": "https://madie.cms.gov/Measure/CMS69FHIRPCSBMIScreenAndFollowUp|0.3.000"
  }, {
    "type": "depends-on",
    "display": "Measure Primary Caries Prevention Intervention as Offered by DentistsFHIR, 1.1.000",
    "resource": "https://madie.cms.gov/Measure/CMS74FHIRPrimaryCariesPreventionasOfferedbyDentists|1.1.000"
  }, {
    "type": "depends-on",
    "display": "Measure Children Who Have Dental Decay or CavitiesFHIR, 1.1.000",
    "resource": "https://madie.cms.gov/Measure/CMS75FHIRChildrenWhoHaveDentalDecayOrCavities|1.1.000"
  }, {
    "type": "depends-on",
    "display": "Measure Childhood Immunization StatusFHIR, 0.3.000",
    "resource": "https://madie.cms.gov/Measure/CMS117FHIRChildhoodImmunizationStatus|0.3.000"
  }, {
    "type": "depends-on",
    "display": "Measure Antidepressant Medication ManagementFHIR, 0.3.000",
    "resource": "https://madie.cms.gov/Measure/CMS128FHIRAntidepressantMedManagement|0.3.000"
  }, {
    "type": "depends-on",
    "display": "Measure Cataracts: 20/40 or Better Visual Acuity within 90 Days Following Cataract SurgeryFHIR, 0.2.000",
    "resource": "https://madie.cms.gov/Measure/CMS133FHIRCataracts2040BCVAwithin90Days|0.2.000"
  }, {
    "type": "depends-on",
    "display": "Measure Heart Failure (HF): Angiotensin-Converting Enzyme (ACE) Inhibitor or Angiotensin Receptor Blocker (ARB) or Angiotensin Receptor-Neprilysin Inhibitor (ARNI) Therapy for Left Ventricular Systolic Dysfunction (LVSD)FHIR, 0.4.000",
    "resource": "https://madie.cms.gov/Measure/CMS135FHIRHFACEIorARBorARNIforLVSD|0.4.000"
  }, {
    "type": "depends-on",
    "resource": "http://hl7.org/fhir/us/cqfmeasures/StructureDefinition/computable-measure-cqfm"
  }, {
    "type": "depends-on",
    "resource": "http://hl7.org/fhir/us/cqfmeasures/StructureDefinition/cql-measure-cqfm"
  }, {
    "type": "depends-on",
    "resource": "http://hl7.org/fhir/us/cqfmeasures/StructureDefinition/elm-measure-cqfm"
  }, {
    "type": "depends-on",
    "resource": "http://hl7.org/fhir/us/cqfmeasures/StructureDefinition/executable-measure-cqfm"
  }, {
    "type": "depends-on",
    "resource": "http://hl7.org/fhir/us/cqfmeasures/StructureDefinition/proportion-measure-cqfm"
  }, {
    "type": "depends-on",
    "resource": "http://hl7.org/fhir/us/cqfmeasures/StructureDefinition/publishable-measure-cqfm"
  }, {
    "type": "depends-on",
    "resource": "http://hl7.org/fhir/uv/crmi/StructureDefinition/crmi-shareablemeasure"
  }, {
    "type": "depends-on",
    "resource": "http://hl7.org/fhir/uv/cql/StructureDefinition/cql-library"
  }, {
    "type": "depends-on",
    "resource": "http://hl7.org/fhir/uv/cql/StructureDefinition/elm-json-library"
  }, {
    "type": "depends-on",
    "resource": "http://hl7.org/fhir/uv/cql/StructureDefinition/elm-xml-library"
  }, {
    "type": "depends-on",
    "resource": "http://hl7.org/fhir/uv/crmi/StructureDefinition/crmi-computablelibrary"
  }, {
    "type": "depends-on",
    "resource": "http://hl7.org/fhir/uv/crmi/StructureDefinition/crmi-executablelibrary"
  }, {
    "type": "depends-on",
    "resource": "http://hl7.org/fhir/uv/crmi/StructureDefinition/crmi-publishablelibrary"
  }, {
    "type": "depends-on",
    "resource": "http://hl7.org/fhir/uv/crmi/StructureDefinition/crmi-shareablelibrary"
  }, {
    "type": "depends-on",
    "resource": "http://hl7.org/fhir/Library/QICore-ModelInfo"
  }, {
    "type": "depends-on",
    "resource": "http://ecqi.healthit.gov/ecqms/Library/FHIRHelpers|4.4.000"
  }, {
    "type": "depends-on",
    "resource": "http://ecqi.healthit.gov/ecqms/Library/QICoreCommon|4.0.000"
  }, {
    "type": "depends-on",
    "resource": "http://ecqi.healthit.gov/ecqms/Library/CumulativeMedicationDuration|6.0.000"
  }, {
    "type": "depends-on",
    "resource": "http://ecqi.healthit.gov/ecqms/Library/SupplementalDataElements|5.1.000"
  }, {
    "type": "depends-on",
    "resource": "http://loinc.org|2.76"
  }, {
    "type": "depends-on",
    "resource": "http://snomed.info/sct|http://snomed.info/sct/731000124108/version/20230901"
  }, {
    "type": "depends-on",
    "resource": "http://hl7.org/fhir/StructureDefinition/shareablevalueset"
  }, {
    "type": "depends-on",
    "resource": "http://hl7.org/fhir/us/cqfmeasures/StructureDefinition/computable-valueset-cqfm"
  }, {
    "type": "depends-on",
    "resource": "http://hl7.org/fhir/us/cqfmeasures/StructureDefinition/publishable-valueset-cqfm"
  }, {
    "type": "depends-on",
    "resource": "http://www.nlm.nih.gov/research/umls/rxnorm|3.0.1"
  }, {
    "type": "depends-on",
    "display": "ValueSet Adolescent Depression Medications, 20230216",
    "resource": "http://cts.nlm.nih.gov/fhir/ValueSet/2.16.840.1.113883.3.600.469|20230216"
  }, {
    "type": "depends-on",
    "display": "ValueSet Adolescent Depression Medications, 20210220",
    "resource": "http://cts.nlm.nih.gov/fhir/ValueSet/2.16.840.1.113883.3.526.3.1567|20210220"
  }, {
    "type": "depends-on",
    "display": "ValueSet Adult Depression Medications, 20240202",
    "resource": "http://cts.nlm.nih.gov/fhir/ValueSet/2.16.840.1.113883.3.600.470|20240202"
  }, {
    "type": "depends-on",
    "display": "ValueSet Adult Depression Medications, 20210220",
    "resource": "http://cts.nlm.nih.gov/fhir/ValueSet/2.16.840.1.113883.3.526.3.1566|20210220"
  }, {
    "type": "depends-on",
    "resource": "http://hl7.org/fhir/sid/icd-10-cm|2.0.1"
  }, {
    "type": "depends-on",
    "display": "ValueSet Bipolar Disorder, 20220219",
    "resource": "http://cts.nlm.nih.gov/fhir/ValueSet/2.16.840.1.113883.3.67.1.101.1.45|20220219"
  }, {
    "type": "depends-on",
    "display": "ValueSet Bipolar Disorder, 20250208",
    "resource": "http://cts.nlm.nih.gov/fhir/ValueSet/2.16.840.1.113883.3.67.1.101.1.44|20250208"
  }, {
    "type": "depends-on",
    "display": "ValueSet Bipolar Disorder, 20240214",
    "resource": "http://cts.nlm.nih.gov/fhir/ValueSet/2.16.840.1.113883.3.67.1.101.1.128|20240214"
  }, {
    "type": "depends-on",
    "resource": "http://www.cms.gov/Medicare/Coding/HCPCSReleaseCodeSets|1.0.2"
  }, {
    "type": "depends-on",
    "display": "ValueSet Encounter to Screen for Depression, 20230216",
    "resource": "http://cts.nlm.nih.gov/fhir/ValueSet/2.16.840.1.113883.3.600.1915|20230216"
  }, {
    "type": "depends-on",
    "resource": "http://www.ama-assn.org/go/cpt|3.0.1"
  }, {
    "type": "depends-on",
    "display": "ValueSet Preventive Care Services Established Office Visit, 18 and Up, 20170504",
    "resource": "http://cts.nlm.nih.gov/fhir/ValueSet/2.16.840.1.113883.3.464.1003.101.11.1125|20170504"
  }, {
    "type": "depends-on",
    "display": "ValueSet Encounter to Screen for Depression, 20250205",
    "resource": "http://cts.nlm.nih.gov/fhir/ValueSet/2.16.840.1.113883.3.600.1538|20250205"
  }, {
    "type": "depends-on",
    "display": "ValueSet Encounter to Screen for Depression, 20200307",
    "resource": "http://cts.nlm.nih.gov/fhir/ValueSet/2.16.840.1.113883.3.600.1914|20200307"
  }, {
    "type": "depends-on",
    "display": "ValueSet Preventive Care Services Initial Office Visit, 18 and Up, 20170504",
    "resource": "http://cts.nlm.nih.gov/fhir/ValueSet/2.16.840.1.113883.3.464.1003.101.11.1115|20170504"
  }, {
    "type": "depends-on",
    "display": "ValueSet Encounter to Screen for Depression, 20210220",
    "resource": "http://cts.nlm.nih.gov/fhir/ValueSet/2.16.840.1.113883.3.600.1916|20210220"
  }, {
    "type": "depends-on",
    "display": "ValueSet Follow Up for Adolescent Depression, 20240125",
    "resource": "http://cts.nlm.nih.gov/fhir/ValueSet/2.16.840.1.113883.3.600.467|20240125"
  }, {
    "type": "depends-on",
    "display": "ValueSet Follow Up for Adolescent Depression, 20210220",
    "resource": "http://cts.nlm.nih.gov/fhir/ValueSet/2.16.840.1.113883.3.526.3.1569|20210220"
  }, {
    "type": "depends-on",
    "display": "ValueSet Follow Up for Adult Depression, 20240125",
    "resource": "http://cts.nlm.nih.gov/fhir/ValueSet/2.16.840.1.113883.3.600.468|20240125"
  }, {
    "type": "depends-on",
    "display": "ValueSet Follow Up for Adult Depression, 20210220",
    "resource": "http://cts.nlm.nih.gov/fhir/ValueSet/2.16.840.1.113883.3.526.3.1568|20210220"
  }, {
    "type": "depends-on",
    "display": "ValueSet Medical Reason, 20220226",
    "resource": "http://cts.nlm.nih.gov/fhir/ValueSet/2.16.840.1.113883.3.526.2.313|20220226"
  }, {
    "type": "depends-on",
    "display": "ValueSet Medical Reason, 20170504",
    "resource": "http://cts.nlm.nih.gov/fhir/ValueSet/2.16.840.1.113883.3.526.3.1007|20170504"
  }, {
    "type": "depends-on",
    "display": "ValueSet Physical Therapy Evaluation, 20240207",
    "resource": "http://cts.nlm.nih.gov/fhir/ValueSet/2.16.840.1.113883.3.526.2.1782|20240207"
  }, {
    "type": "depends-on",
    "display": "ValueSet Physical Therapy Evaluation, 20210909",
    "resource": "http://cts.nlm.nih.gov/fhir/ValueSet/2.16.840.1.113883.3.526.2.1062|20210909"
  }, {
    "type": "depends-on",
    "display": "ValueSet Physical Therapy Evaluation, 20200306",
    "resource": "http://cts.nlm.nih.gov/fhir/ValueSet/2.16.840.1.113883.3.526.3.1022|20200306"
  }, {
    "type": "depends-on",
    "display": "ValueSet Referral for Adolescent Depression, 20230216",
    "resource": "http://cts.nlm.nih.gov/fhir/ValueSet/2.16.840.1.113883.3.600.537|20230216"
  }, {
    "type": "depends-on",
    "display": "ValueSet Referral for Adolescent Depression, 20200307",
    "resource": "http://cts.nlm.nih.gov/fhir/ValueSet/2.16.840.1.113883.3.526.3.1570|20200307"
  }, {
    "type": "depends-on",
    "display": "ValueSet Referral for Adult Depression, 20230216",
    "resource": "http://cts.nlm.nih.gov/fhir/ValueSet/2.16.840.1.113883.3.600.538|20230216"
  }, {
    "type": "depends-on",
    "display": "ValueSet Referral for Adult Depression, 20200307",
    "resource": "http://cts.nlm.nih.gov/fhir/ValueSet/2.16.840.1.113883.3.526.3.1571|20200307"
  }, {
    "type": "depends-on",
    "display": "ValueSet Telephone Visits, 20250205",
    "resource": "http://cts.nlm.nih.gov/fhir/ValueSet/2.16.840.1.113883.3.464.1003.101.11.1260|20250205"
  }, {
    "type": "depends-on",
    "display": "ValueSet Telephone Visits, 20210220",
    "resource": "http://cts.nlm.nih.gov/fhir/ValueSet/2.16.840.1.113883.3.464.1003.101.11.1287|20210220"
  }, {
    "type": "depends-on",
    "display": "ValueSet Telephone Visits, 20250205",
    "resource": "http://cts.nlm.nih.gov/fhir/ValueSet/2.16.840.1.113883.3.464.1003.101.12.1080|20250205"
  }, {
    "type": "depends-on",
    "resource": "https://nahdo.org/sopt|1.0.1"
  }, {
    "type": "depends-on",
    "display": "ValueSet Payer Type, 20250419",
    "resource": "http://cts.nlm.nih.gov/fhir/ValueSet/2.16.840.1.114222.4.11.3591|20250419"
  }, {
    "type": "depends-on",
    "resource": "http://hl7.org/fhir/us/qicore/StructureDefinition/qicore-patient"
  }, {
    "type": "depends-on",
    "resource": "http://hl7.org/fhir/us/qicore/StructureDefinition/qicore-encounter"
  }, {
    "type": "depends-on",
    "resource": "http://hl7.org/fhir/us/qicore/StructureDefinition/qicore-condition-problems-health-concerns"
  }, {
    "type": "depends-on",
    "resource": "http://hl7.org/fhir/us/qicore/StructureDefinition/qicore-observation-screening-assessment"
  }, {
    "type": "depends-on",
    "resource": "http://hl7.org/fhir/us/qicore/StructureDefinition/qicore-medicationrequest"
  }, {
    "type": "depends-on",
    "resource": "http://hl7.org/fhir/us/qicore/StructureDefinition/qicore-medication"
  }, {
    "type": "depends-on",
    "resource": "http://hl7.org/fhir/us/qicore/StructureDefinition/qicore-servicerequest"
  }, {
    "type": "depends-on",
    "resource": "http://hl7.org/fhir/us/qicore/StructureDefinition/qicore-procedure"
  }, {
    "type": "depends-on",
    "resource": "http://hl7.org/fhir/us/qicore/StructureDefinition/qicore-observationcancelled"
  }, {
    "type": "depends-on",
    "resource": "http://hl7.org/fhir/us/qicore/StructureDefinition/qicore-coverage"
  }, {
    "type": "depends-on",
    "display": "Library CMS2FHIRPCSDepressionScreenAndFollowUp, 0.4.000",
    "resource": "https://madie.cms.gov/Library/CMS2FHIRPCSDepressionScreenAndFollowUp|0.4.000"
  }, {
    "type": "depends-on",
    "resource": "#effective-data-requirements"
  }, {
    "type": "depends-on",
    "resource": "http://hl7.org/fhir/Library/USCore-ModelInfo"
  }, {
    "type": "depends-on",
    "resource": "http://terminology.hl7.org/CodeSystem/v3-ActCode|9.0.0"
  }, {
    "type": "depends-on",
    "resource": "http://terminology.hl7.org/CodeSystem/condition-category"
  }, {
    "type": "depends-on",
    "resource": "http://hl7.org/fhir/us/core/CodeSystem/condition-category"
  }, {
    "type": "depends-on",
    "display": "ValueSet Diagnosis of Hypertension, 20250201",
    "resource": "http://cts.nlm.nih.gov/fhir/ValueSet/2.16.840.1.113883.3.600.259|20250201"
  }, {
    "type": "depends-on",
    "display": "ValueSet Diagnosis of Hypertension, 20210220",
    "resource": "http://cts.nlm.nih.gov/fhir/ValueSet/2.16.840.1.113883.3.600.261|20210220"
  }, {
    "type": "depends-on",
    "display": "ValueSet Diagnosis of Hypertension, 20240206",
    "resource": "http://cts.nlm.nih.gov/fhir/ValueSet/2.16.840.1.113883.3.600.263|20240206"
  }, {
    "type": "depends-on",
    "display": "ValueSet Dietary Recommendations, 20250125",
    "resource": "http://cts.nlm.nih.gov/fhir/ValueSet/2.16.840.1.113883.3.600.1512|20250125"
  }, {
    "type": "depends-on",
    "display": "ValueSet Dietary Recommendations, 20250205",
    "resource": "http://cts.nlm.nih.gov/fhir/ValueSet/2.16.840.1.113883.3.600.1511|20250205"
  }, {
    "type": "depends-on",
    "display": "ValueSet Dietary Recommendations, 20250125",
    "resource": "http://cts.nlm.nih.gov/fhir/ValueSet/2.16.840.1.113762.1.4.1248.274|20250125"
  }, {
    "type": "depends-on",
    "display": "ValueSet Dietary Recommendations, 20250205",
    "resource": "http://cts.nlm.nih.gov/fhir/ValueSet/2.16.840.1.113883.3.600.1515|20250205"
  }, {
    "type": "depends-on",
    "display": "ValueSet Encounter to Screen for Blood Pressure, 20240206",
    "resource": "http://cts.nlm.nih.gov/fhir/ValueSet/2.16.840.1.113883.3.600.1918|20240206"
  }, {
    "type": "depends-on",
    "display": "ValueSet Encounter to Screen for Blood Pressure, 20240206",
    "resource": "http://cts.nlm.nih.gov/fhir/ValueSet/2.16.840.1.113883.3.600.1497|20240206"
  }, {
    "type": "depends-on",
    "display": "ValueSet Encounter to Screen for Blood Pressure, 20250205",
    "resource": "http://cts.nlm.nih.gov/fhir/ValueSet/2.16.840.1.113883.3.600.192|20250205"
  }, {
    "type": "depends-on",
    "resource": "http://www.ada.org/cdt"
  }, {
    "type": "depends-on",
    "display": "ValueSet Dental Tooth Extraction, 20220217",
    "resource": "http://cts.nlm.nih.gov/fhir/ValueSet/2.16.840.1.113883.3.600.2466|20220217"
  }, {
    "type": "depends-on",
    "display": "ValueSet Encounter to Screen for Blood Pressure, 20210220",
    "resource": "http://cts.nlm.nih.gov/fhir/ValueSet/2.16.840.1.113883.3.600.1920|20210220"
  }, {
    "type": "depends-on",
    "display": "ValueSet Finding of Hypertension, 20250205",
    "resource": "http://cts.nlm.nih.gov/fhir/ValueSet/2.16.840.1.113883.3.600.2395|20250205"
  }, {
    "type": "depends-on",
    "display": "ValueSet Elevated Blood Pressure Reading, 20190313",
    "resource": "http://cts.nlm.nih.gov/fhir/ValueSet/2.16.840.1.113762.1.4.1047.512|20190313"
  }, {
    "type": "depends-on",
    "display": "ValueSet Elevated Blood Pressure Reading, 20200307",
    "resource": "http://cts.nlm.nih.gov/fhir/ValueSet/2.16.840.1.113762.1.4.1047.513|20200307"
  }, {
    "type": "depends-on",
    "display": "ValueSet Finding of Elevated Blood Pressure or Hypertension, 20190313",
    "resource": "http://cts.nlm.nih.gov/fhir/ValueSet/2.16.840.1.113762.1.4.1047.514|20190313"
  }, {
    "type": "depends-on",
    "display": "ValueSet Follow Up Within 4 Weeks, 20170504",
    "resource": "http://cts.nlm.nih.gov/fhir/ValueSet/2.16.840.1.113883.3.600.1537|20170504"
  }, {
    "type": "depends-on",
    "display": "ValueSet Follow Up Within 4 Weeks, 20200307",
    "resource": "http://cts.nlm.nih.gov/fhir/ValueSet/2.16.840.1.113883.3.526.3.1578|20200307"
  }, {
    "type": "depends-on",
    "display": "ValueSet Follow Up Within 6 Months, 20240125",
    "resource": "http://cts.nlm.nih.gov/fhir/ValueSet/2.16.840.1.113762.1.4.1108.124|20240125"
  }, {
    "type": "depends-on",
    "display": "ValueSet Follow Up Within 6 Months, 20240125",
    "resource": "http://cts.nlm.nih.gov/fhir/ValueSet/2.16.840.1.113762.1.4.1108.125|20240125"
  }, {
    "type": "depends-on",
    "display": "ValueSet Laboratory Tests for Hypertension, 20250201",
    "resource": "http://cts.nlm.nih.gov/fhir/ValueSet/2.16.840.1.113883.3.600.2462|20250201"
  }, {
    "type": "depends-on",
    "display": "ValueSet Laboratory Tests for Hypertension, 20170504",
    "resource": "http://cts.nlm.nih.gov/fhir/ValueSet/2.16.840.1.113883.3.600.1482|20170504"
  }, {
    "type": "depends-on",
    "display": "ValueSet Lifestyle Recommendation, 20250129",
    "resource": "http://cts.nlm.nih.gov/fhir/ValueSet/2.16.840.1.113883.3.600.1508|20250129"
  }, {
    "type": "depends-on",
    "display": "ValueSet Lifestyle Recommendation, 20200307",
    "resource": "http://cts.nlm.nih.gov/fhir/ValueSet/2.16.840.1.113883.3.526.3.1581|20200307"
  }, {
    "type": "depends-on",
    "display": "ValueSet Patient Declined, 20250325",
    "resource": "http://cts.nlm.nih.gov/fhir/ValueSet/2.16.840.1.113883.3.600.791|20250325"
  }, {
    "type": "depends-on",
    "display": "ValueSet Patient Declined, 20200307",
    "resource": "http://cts.nlm.nih.gov/fhir/ValueSet/2.16.840.1.113883.3.526.3.1582|20200307"
  }, {
    "type": "depends-on",
    "display": "ValueSet Pharmacologic Therapy for Hypertension, 20250206",
    "resource": "http://cts.nlm.nih.gov/fhir/ValueSet/2.16.840.1.113883.3.600.1476|20250206"
  }, {
    "type": "depends-on",
    "display": "ValueSet Pharmacologic Therapy for Hypertension, 20210220",
    "resource": "http://cts.nlm.nih.gov/fhir/ValueSet/2.16.840.1.113883.3.526.1577|20210220"
  }, {
    "type": "depends-on",
    "display": "ValueSet Recommendation to Increase Physical Activity, 20170504",
    "resource": "http://cts.nlm.nih.gov/fhir/ValueSet/2.16.840.1.113883.3.600.810|20170504"
  }, {
    "type": "depends-on",
    "display": "ValueSet Exercise Class, 20170504",
    "resource": "http://cts.nlm.nih.gov/fhir/ValueSet/2.16.840.1.113883.3.600.1516|20170504"
  }, {
    "type": "depends-on",
    "display": "ValueSet Recommendation to Increase Physical Activity, 20190313",
    "resource": "http://cts.nlm.nih.gov/fhir/ValueSet/2.16.840.1.113883.3.600.1518|20190313"
  }, {
    "type": "depends-on",
    "display": "ValueSet Referral or Counseling for Alcohol Consumption, 20220218",
    "resource": "http://cts.nlm.nih.gov/fhir/ValueSet/2.16.840.1.113883.3.600.823|20220218"
  }, {
    "type": "depends-on",
    "display": "ValueSet Referral or Counseling for Alcohol Consumption, 20200307",
    "resource": "http://cts.nlm.nih.gov/fhir/ValueSet/2.16.840.1.113883.3.526.3.1583|20200307"
  }, {
    "type": "depends-on",
    "display": "ValueSet Referral to Primary Care or Alternate Provider, 20210220",
    "resource": "http://cts.nlm.nih.gov/fhir/ValueSet/2.16.840.1.113883.3.600.1475|20210220"
  }, {
    "type": "depends-on",
    "display": "ValueSet Referral to Primary Care or Alternate Provider, 20210220",
    "resource": "http://cts.nlm.nih.gov/fhir/ValueSet/2.16.840.1.113883.3.526.3.1580|20210220"
  }, {
    "type": "depends-on",
    "display": "ValueSet Weight Reduction Recommended, 20220218",
    "resource": "http://cts.nlm.nih.gov/fhir/ValueSet/2.16.840.1.113883.3.600.1509|20220218"
  }, {
    "type": "depends-on",
    "display": "ValueSet Weight Reduction Recommended, 20220218",
    "resource": "http://cts.nlm.nih.gov/fhir/ValueSet/2.16.840.1.113883.3.600.805|20220218"
  }, {
    "type": "depends-on",
    "display": "ValueSet Weight Reduction Recommended, 20210220",
    "resource": "http://cts.nlm.nih.gov/fhir/ValueSet/2.16.840.1.113883.3.600.1510|20210220"
  }, {
    "type": "depends-on",
    "resource": "http://hl7.org/fhir/us/core/StructureDefinition/us-core-blood-pressure"
  }, {
    "type": "depends-on",
    "resource": "http://hl7.org/fhir/us/qicore/StructureDefinition/qicore-servicenotrequested"
  }, {
    "type": "depends-on",
    "resource": "http://hl7.org/fhir/us/qicore/StructureDefinition/qicore-medicationnotrequested"
  }, {
    "type": "depends-on",
    "display": "Library CMS22FHIRPCSBPScreeningFollowUp, 0.3.000",
    "resource": "https://madie.cms.gov/Library/CMS22FHIRPCSBPScreeningFollowUp|0.3.000"
  }, {
    "type": "depends-on",
    "resource": "http://ecqi.healthit.gov/ecqms/Library/Status|1.13.000"
  }, {
    "type": "depends-on",
    "display": "ValueSet Neurobehavioral Status Exam (CPT), 20190315",
    "resource": "http://cts.nlm.nih.gov/fhir/ValueSet/2.16.840.1.113883.3.526.2.1064|20190315"
  }, {
    "type": "depends-on",
    "display": "ValueSet Behavioral Neuropsych Assessment, 20190315",
    "resource": "http://cts.nlm.nih.gov/fhir/ValueSet/2.16.840.1.113883.3.526.2.1775|20190315"
  }, {
    "type": "depends-on",
    "display": "ValueSet Behavioral or Neuropsych Assessment, 20190315",
    "resource": "http://cts.nlm.nih.gov/fhir/ValueSet/2.16.840.1.113883.3.526.3.1023|20190315"
  }, {
    "type": "depends-on",
    "display": "ValueSet Consultant Report, 20220212",
    "resource": "http://cts.nlm.nih.gov/fhir/ValueSet/2.16.840.1.113883.3.464.1003.121.11.1011|20220212"
  }, {
    "type": "depends-on",
    "display": "ValueSet ConsultDocumentType, 20250331",
    "resource": "http://cts.nlm.nih.gov/fhir/ValueSet/2.16.840.1.113883.11.20.9.31|20250331"
  }, {
    "type": "depends-on",
    "display": "ValueSet Consultant Report, 20190315",
    "resource": "http://cts.nlm.nih.gov/fhir/ValueSet/2.16.840.1.113883.3.464.1003.121.12.1006|20190315"
  }, {
    "type": "depends-on",
    "display": "ValueSet Office Visit, 20231116",
    "resource": "http://cts.nlm.nih.gov/fhir/ValueSet/2.16.840.1.113883.3.464.1003.101.11.1005|20231116"
  }, {
    "type": "depends-on",
    "display": "ValueSet Office Visit, 20250118",
    "resource": "http://cts.nlm.nih.gov/fhir/ValueSet/2.16.840.1.113883.3.464.1003.101.11.1264|20250118"
  }, {
    "type": "depends-on",
    "display": "ValueSet Office Visit, 20180310",
    "resource": "http://cts.nlm.nih.gov/fhir/ValueSet/2.16.840.1.113883.3.464.1003.101.12.1001|20180310"
  }, {
    "type": "depends-on",
    "display": "ValueSet Ophthalmological Services, 20210209",
    "resource": "http://cts.nlm.nih.gov/fhir/ValueSet/2.16.840.1.113883.3.526.2.111|20210209"
  }, {
    "type": "depends-on",
    "display": "ValueSet Ophthalmological Services, 20210209",
    "resource": "http://cts.nlm.nih.gov/fhir/ValueSet/2.16.840.1.113883.3.526.2.1771|20210209"
  }, {
    "type": "depends-on",
    "display": "ValueSet Ophthalmological Services, 20210209",
    "resource": "http://cts.nlm.nih.gov/fhir/ValueSet/2.16.840.1.113883.3.526.3.1285|20210209"
  }, {
    "type": "depends-on",
    "display": "ValueSet Preventive Care Services Established Office Visit, 18 and Up, 20170504",
    "resource": "http://cts.nlm.nih.gov/fhir/ValueSet/2.16.840.1.113883.3.464.1003.101.12.1025|20170504"
  }, {
    "type": "depends-on",
    "display": "ValueSet Preventive Care, Initial Office Visit, 0 to 17, 20170504",
    "resource": "http://cts.nlm.nih.gov/fhir/ValueSet/2.16.840.1.113883.3.464.1003.101.11.1110|20170504"
  }, {
    "type": "depends-on",
    "display": "ValueSet Preventive Care Services, Initial Office Visit, 0 to 17, 20170504",
    "resource": "http://cts.nlm.nih.gov/fhir/ValueSet/2.16.840.1.113883.3.464.1003.101.12.1022|20170504"
  }, {
    "type": "depends-on",
    "display": "ValueSet Preventive Care Services Initial Office Visit, 18 and Up, 20170504",
    "resource": "http://cts.nlm.nih.gov/fhir/ValueSet/2.16.840.1.113883.3.464.1003.101.12.1023|20170504"
  }, {
    "type": "depends-on",
    "display": "ValueSet Preventive Care, Established Office Visit, 0 to 17, 20170504",
    "resource": "http://cts.nlm.nih.gov/fhir/ValueSet/2.16.840.1.113883.3.464.1003.101.11.1120|20170504"
  }, {
    "type": "depends-on",
    "display": "ValueSet Preventive Care, Established Office Visit, 0 to 17, 20170504",
    "resource": "http://cts.nlm.nih.gov/fhir/ValueSet/2.16.840.1.113883.3.464.1003.101.12.1024|20170504"
  }, {
    "type": "depends-on",
    "display": "ValueSet Psych Visit Diagnostic Evaluation, 20170504",
    "resource": "http://cts.nlm.nih.gov/fhir/ValueSet/2.16.840.1.113883.3.526.2.1923|20170504"
  }, {
    "type": "depends-on",
    "display": "ValueSet Psych Visit Diagnostic Evaluation, 20200306",
    "resource": "http://cts.nlm.nih.gov/fhir/ValueSet/2.16.840.1.113883.3.526.2.1776|20200306"
  }, {
    "type": "depends-on",
    "display": "ValueSet Psych Visit Diagnostic Evaluation, 20190315",
    "resource": "http://cts.nlm.nih.gov/fhir/ValueSet/2.16.840.1.113883.3.526.3.1492|20190315"
  }, {
    "type": "depends-on",
    "display": "ValueSet Referral, 20230217",
    "resource": "http://cts.nlm.nih.gov/fhir/ValueSet/2.16.840.1.113883.3.464.1003.101.11.1215|20230217"
  }, {
    "type": "depends-on",
    "display": "ValueSet Referral, 20170504",
    "resource": "http://cts.nlm.nih.gov/fhir/ValueSet/2.16.840.1.113883.3.464.1003.101.12.1046|20170504"
  }, {
    "type": "depends-on",
    "resource": "http://hl7.org/fhir/us/qicore/StructureDefinition/qicore-task"
  }, {
    "type": "depends-on",
    "display": "Library CMS50FHIRCRLReceiptofSpecialistReport, 0.4.000",
    "resource": "https://madie.cms.gov/Library/CMS50FHIRCRLReceiptofSpecialistReport|0.4.000"
  }, {
    "type": "depends-on",
    "resource": "http://ecqi.healthit.gov/ecqms/Library/Hospice|6.15.000"
  }, {
    "type": "depends-on",
    "display": "ValueSet Lower Body Fractures Excluding Ankle and Foot, 20220910",
    "resource": "http://cts.nlm.nih.gov/fhir/ValueSet/2.16.840.1.113883.3.464.1003.1177|20220910"
  }, {
    "type": "depends-on",
    "display": "ValueSet Lower Body Fractures Excluding Ankle and Foot, 20250128",
    "resource": "http://cts.nlm.nih.gov/fhir/ValueSet/2.16.840.1.113883.3.464.1003.1230|20250128"
  }, {
    "type": "depends-on",
    "display": "ValueSet Lower Body Fractures Excluding Ankle and Foot, 20230722",
    "resource": "http://cts.nlm.nih.gov/fhir/ValueSet/2.16.840.1.113883.3.464.1003.1178|20230722"
  }, {
    "type": "depends-on",
    "display": "ValueSet Malignant Neoplasms of Lower and Unspecified Limbs, 20220910",
    "resource": "http://cts.nlm.nih.gov/fhir/ValueSet/2.16.840.1.113883.3.464.1003.1179|20220910"
  }, {
    "type": "depends-on",
    "display": "ValueSet Malignant Neoplasms of Lower and Unspecified Limbs, 20250128",
    "resource": "http://cts.nlm.nih.gov/fhir/ValueSet/2.16.840.1.113883.3.464.1003.1231|20250128"
  }, {
    "type": "depends-on",
    "display": "ValueSet Malignant Neoplasms of Lower and Unspecified Limbs, 20230722",
    "resource": "http://cts.nlm.nih.gov/fhir/ValueSet/2.16.840.1.113883.3.464.1003.1180|20230722"
  }, {
    "type": "depends-on",
    "display": "ValueSet Mechanical Complications Excluding Upper Body, 20220910",
    "resource": "http://cts.nlm.nih.gov/fhir/ValueSet/2.16.840.1.113883.3.464.1003.1181|20220910"
  }, {
    "type": "depends-on",
    "display": "ValueSet Mechanical Complications Excluding Upper Body, 20250128",
    "resource": "http://cts.nlm.nih.gov/fhir/ValueSet/2.16.840.1.113883.3.464.1003.1232|20250128"
  }, {
    "type": "depends-on",
    "display": "ValueSet Mechanical Complications Excluding Upper Body, 20230722",
    "resource": "http://cts.nlm.nih.gov/fhir/ValueSet/2.16.840.1.113883.3.464.1003.1182|20230722"
  }, {
    "type": "depends-on",
    "display": "ValueSet Virtual Encounter, 20231116",
    "resource": "http://cts.nlm.nih.gov/fhir/ValueSet/2.16.840.1.113883.3.464.1003.101.11.1281|20231116"
  }, {
    "type": "depends-on",
    "display": "ValueSet Virtual Encounter, 20231116",
    "resource": "http://cts.nlm.nih.gov/fhir/ValueSet/2.16.840.1.113883.3.464.1003.101.11.1282|20231116"
  }, {
    "type": "depends-on",
    "display": "ValueSet Virtual Encounter, 20210224",
    "resource": "http://cts.nlm.nih.gov/fhir/ValueSet/2.16.840.1.113883.3.464.1003.101.12.1089|20210224"
  }, {
    "type": "depends-on",
    "display": "ValueSet Outpatient Consultation, 20200310",
    "resource": "http://cts.nlm.nih.gov/fhir/ValueSet/2.16.840.1.113883.3.464.1003.101.11.1266|20200310"
  }, {
    "type": "depends-on",
    "display": "ValueSet Outpatient Consultation, 20240203",
    "resource": "http://cts.nlm.nih.gov/fhir/ValueSet/2.16.840.1.113883.3.464.1003.101.11.1040|20240203"
  }, {
    "type": "depends-on",
    "display": "ValueSet Outpatient Consultation, 20240110",
    "resource": "http://cts.nlm.nih.gov/fhir/ValueSet/2.16.840.1.113883.3.464.1003.101.12.1008|20240110"
  }, {
    "type": "depends-on",
    "resource": "http://www.cms.gov/Medicare/Coding/ICD10|2.0.1"
  }, {
    "type": "depends-on",
    "display": "ValueSet Partial Arthroplasty of Hip, 20220924",
    "resource": "http://cts.nlm.nih.gov/fhir/ValueSet/2.16.840.1.113883.3.464.1003.1183|20220924"
  }, {
    "type": "depends-on",
    "display": "ValueSet Partial Arthroplasty of Hip, 20250128",
    "resource": "http://cts.nlm.nih.gov/fhir/ValueSet/2.16.840.1.113883.3.464.1003.1233|20250128"
  }, {
    "type": "depends-on",
    "display": "ValueSet Partial Arthroplasty of Hip, 20230722",
    "resource": "http://cts.nlm.nih.gov/fhir/ValueSet/2.16.840.1.113883.3.464.1003.1234|20230722"
  }, {
    "type": "depends-on",
    "display": "ValueSet Partial Arthroplasty of Hip, 20230722",
    "resource": "http://cts.nlm.nih.gov/fhir/ValueSet/2.16.840.1.113883.3.464.1003.1184|20230722"
  }, {
    "type": "depends-on",
    "display": "ValueSet Primary THA Procedure, 20250129",
    "resource": "http://cts.nlm.nih.gov/fhir/ValueSet/2.16.840.1.113883.3.464.1003.198.11.1080|20250129"
  }, {
    "type": "depends-on",
    "display": "ValueSet Primary THA Procedure, 20230722",
    "resource": "http://cts.nlm.nih.gov/fhir/ValueSet/2.16.840.1.113883.3.464.1003.198.11.1009|20230722"
  }, {
    "type": "depends-on",
    "display": "ValueSet Primary THA Procedure, 20230722",
    "resource": "http://cts.nlm.nih.gov/fhir/ValueSet/2.16.840.1.113883.3.464.1003.1238|20230722"
  }, {
    "type": "depends-on",
    "display": "ValueSet Primary THA Procedure, 20230831",
    "resource": "http://cts.nlm.nih.gov/fhir/ValueSet/2.16.840.1.113883.3.464.1003.198.12.1006|20230831"
  }, {
    "type": "depends-on",
    "display": "ValueSet Removal, Revision and Supplement Procedures of the Lower Body and Spine, 20221229",
    "resource": "http://cts.nlm.nih.gov/fhir/ValueSet/2.16.840.1.113883.3.464.1003.1188|20221229"
  }, {
    "type": "depends-on",
    "display": "ValueSet Removal, Revision and Supplement Procedures of the Lower Body and Spine, 20250201",
    "resource": "http://cts.nlm.nih.gov/fhir/ValueSet/2.16.840.1.113883.3.464.1003.1235|20250201"
  }, {
    "type": "depends-on",
    "display": "ValueSet Removal, Revision and Supplement Procedures of the Lower Body and Spine, 20230722",
    "resource": "http://cts.nlm.nih.gov/fhir/ValueSet/2.16.840.1.113883.3.464.1003.1236|20230722"
  }, {
    "type": "depends-on",
    "display": "ValueSet Removal, Revision and Supplement Procedures of the Lower Body and Spine, 20230722",
    "resource": "http://cts.nlm.nih.gov/fhir/ValueSet/2.16.840.1.113883.3.464.1003.1237|20230722"
  }, {
    "type": "depends-on",
    "display": "ValueSet Removal, Revision and Supplement Procedures of the Lower Body and Spine, 20230722",
    "resource": "http://cts.nlm.nih.gov/fhir/ValueSet/2.16.840.1.113883.3.464.1003.1189|20230722"
  }, {
    "type": "depends-on",
    "display": "ValueSet Encounter Inpatient, 20200307",
    "resource": "http://cts.nlm.nih.gov/fhir/ValueSet/2.16.840.1.113883.3.666.5.307|20200307"
  }, {
    "type": "depends-on",
    "display": "ValueSet Hospice Encounter, 20230208",
    "resource": "http://cts.nlm.nih.gov/fhir/ValueSet/2.16.840.1.113883.3.464.1003.1002|20230208"
  }, {
    "type": "depends-on",
    "display": "ValueSet Hospice Encounter, 20210820",
    "resource": "http://cts.nlm.nih.gov/fhir/ValueSet/2.16.840.1.113883.3.464.1003.1001|20210820"
  }, {
    "type": "depends-on",
    "display": "ValueSet Hospice Encounter, 20210820",
    "resource": "http://cts.nlm.nih.gov/fhir/ValueSet/2.16.840.1.113883.3.464.1003.1003|20210820"
  }, {
    "type": "depends-on",
    "display": "ValueSet Hospice Care Ambulatory, 20240207",
    "resource": "http://cts.nlm.nih.gov/fhir/ValueSet/2.16.840.1.113762.1.4.1108.15|20240207"
  }, {
    "type": "depends-on",
    "display": "ValueSet Hospice Care Ambulatory, 20210821",
    "resource": "http://cts.nlm.nih.gov/fhir/ValueSet/2.16.840.1.113883.3.464.1003.1008|20210821"
  }, {
    "type": "depends-on",
    "display": "ValueSet Hospice Care Ambulatory, 20210824",
    "resource": "http://cts.nlm.nih.gov/fhir/ValueSet/2.16.840.1.113883.3.464.1003.1007|20210824"
  }, {
    "type": "depends-on",
    "display": "ValueSet Hospice Care Ambulatory, 20210825",
    "resource": "http://cts.nlm.nih.gov/fhir/ValueSet/2.16.840.1.113883.3.526.3.1584|20210825"
  }, {
    "type": "depends-on",
    "display": "ValueSet Hospice Diagnosis, 20220817",
    "resource": "http://cts.nlm.nih.gov/fhir/ValueSet/2.16.840.1.113883.3.464.1003.1166|20220817"
  }, {
    "type": "depends-on",
    "display": "ValueSet Hospice Diagnosis, 20220818",
    "resource": "http://cts.nlm.nih.gov/fhir/ValueSet/2.16.840.1.113883.3.464.1003.1165|20220818"
  }, {
    "type": "depends-on",
    "resource": "http://hl7.org/fhir/us/qicore/StructureDefinition/qicore-condition-encounter-diagnosis"
  }, {
    "type": "depends-on",
    "display": "Library CMS56FHIRFunctionalStatusAssessmentforTotalHipReplacement, 1.1.000",
    "resource": "https://madie.cms.gov/Library/CMS56FHIRFunctionalStatusAssessmentforTotalHipReplacement|1.1.000"
  }, {
    "type": "depends-on",
    "display": "ValueSet Encounter to Document Medications, 20210220",
    "resource": "http://cts.nlm.nih.gov/fhir/ValueSet/2.16.840.1.113883.3.600.1.1917|20210220"
  }, {
    "type": "depends-on",
    "display": "ValueSet Encounter to Document Medications, 20250123",
    "resource": "http://cts.nlm.nih.gov/fhir/ValueSet/2.16.840.1.113883.3.600.1.1608|20250123"
  }, {
    "type": "depends-on",
    "display": "ValueSet Encounter to Document Medications, 20250205",
    "resource": "http://cts.nlm.nih.gov/fhir/ValueSet/2.16.840.1.113883.3.600.1.1609|20250205"
  }, {
    "type": "depends-on",
    "display": "ValueSet Encounter to Document Medications, 20210220",
    "resource": "http://cts.nlm.nih.gov/fhir/ValueSet/2.16.840.1.113883.3.600.1.1834|20210220"
  }, {
    "type": "depends-on",
    "resource": "http://hl7.org/fhir/us/qicore/StructureDefinition/qicore-procedurenotdone"
  }, {
    "type": "depends-on",
    "display": "Library CMS68FHIRDocumentationofCurrentMedications, 0.3.000",
    "resource": "https://madie.cms.gov/Library/CMS68FHIRDocumentationofCurrentMedications|0.3.000"
  }, {
    "type": "depends-on",
    "resource": "http://ecqi.healthit.gov/ecqms/Library/PalliativeCare|1.15.000"
  }, {
    "type": "depends-on",
    "resource": "http://terminology.hl7.org/CodeSystem/observation-category"
  }, {
    "type": "depends-on",
    "resource": "http://terminology.hl7.org/CodeSystem/condition-clinical"
  }, {
    "type": "depends-on",
    "display": "ValueSet Encounter to Evaluate BMI, 20230216",
    "resource": "http://cts.nlm.nih.gov/fhir/ValueSet/2.16.840.1.113883.3.600.1.886|20230216"
  }, {
    "type": "depends-on",
    "display": "ValueSet Encounter to Evaluate BMI, 20250205",
    "resource": "http://cts.nlm.nih.gov/fhir/ValueSet/2.16.840.1.113883.3.600.1.695|20250205"
  }, {
    "type": "depends-on",
    "display": "ValueSet Encounter to Evaluate BMI, 20180309",
    "resource": "http://cts.nlm.nih.gov/fhir/ValueSet/2.16.840.1.113883.3.600.1.885|20180309"
  }, {
    "type": "depends-on",
    "display": "ValueSet Encounter to Evaluate BMI, 20210220",
    "resource": "http://cts.nlm.nih.gov/fhir/ValueSet/2.16.840.1.113883.3.600.1.1751|20210220"
  }, {
    "type": "depends-on",
    "display": "ValueSet Follow Up for BMI Outside Normal Parameters, 20240208",
    "resource": "http://cts.nlm.nih.gov/fhir/ValueSet/2.16.840.1.113883.3.600.1.1524|20240208"
  }, {
    "type": "depends-on",
    "display": "ValueSet Follow Up for Above Normal BMI, 20170826",
    "resource": "http://cts.nlm.nih.gov/fhir/ValueSet/2.16.840.1.113883.3.600.1.1523|20170826"
  }, {
    "type": "depends-on",
    "display": "ValueSet Follow Up for Above Normal BMI, 20170504",
    "resource": "http://cts.nlm.nih.gov/fhir/ValueSet/2.16.840.1.113883.3.600.1.1519|20170504"
  }, {
    "type": "depends-on",
    "display": "ValueSet Follow Up for Above Normal BMI, 20250205",
    "resource": "http://cts.nlm.nih.gov/fhir/ValueSet/2.16.840.1.113883.3.600.1.1526|20250205"
  }, {
    "type": "depends-on",
    "display": "ValueSet Bariatric Procedures, 20240208",
    "resource": "http://cts.nlm.nih.gov/fhir/ValueSet/2.16.840.1.113762.1.4.1047.515|20240208"
  }, {
    "type": "depends-on",
    "display": "ValueSet Follow Up for Above Normal BMI, 20250201",
    "resource": "http://cts.nlm.nih.gov/fhir/ValueSet/2.16.840.1.113883.3.600.1.1525|20250201"
  }, {
    "type": "depends-on",
    "display": "ValueSet Follow Up for Below Normal BMI, 20230216",
    "resource": "http://cts.nlm.nih.gov/fhir/ValueSet/2.16.840.1.113883.3.600.1.1549|20230216"
  }, {
    "type": "depends-on",
    "display": "ValueSet Follow Up for Below Normal BMI, 20230216",
    "resource": "http://cts.nlm.nih.gov/fhir/ValueSet/2.16.840.1.113883.3.600.1.1550|20230216"
  }, {
    "type": "depends-on",
    "display": "ValueSet Follow Up for Below Normal BMI, 20250205",
    "resource": "http://cts.nlm.nih.gov/fhir/ValueSet/2.16.840.1.113883.3.600.1.1551|20250205"
  }, {
    "type": "depends-on",
    "display": "ValueSet Follow Up for Below Normal BMI, 20200307",
    "resource": "http://cts.nlm.nih.gov/fhir/ValueSet/2.16.840.1.113883.3.600.1.1528|20200307"
  }, {
    "type": "depends-on",
    "display": "ValueSet Medications for Above Normal BMI, 20250205",
    "resource": "http://cts.nlm.nih.gov/fhir/ValueSet/2.16.840.1.113883.3.600.1.1498|20250205"
  }, {
    "type": "depends-on",
    "display": "ValueSet Medications for Above Normal BMI, 20210220",
    "resource": "http://cts.nlm.nih.gov/fhir/ValueSet/2.16.840.1.113883.3.526.3.1561|20210220"
  }, {
    "type": "depends-on",
    "display": "ValueSet Medications for Below Normal BMI, 20220217",
    "resource": "http://cts.nlm.nih.gov/fhir/ValueSet/2.16.840.1.113883.3.600.1.1499|20220217"
  }, {
    "type": "depends-on",
    "display": "ValueSet Medications for Below Normal BMI, 20210220",
    "resource": "http://cts.nlm.nih.gov/fhir/ValueSet/2.16.840.1.113883.3.526.3.1562|20210220"
  }, {
    "type": "depends-on",
    "display": "ValueSet Overweight or Obese, 20250128",
    "resource": "http://cts.nlm.nih.gov/fhir/ValueSet/2.16.840.1.113762.1.4.1047.501|20250128"
  }, {
    "type": "depends-on",
    "display": "ValueSet Overweight or Obese, 20250205",
    "resource": "http://cts.nlm.nih.gov/fhir/ValueSet/2.16.840.1.113883.3.600.2387|20250205"
  }, {
    "type": "depends-on",
    "display": "ValueSet Overweight or Obese, 20180309",
    "resource": "http://cts.nlm.nih.gov/fhir/ValueSet/2.16.840.1.113762.1.4.1047.502|20180309"
  }, {
    "type": "depends-on",
    "display": "ValueSet Pregnancy Obstetric or Maternal Diagnoses, 20230216",
    "resource": "http://cts.nlm.nih.gov/fhir/ValueSet/2.16.840.1.113883.3.600.1.1624|20230216"
  }, {
    "type": "depends-on",
    "display": "ValueSet Pregnancy Obstetric or Maternal Diagnoses, 20220217",
    "resource": "http://cts.nlm.nih.gov/fhir/ValueSet/2.16.840.1.113883.3.600.1.1626|20220217"
  }, {
    "type": "depends-on",
    "display": "ValueSet Pregnancy Obstetric or Maternal Diagnoses, 20210220",
    "resource": "http://cts.nlm.nih.gov/fhir/ValueSet/2.16.840.1.113883.3.600.1.1623|20210220"
  }, {
    "type": "depends-on",
    "display": "ValueSet Referrals Where Weight Assessment May Occur, 20230216",
    "resource": "http://cts.nlm.nih.gov/fhir/ValueSet/2.16.840.1.113883.3.600.1.1610|20230216"
  }, {
    "type": "depends-on",
    "display": "ValueSet Referrals Where Weight Assessment May Occur, 20170504",
    "resource": "http://cts.nlm.nih.gov/fhir/ValueSet/2.16.840.1.113883.3.600.1.1527|20170504"
  }, {
    "type": "depends-on",
    "display": "ValueSet Underweight, 20220217",
    "resource": "http://cts.nlm.nih.gov/fhir/ValueSet/2.16.840.1.113883.3.600.2388|20220217"
  }, {
    "type": "depends-on",
    "display": "ValueSet Underweight, 20220217",
    "resource": "http://cts.nlm.nih.gov/fhir/ValueSet/2.16.840.1.113762.1.4.1108.99|20220217"
  }, {
    "type": "depends-on",
    "display": "ValueSet Underweight, 20220302",
    "resource": "http://cts.nlm.nih.gov/fhir/ValueSet/2.16.840.1.113883.3.526.3.1563|20220302"
  }, {
    "type": "depends-on",
    "display": "ValueSet Palliative Care Diagnosis, 20220819",
    "resource": "http://cts.nlm.nih.gov/fhir/ValueSet/2.16.840.1.113883.3.464.1003.1168|20220819"
  }, {
    "type": "depends-on",
    "display": "ValueSet Palliative Care Diagnosis, 20220820",
    "resource": "http://cts.nlm.nih.gov/fhir/ValueSet/2.16.840.1.113883.3.464.1003.1169|20220820"
  }, {
    "type": "depends-on",
    "display": "ValueSet Palliative Care Diagnosis, 20220820",
    "resource": "http://cts.nlm.nih.gov/fhir/ValueSet/2.16.840.1.113883.3.464.1003.1167|20220820"
  }, {
    "type": "depends-on",
    "display": "ValueSet Palliative Encounter, 20250110",
    "resource": "http://cts.nlm.nih.gov/fhir/ValueSet/2.16.840.1.113883.3.464.1003.101.11.1285|20250110"
  }, {
    "type": "depends-on",
    "display": "ValueSet Palliative Encounter, 20240207",
    "resource": "http://cts.nlm.nih.gov/fhir/ValueSet/2.16.840.1.113883.3.464.1003.101.11.1286|20240207"
  }, {
    "type": "depends-on",
    "display": "ValueSet Palliative Care Encounter, 20210224",
    "resource": "http://cts.nlm.nih.gov/fhir/ValueSet/2.16.840.1.113883.3.464.1003.101.12.1090|20210224"
  }, {
    "type": "depends-on",
    "display": "ValueSet Palliative Intervention, 20230118",
    "resource": "http://cts.nlm.nih.gov/fhir/ValueSet/2.16.840.1.113883.3.464.1003.198.11.1148|20230118"
  }, {
    "type": "depends-on",
    "display": "ValueSet Palliative Care Intervention, 20210224",
    "resource": "http://cts.nlm.nih.gov/fhir/ValueSet/2.16.840.1.113883.3.464.1003.198.12.1135|20210224"
  }, {
    "type": "depends-on",
    "resource": "http://hl7.org/fhir/us/core/StructureDefinition/us-core-bmi"
  }, {
    "type": "depends-on",
    "display": "Library CMS69FHIRPCSBMIScreenAndFollowUp, 0.3.000",
    "resource": "https://madie.cms.gov/Library/CMS69FHIRPCSBMIScreenAndFollowUp|0.3.000"
  }, {
    "type": "depends-on",
    "display": "Library Status, 1.13.000",
    "resource": "https://madie.cms.gov/Library/Status|1.13.000"
  }, {
    "type": "depends-on",
    "resource": "http://terminology.hl7.org/CodeSystem/v3-RoleCode"
  }, {
    "type": "depends-on",
    "resource": "http://terminology.hl7.org/CodeSystem/diagnosis-role"
  }, {
    "type": "depends-on",
    "resource": "http://hl7.org/fhir/request-intent"
  }, {
    "type": "depends-on",
    "resource": "http://terminology.hl7.org/CodeSystem/medicationrequest-category"
  }, {
    "type": "depends-on",
    "resource": "http://terminology.hl7.org/CodeSystem/condition-ver-status"
  }, {
    "type": "depends-on",
    "resource": "http://terminology.hl7.org/CodeSystem/allergyintolerance-clinical"
  }, {
    "type": "depends-on",
    "resource": "http://terminology.hl7.org/CodeSystem/allergyintolerance-verification"
  }, {
    "type": "depends-on",
    "resource": "http://hl7.org/fhir/us/core/CodeSystem/us-core-observation-category"
  }, {
    "type": "depends-on",
    "resource": "http://hl7.org/fhir/CodeSystem/task-code"
  }, {
    "type": "depends-on",
    "display": "Library QICoreCommon, 4.0.000",
    "resource": "https://madie.cms.gov/Library/QICoreCommon|4.0.000"
  }, {
    "type": "depends-on",
    "resource": "http://fhir.org/guides/cqf/common/Library/FHIR-ModelInfo|4.0.1"
  }, {
    "type": "depends-on",
    "display": "Library FHIRHelpers, 4.4.000",
    "resource": "https://madie.cms.gov/Library/FHIRHelpers|4.4.000"
  }, {
    "type": "depends-on",
    "display": "Library Hospice, 6.15.000",
    "resource": "https://madie.cms.gov/Library/Hospice|6.15.000"
  }, {
    "type": "depends-on",
    "display": "ValueSet Fluoride Varnish Application for Children, 20240210",
    "resource": "http://cts.nlm.nih.gov/fhir/ValueSet/2.16.840.1.113883.3.464.1003.125.11.1011|20240210"
  }, {
    "type": "depends-on",
    "display": "ValueSet Fluoride Varnish Application for Children, 20240210",
    "resource": "http://cts.nlm.nih.gov/fhir/ValueSet/2.16.840.1.113883.3.464.1003.125.11.1004|20240210"
  }, {
    "type": "depends-on",
    "display": "ValueSet Fluoride Varnish Application for Children, 20210928",
    "resource": "http://cts.nlm.nih.gov/fhir/ValueSet/2.16.840.1.113883.3.464.1003.125.12.1002|20210928"
  }, {
    "type": "depends-on",
    "display": "ValueSet Clinical Oral Evaluation, 20170504",
    "resource": "http://cts.nlm.nih.gov/fhir/ValueSet/2.16.840.1.113883.3.464.1003.125.11.1010|20170504"
  }, {
    "type": "depends-on",
    "display": "ValueSet Clinical Oral Evaluation, 20170504",
    "resource": "http://cts.nlm.nih.gov/fhir/ValueSet/2.16.840.1.113883.3.464.1003.125.12.1003|20170504"
  }, {
    "type": "depends-on",
    "display": "ValueSet Dental Caries, 20250205",
    "resource": "http://cts.nlm.nih.gov/fhir/ValueSet/2.16.840.1.113883.3.464.1003.125.11.1007|20250205"
  }, {
    "type": "depends-on",
    "display": "ValueSet Dental Caries, 20170504",
    "resource": "http://cts.nlm.nih.gov/fhir/ValueSet/2.16.840.1.113883.3.464.1003.125.11.1009|20170504"
  }, {
    "type": "depends-on",
    "display": "ValueSet Dental Caries, 20210220",
    "resource": "http://cts.nlm.nih.gov/fhir/ValueSet/2.16.840.1.113883.3.464.1003.125.12.1004|20210220"
  }, {
    "type": "depends-on",
    "resource": "urn:oid:2.16.840.1.113883.6.238|1.2"
  }, {
    "type": "depends-on",
    "display": "ValueSet Ethnicity, 20121025",
    "resource": "http://cts.nlm.nih.gov/fhir/ValueSet/2.16.840.1.114222.4.11.837|20121025"
  }, {
    "type": "depends-on",
    "display": "ValueSet Federal Administrative Sex, 20250228",
    "resource": "http://cts.nlm.nih.gov/fhir/ValueSet/2.16.840.1.113762.1.4.1021.121|20250228"
  }, {
    "type": "depends-on",
    "display": "ValueSet Race, 20121025",
    "resource": "http://cts.nlm.nih.gov/fhir/ValueSet/2.16.840.1.114222.4.11.836|20121025"
  }, {
    "type": "depends-on",
    "display": "Library SupplementalDataElements, 5.1.000",
    "resource": "https://madie.cms.gov/Library/SupplementalDataElements|5.1.000"
  }, {
    "type": "depends-on",
    "resource": "http://hl7.org/fhir/sid/cvx|4.0.0"
  }, {
    "type": "depends-on",
    "display": "ValueSet DTaP Vaccine, 20241106",
    "resource": "http://cts.nlm.nih.gov/fhir/ValueSet/2.16.840.1.113883.3.464.1003.196.11.1212|20241106"
  }, {
    "type": "depends-on",
    "display": "ValueSet DTaP Vaccine, 20170504",
    "resource": "http://cts.nlm.nih.gov/fhir/ValueSet/2.16.840.1.113883.3.464.1003.196.12.1214|20170504"
  }, {
    "type": "depends-on",
    "display": "ValueSet DTaP Vaccine Administered, 20241106",
    "resource": "http://cts.nlm.nih.gov/fhir/ValueSet/2.16.840.1.113883.3.464.1003.110.11.1066|20241106"
  }, {
    "type": "depends-on",
    "display": "ValueSet DTaP Vaccine Administered, 20210914",
    "resource": "http://cts.nlm.nih.gov/fhir/ValueSet/2.16.840.1.113883.3.464.1003.110.11.1065|20210914"
  }, {
    "type": "depends-on",
    "display": "ValueSet DTaP Vaccine Administered, 20170504",
    "resource": "http://cts.nlm.nih.gov/fhir/ValueSet/2.16.840.1.113883.3.464.1003.110.12.1022|20170504"
  }, {
    "type": "depends-on",
    "display": "ValueSet Anaphylactic Reaction to DTaP Vaccine, 20220208",
    "resource": "http://cts.nlm.nih.gov/fhir/ValueSet/2.16.840.1.113883.3.464.1003.199.11.1064|20220208"
  }, {
    "type": "depends-on",
    "display": "ValueSet Anaphylactic Reaction to DTaP Vaccine, 20170504",
    "resource": "http://cts.nlm.nih.gov/fhir/ValueSet/2.16.840.1.113883.3.464.1003.199.12.1031|20170504"
  }, {
    "type": "depends-on",
    "display": "ValueSet Encephalitis Due to Diphtheria, Tetanus or Pertussis Vaccine, 20220208",
    "resource": "http://cts.nlm.nih.gov/fhir/ValueSet/2.16.840.1.113883.3.464.1003.1163|20220208"
  }, {
    "type": "depends-on",
    "display": "ValueSet Encephalitis Due to Diphtheria, Tetanus or Pertussis Vaccine, 20220208",
    "resource": "http://cts.nlm.nih.gov/fhir/ValueSet/2.16.840.1.113883.3.464.1003.1164|20220208"
  }, {
    "type": "depends-on",
    "display": "ValueSet Inactivated Polio Vaccine (IPV), 20210914",
    "resource": "http://cts.nlm.nih.gov/fhir/ValueSet/2.16.840.1.113883.3.464.1003.196.11.1222|20210914"
  }, {
    "type": "depends-on",
    "display": "ValueSet Inactivated Polio Vaccine (IPV), 20170504",
    "resource": "http://cts.nlm.nih.gov/fhir/ValueSet/2.16.840.1.113883.3.464.1003.196.12.1219|20170504"
  }, {
    "type": "depends-on",
    "display": "ValueSet Inactivated Polio Vaccine (IPV) Administered, 20210914",
    "resource": "http://cts.nlm.nih.gov/fhir/ValueSet/2.16.840.1.113883.3.464.1003.110.11.1117|20210914"
  }, {
    "type": "depends-on",
    "display": "ValueSet Inactivated Polio Vaccine (IPV) Administered, 20230211",
    "resource": "http://cts.nlm.nih.gov/fhir/ValueSet/2.16.840.1.113883.3.464.1003.110.11.1118|20230211"
  }, {
    "type": "depends-on",
    "display": "ValueSet Inactivated Polio Vaccine (IPV) Administered, 20170504",
    "resource": "http://cts.nlm.nih.gov/fhir/ValueSet/2.16.840.1.113883.3.464.1003.110.12.1045|20170504"
  }, {
    "type": "depends-on",
    "display": "ValueSet Measles, Mumps and Rubella (MMR) Vaccine, 20170504",
    "resource": "http://cts.nlm.nih.gov/fhir/ValueSet/2.16.840.1.113883.3.464.1003.196.11.1235|20170504"
  }, {
    "type": "depends-on",
    "display": "ValueSet Measles, Mumps and Rubella (MMR) Vaccine, 20170504",
    "resource": "http://cts.nlm.nih.gov/fhir/ValueSet/2.16.840.1.113883.3.464.1003.196.12.1224|20170504"
  }, {
    "type": "depends-on",
    "display": "ValueSet Measles, Mumps and Rubella (MMR) Vaccine Administered, 20230211",
    "resource": "http://cts.nlm.nih.gov/fhir/ValueSet/2.16.840.1.113883.3.464.1003.110.11.1086|20230211"
  }, {
    "type": "depends-on",
    "display": "ValueSet Measles, Mumps and Rubella (MMR) Vaccine Administered, 20170504",
    "resource": "http://cts.nlm.nih.gov/fhir/ValueSet/2.16.840.1.113883.3.464.1003.110.11.1085|20170504"
  }, {
    "type": "depends-on",
    "display": "ValueSet Measles, Mumps and Rubella (MMR) Vaccine Administered, 20170504",
    "resource": "http://cts.nlm.nih.gov/fhir/ValueSet/2.16.840.1.113883.3.464.1003.110.12.1031|20170504"
  }, {
    "type": "depends-on",
    "display": "ValueSet Measles, 20210924",
    "resource": "http://cts.nlm.nih.gov/fhir/ValueSet/2.16.840.1.113883.3.464.1003.110.11.1078|20210924"
  }, {
    "type": "depends-on",
    "display": "ValueSet Measles, 20170504",
    "resource": "http://cts.nlm.nih.gov/fhir/ValueSet/2.16.840.1.113883.3.464.1003.110.11.1080|20170504"
  }, {
    "type": "depends-on",
    "display": "ValueSet Measles, 20170504",
    "resource": "http://cts.nlm.nih.gov/fhir/ValueSet/2.16.840.1.113883.3.464.1003.110.12.1053|20170504"
  }, {
    "type": "depends-on",
    "display": "ValueSet Mumps, 20170504",
    "resource": "http://cts.nlm.nih.gov/fhir/ValueSet/2.16.840.1.113883.3.464.1003.110.11.1089|20170504"
  }, {
    "type": "depends-on",
    "display": "ValueSet Mumps, 20230208",
    "resource": "http://cts.nlm.nih.gov/fhir/ValueSet/2.16.840.1.113883.3.464.1003.110.11.1087|20230208"
  }, {
    "type": "depends-on",
    "display": "ValueSet Mumps, 20170504",
    "resource": "http://cts.nlm.nih.gov/fhir/ValueSet/2.16.840.1.113883.3.464.1003.110.12.1032|20170504"
  }, {
    "type": "depends-on",
    "display": "ValueSet Rubella, 20210220",
    "resource": "http://cts.nlm.nih.gov/fhir/ValueSet/2.16.840.1.113883.3.464.1003.110.11.1098|20210220"
  }, {
    "type": "depends-on",
    "display": "ValueSet Rubella, 20170504",
    "resource": "http://cts.nlm.nih.gov/fhir/ValueSet/2.16.840.1.113883.3.464.1003.110.11.110|20170504"
  }, {
    "type": "depends-on",
    "display": "ValueSet Rubella, 20170504",
    "resource": "http://cts.nlm.nih.gov/fhir/ValueSet/2.16.840.1.113883.3.464.1003.110.12.1037|20170504"
  }, {
    "type": "depends-on",
    "display": "ValueSet HiB Vaccine (3 dose schedule), 20211204",
    "resource": "http://cts.nlm.nih.gov/fhir/ValueSet/2.16.840.1.113883.3.464.1003.110.11.1152|20211204"
  }, {
    "type": "depends-on",
    "display": "ValueSet Hib Vaccine (3 dose schedule), 20190315",
    "resource": "http://cts.nlm.nih.gov/fhir/ValueSet/2.16.840.1.113883.3.464.1003.110.12.1083|20190315"
  }, {
    "type": "depends-on",
    "display": "ValueSet HiB Vaccine (3 dose schedule) Administered, 20210923",
    "resource": "http://cts.nlm.nih.gov/fhir/ValueSet/2.16.840.1.113883.3.464.1003.110.11.1153|20210923"
  }, {
    "type": "depends-on",
    "display": "ValueSet HiB Vaccine (3 dose schedule) Administered, 20240302",
    "resource": "http://cts.nlm.nih.gov/fhir/ValueSet/2.16.840.1.113883.3.464.1003.110.11.1156|20240302"
  }, {
    "type": "depends-on",
    "display": "ValueSet Hib Vaccine (3 dose schedule) Administered, 20190315",
    "resource": "http://cts.nlm.nih.gov/fhir/ValueSet/2.16.840.1.113883.3.464.1003.110.12.1084|20190315"
  }, {
    "type": "depends-on",
    "display": "ValueSet HiB Vaccine (4 dose schedule), 20210923",
    "resource": "http://cts.nlm.nih.gov/fhir/ValueSet/2.16.840.1.113883.3.464.1003.110.11.1154|20210923"
  }, {
    "type": "depends-on",
    "display": "ValueSet Hib Vaccine (4 dose schedule), 20190315",
    "resource": "http://cts.nlm.nih.gov/fhir/ValueSet/2.16.840.1.113883.3.464.1003.110.12.1085|20190315"
  }, {
    "type": "depends-on",
    "display": "ValueSet HiB Vaccine (4 dose schedule) Administered, 20210923",
    "resource": "http://cts.nlm.nih.gov/fhir/ValueSet/2.16.840.1.113883.3.464.1003.110.11.1155|20210923"
  }, {
    "type": "depends-on",
    "display": "ValueSet HiB Vaccine (4 dose schedule) Administered, 20240302",
    "resource": "http://cts.nlm.nih.gov/fhir/ValueSet/2.16.840.1.113883.3.464.1003.110.11.1157|20240302"
  }, {
    "type": "depends-on",
    "display": "ValueSet Hib Vaccine (4 dose schedule) Administered, 20190315",
    "resource": "http://cts.nlm.nih.gov/fhir/ValueSet/2.16.840.1.113883.3.464.1003.110.12.1086|20190315"
  }, {
    "type": "depends-on",
    "display": "ValueSet Hepatitis B Vaccine, 20250409",
    "resource": "http://cts.nlm.nih.gov/fhir/ValueSet/2.16.840.1.113883.3.464.1003.196.11.1216|20250409"
  }, {
    "type": "depends-on",
    "display": "ValueSet Hepatitis B Vaccine, 20170504",
    "resource": "http://cts.nlm.nih.gov/fhir/ValueSet/2.16.840.1.113883.3.464.1003.196.12.1216|20170504"
  }, {
    "type": "depends-on",
    "display": "ValueSet Hepatitis B Vaccine Administered, 20210914",
    "resource": "http://cts.nlm.nih.gov/fhir/ValueSet/2.16.840.1.113883.3.464.1003.110.11.1111|20210914"
  }, {
    "type": "depends-on",
    "display": "ValueSet Hepatitis B Vaccine Administered, 20230211",
    "resource": "http://cts.nlm.nih.gov/fhir/ValueSet/2.16.840.1.113883.3.464.1003.110.11.1112|20230211"
  }, {
    "type": "depends-on",
    "display": "ValueSet Hepatitis B Vaccine Administered, 20220909",
    "resource": "http://cts.nlm.nih.gov/fhir/ValueSet/2.16.840.1.113883.3.464.1003.110.12.1042|20220909"
  }, {
    "type": "depends-on",
    "display": "ValueSet Hepatitis B, 20190315",
    "resource": "http://cts.nlm.nih.gov/fhir/ValueSet/2.16.840.1.113883.3.464.1003.110.11.1073|20190315"
  }, {
    "type": "depends-on",
    "display": "ValueSet Hepatitis B, 20210220",
    "resource": "http://cts.nlm.nih.gov/fhir/ValueSet/2.16.840.1.113883.3.464.1003.110.11.1071|20210220"
  }, {
    "type": "depends-on",
    "display": "ValueSet Hepatitis B, 20170504",
    "resource": "http://cts.nlm.nih.gov/fhir/ValueSet/2.16.840.1.113883.3.464.1003.110.12.1025|20170504"
  }, {
    "type": "depends-on",
    "display": "ValueSet Varicella Zoster Vaccine (VZV), 20170504",
    "resource": "http://cts.nlm.nih.gov/fhir/ValueSet/2.16.840.1.113883.3.464.1003.196.11.1234|20170504"
  }, {
    "type": "depends-on",
    "display": "ValueSet Varicella Zoster Vaccine (VZV), 20170504",
    "resource": "http://cts.nlm.nih.gov/fhir/ValueSet/2.16.840.1.113883.3.464.1003.196.12.1170|20170504"
  }, {
    "type": "depends-on",
    "display": "ValueSet Varicella Zoster Vaccine (VZV) Administered, 20230211",
    "resource": "http://cts.nlm.nih.gov/fhir/ValueSet/2.16.840.1.113883.3.464.1003.110.11.1107|20230211"
  }, {
    "type": "depends-on",
    "display": "ValueSet Varicella Zoster Vaccine (VZV) Administered, 20170504",
    "resource": "http://cts.nlm.nih.gov/fhir/ValueSet/2.16.840.1.113883.3.464.1003.110.11.1106|20170504"
  }, {
    "type": "depends-on",
    "display": "ValueSet Varicella Zoster Vaccine (VZV) Administered, 20170504",
    "resource": "http://cts.nlm.nih.gov/fhir/ValueSet/2.16.840.1.113883.3.464.1003.110.12.1040|20170504"
  }, {
    "type": "depends-on",
    "display": "ValueSet Varicella Zoster, 20170504",
    "resource": "http://cts.nlm.nih.gov/fhir/ValueSet/2.16.840.1.113883.3.464.1003.110.11.1104|20170504"
  }, {
    "type": "depends-on",
    "display": "ValueSet Varicella Zoster, 20250110",
    "resource": "http://cts.nlm.nih.gov/fhir/ValueSet/2.16.840.1.113883.3.464.1003.110.11.1105|20250110"
  }, {
    "type": "depends-on",
    "display": "ValueSet Varicella Zoster, 20170504",
    "resource": "http://cts.nlm.nih.gov/fhir/ValueSet/2.16.840.1.113883.3.464.1003.110.12.1039|20170504"
  }, {
    "type": "depends-on",
    "display": "ValueSet Pneumococcal Conjugate Vaccine, 20231116",
    "resource": "http://cts.nlm.nih.gov/fhir/ValueSet/2.16.840.1.113883.3.464.1003.196.11.1228|20231116"
  }, {
    "type": "depends-on",
    "display": "ValueSet Pneumococcal Conjugate Vaccine, 20170504",
    "resource": "http://cts.nlm.nih.gov/fhir/ValueSet/2.16.840.1.113883.3.464.1003.196.12.1221|20170504"
  }, {
    "type": "depends-on",
    "display": "ValueSet Pneumococcal Conjugate Vaccine Administered, 20241107",
    "resource": "http://cts.nlm.nih.gov/fhir/ValueSet/2.16.840.1.113883.3.464.1003.110.11.1133|20241107"
  }, {
    "type": "depends-on",
    "display": "ValueSet Pneumococcal Conjugate Vaccine Administered, 20231116",
    "resource": "http://cts.nlm.nih.gov/fhir/ValueSet/2.16.840.1.113883.3.464.1003.110.11.1119|20231116"
  }, {
    "type": "depends-on",
    "display": "ValueSet Pneumococcal Conjugate Vaccine Administered, 20170504",
    "resource": "http://cts.nlm.nih.gov/fhir/ValueSet/2.16.840.1.113883.3.464.1003.110.12.1046|20170504"
  }, {
    "type": "depends-on",
    "display": "ValueSet Hepatitis A Vaccine, 20180310",
    "resource": "http://cts.nlm.nih.gov/fhir/ValueSet/2.16.840.1.113883.3.464.1003.196.11.1214|20180310"
  }, {
    "type": "depends-on",
    "display": "ValueSet Hepatitis A Vaccine, 20170504",
    "resource": "http://cts.nlm.nih.gov/fhir/ValueSet/2.16.840.1.113883.3.464.1003.196.12.1215|20170504"
  }, {
    "type": "depends-on",
    "display": "ValueSet Hepatitis A Vaccine Administered, 20240207",
    "resource": "http://cts.nlm.nih.gov/fhir/ValueSet/2.16.840.1.113883.3.464.1003.110.11.1110|20240207"
  }, {
    "type": "depends-on",
    "display": "ValueSet Hepatitis A Vaccine Administered, 20170504",
    "resource": "http://cts.nlm.nih.gov/fhir/ValueSet/2.16.840.1.113883.3.464.1003.110.11.1109|20170504"
  }, {
    "type": "depends-on",
    "display": "ValueSet Hepatitis A Vaccine Administered, 20170504",
    "resource": "http://cts.nlm.nih.gov/fhir/ValueSet/2.16.840.1.113883.3.464.1003.110.12.1041|20170504"
  }, {
    "type": "depends-on",
    "display": "ValueSet Hepatitis A, 20170504",
    "resource": "http://cts.nlm.nih.gov/fhir/ValueSet/2.16.840.1.113883.3.464.1003.110.11.1070|20170504"
  }, {
    "type": "depends-on",
    "display": "ValueSet Hepatitis A, 20190315",
    "resource": "http://cts.nlm.nih.gov/fhir/ValueSet/2.16.840.1.113883.3.464.1003.110.11.1068|20190315"
  }, {
    "type": "depends-on",
    "display": "ValueSet Hepatitis A, 20170504",
    "resource": "http://cts.nlm.nih.gov/fhir/ValueSet/2.16.840.1.113883.3.464.1003.110.12.1024|20170504"
  }, {
    "type": "depends-on",
    "display": "ValueSet Rotavirus Vaccine (2 dose schedule) Administered, 20170504",
    "resource": "http://cts.nlm.nih.gov/fhir/ValueSet/2.16.840.1.113883.3.464.1003.110.11.1121|20170504"
  }, {
    "type": "depends-on",
    "display": "ValueSet Rotavirus Vaccine (2 Dose Schedule) Administered, 20190315",
    "resource": "http://cts.nlm.nih.gov/fhir/ValueSet/2.16.840.1.113883.3.464.1003.110.11.1148|20190315"
  }, {
    "type": "depends-on",
    "display": "ValueSet Rotavirus Vaccine (2 dose schedule) Administered, 20190315",
    "resource": "http://cts.nlm.nih.gov/fhir/ValueSet/2.16.840.1.113883.3.464.1003.110.12.1048|20190315"
  }, {
    "type": "depends-on",
    "display": "ValueSet Rotavirus Vaccine (3 dose schedule), 20180310",
    "resource": "http://cts.nlm.nih.gov/fhir/ValueSet/2.16.840.1.113883.3.464.1003.196.11.1232|20180310"
  }, {
    "type": "depends-on",
    "display": "ValueSet Rotavirus Vaccine (3 dose schedule), 20170504",
    "resource": "http://cts.nlm.nih.gov/fhir/ValueSet/2.16.840.1.113883.3.464.1003.196.12.1223|20170504"
  }, {
    "type": "depends-on",
    "display": "ValueSet Rotavirus Vaccine (3 dose schedule) Administered, 20170504",
    "resource": "http://cts.nlm.nih.gov/fhir/ValueSet/2.16.840.1.113883.3.464.1003.110.11.1120|20170504"
  }, {
    "type": "depends-on",
    "display": "ValueSet Rotavirus Vaccine (3 Dose Schedule) Administered, 20190315",
    "resource": "http://cts.nlm.nih.gov/fhir/ValueSet/2.16.840.1.113883.3.464.1003.110.11.1149|20190315"
  }, {
    "type": "depends-on",
    "display": "ValueSet Rotavirus Vaccine (3 dose schedule) Administered, 20190316",
    "resource": "http://cts.nlm.nih.gov/fhir/ValueSet/2.16.840.1.113883.3.464.1003.110.12.1047|20190316"
  }, {
    "type": "depends-on",
    "display": "ValueSet Child Influenza Vaccine, 20220209",
    "resource": "http://cts.nlm.nih.gov/fhir/ValueSet/2.16.840.1.113883.3.464.1003.196.11.1220|20220209"
  }, {
    "type": "depends-on",
    "display": "ValueSet Child Influenza Vaccine, 20170504",
    "resource": "http://cts.nlm.nih.gov/fhir/ValueSet/2.16.840.1.113883.3.464.1003.196.12.1218|20170504"
  }, {
    "type": "depends-on",
    "display": "ValueSet Child Influenza Vaccine Administered, 20230215",
    "resource": "http://cts.nlm.nih.gov/fhir/ValueSet/2.16.840.1.113883.3.464.1003.110.11.1116|20230215"
  }, {
    "type": "depends-on",
    "display": "ValueSet Child Influenza Vaccine Administered, 20230215",
    "resource": "http://cts.nlm.nih.gov/fhir/ValueSet/2.16.840.1.113883.3.464.1003.110.11.1115|20230215"
  }, {
    "type": "depends-on",
    "display": "ValueSet Child Influenza Vaccine Administered, 20170504",
    "resource": "http://cts.nlm.nih.gov/fhir/ValueSet/2.16.840.1.113883.3.464.1003.110.12.1044|20170504"
  }, {
    "type": "depends-on",
    "display": "ValueSet Influenza Virus LAIV Vaccine, 20210224",
    "resource": "http://cts.nlm.nih.gov/fhir/ValueSet/2.16.840.1.113883.3.464.1003.199.11.1107|20210224"
  }, {
    "type": "depends-on",
    "display": "ValueSet Influenza Virus LAIV Vaccine, 20210224",
    "resource": "http://cts.nlm.nih.gov/fhir/ValueSet/2.16.840.1.113883.3.464.1003.110.12.1087|20210224"
  }, {
    "type": "depends-on",
    "display": "ValueSet Influenza Virus LAIV Vaccine Administered, 20210224",
    "resource": "http://cts.nlm.nih.gov/fhir/ValueSet/2.16.840.1.113883.3.464.1003.199.11.1108|20210224"
  }, {
    "type": "depends-on",
    "display": "ValueSet Influenza Virus LAIV Vaccine Administered, 20210224",
    "resource": "http://cts.nlm.nih.gov/fhir/ValueSet/2.16.840.1.113883.3.464.1003.110.12.1088|20210224"
  }, {
    "type": "depends-on",
    "display": "ValueSet Home Healthcare Services, 20210220",
    "resource": "http://cts.nlm.nih.gov/fhir/ValueSet/2.16.840.1.113883.3.464.1003.101.11.1265|20210220"
  }, {
    "type": "depends-on",
    "display": "ValueSet Home Healthcare Services, 20240210",
    "resource": "http://cts.nlm.nih.gov/fhir/ValueSet/2.16.840.1.113883.3.464.1003.101.11.1080|20240210"
  }, {
    "type": "depends-on",
    "display": "ValueSet Home Healthcare Services, 20240110",
    "resource": "http://cts.nlm.nih.gov/fhir/ValueSet/2.16.840.1.113883.3.464.1003.101.12.1016|20240110"
  }, {
    "type": "depends-on",
    "display": "ValueSet Severe Combined Immunodeficiency, 20230208",
    "resource": "http://cts.nlm.nih.gov/fhir/ValueSet/2.16.840.1.113883.3.464.1003.120.11.1012|20230208"
  }, {
    "type": "depends-on",
    "display": "ValueSet Severe Combined Immunodeficiency, 20170504",
    "resource": "http://cts.nlm.nih.gov/fhir/ValueSet/2.16.840.1.113883.3.464.1003.120.11.1011|20170504"
  }, {
    "type": "depends-on",
    "display": "ValueSet Severe Combined Immunodeficiency, 20170504",
    "resource": "http://cts.nlm.nih.gov/fhir/ValueSet/2.16.840.1.113883.3.464.1003.120.12.1007|20170504"
  }, {
    "type": "depends-on",
    "display": "ValueSet Disorders of the Immune System, 20240206",
    "resource": "http://cts.nlm.nih.gov/fhir/ValueSet/2.16.840.1.113883.3.464.1003.120.11.1003|20240206"
  }, {
    "type": "depends-on",
    "display": "ValueSet Disorders of the Immune System, 20240206",
    "resource": "http://cts.nlm.nih.gov/fhir/ValueSet/2.16.840.1.113883.3.464.1003.120.11.1001|20240206"
  }, {
    "type": "depends-on",
    "display": "ValueSet Disorders of the Immune System, 20170504",
    "resource": "http://cts.nlm.nih.gov/fhir/ValueSet/2.16.840.1.113883.3.464.1003.120.12.1001|20170504"
  }, {
    "type": "depends-on",
    "display": "ValueSet HIV 1, 20241106",
    "resource": "http://cts.nlm.nih.gov/fhir/ValueSet/2.16.840.1.113883.3.464.1003.120.11.1007|20241106"
  }, {
    "type": "depends-on",
    "display": "ValueSet HIV 2, 20230214",
    "resource": "http://cts.nlm.nih.gov/fhir/ValueSet/2.16.840.1.113883.3.464.1003.120.11.1008|20230214"
  }, {
    "type": "depends-on",
    "display": "ValueSet HIV 2, 20170504",
    "resource": "http://cts.nlm.nih.gov/fhir/ValueSet/2.16.840.1.113883.3.464.1003.120.11.1010|20170504"
  }, {
    "type": "depends-on",
    "display": "ValueSet HIV 1, 20240207",
    "resource": "http://cts.nlm.nih.gov/fhir/ValueSet/2.16.840.1.113883.3.464.1003.120.11.1005|20240207"
  }, {
    "type": "depends-on",
    "display": "ValueSet HIV, 20240106",
    "resource": "http://cts.nlm.nih.gov/fhir/ValueSet/2.16.840.1.113883.3.464.1003.120.12.1003|20240106"
  }, {
    "type": "depends-on",
    "display": "ValueSet Malignant Neoplasm of Lymphatic and Hematopoietic Tissue, 20240207",
    "resource": "http://cts.nlm.nih.gov/fhir/ValueSet/2.16.840.1.113883.3.464.1003.108.11.1025|20240207"
  }, {
    "type": "depends-on",
    "display": "ValueSet Malignant Neoplasm of Lymphatic and Hematopoietic Tissue, 20220217",
    "resource": "http://cts.nlm.nih.gov/fhir/ValueSet/2.16.840.1.113883.3.464.1003.108.11.1027|20220217"
  }, {
    "type": "depends-on",
    "display": "ValueSet Malignant Neoplasm of Lymphatic and Hematopoietic Tissue, 20170504",
    "resource": "http://cts.nlm.nih.gov/fhir/ValueSet/2.16.840.1.113883.3.464.1003.108.12.1009|20170504"
  }, {
    "type": "depends-on",
    "display": "ValueSet Intussusception, 20210220",
    "resource": "http://cts.nlm.nih.gov/fhir/ValueSet/2.16.840.1.113883.3.464.1003.199.11.1106|20210220"
  }, {
    "type": "depends-on",
    "display": "ValueSet Intussusception, 20170504",
    "resource": "http://cts.nlm.nih.gov/fhir/ValueSet/2.16.840.1.113883.3.464.1003.199.11.1105|20170504"
  }, {
    "type": "depends-on",
    "display": "ValueSet Intussusception, 20170504",
    "resource": "http://cts.nlm.nih.gov/fhir/ValueSet/2.16.840.1.113883.3.464.1003.199.12.1056|20170504"
  }, {
    "type": "depends-on",
    "resource": "http://hl7.org/fhir/us/qicore/StructureDefinition/qicore-immunization"
  }, {
    "type": "depends-on",
    "resource": "http://terminology.hl7.org/CodeSystem/v3-TimingEvent"
  }, {
    "type": "depends-on",
    "resource": "http://hl7.org/fhir/event-timing"
  }, {
    "type": "depends-on",
    "display": "Library CumulativeMedicationDuration, 6.0.000",
    "resource": "https://madie.cms.gov/Library/CumulativeMedicationDuration|6.0.000"
  }, {
    "type": "depends-on",
    "resource": "http://terminology.hl7.org/CodeSystem/ex-diagnosistype"
  }, {
    "type": "depends-on",
    "resource": "http://terminology.hl7.org/CodeSystem/ex-procedure-type"
  }, {
    "type": "depends-on",
    "resource": "https://www.cms.gov/Medicare/Medicare-Fee-for-Service-Payment/HospitalAcqCond/Coding"
  }, {
    "type": "depends-on",
    "display": "ValueSet Emergency Department Visit, 20210611",
    "resource": "http://cts.nlm.nih.gov/fhir/ValueSet/2.16.840.1.113883.3.117.1.7.1.292|20210611"
  }, {
    "type": "depends-on",
    "resource": "https://www.cdc.gov/nhsn/cdaportal/terminology/codesystem/hsloc.html"
  }, {
    "type": "depends-on",
    "display": "ValueSet Intensive Care Unit, 20210220",
    "resource": "http://cts.nlm.nih.gov/fhir/ValueSet/2.16.840.1.113762.1.4.1029.204|20210220"
  }, {
    "type": "depends-on",
    "display": "ValueSet Intensive Care Unit, 20210220",
    "resource": "http://cts.nlm.nih.gov/fhir/ValueSet/2.16.840.1.113762.1.4.1110.23|20210220"
  }, {
    "type": "depends-on",
    "display": "ValueSet Intensive Care Unit, 20210220",
    "resource": "http://cts.nlm.nih.gov/fhir/ValueSet/2.16.840.1.113762.1.4.1029.206|20210220"
  }, {
    "type": "depends-on",
    "display": "ValueSet Observation Services, 20210611",
    "resource": "http://cts.nlm.nih.gov/fhir/ValueSet/2.16.840.1.113762.1.4.1111.143|20210611"
  }, {
    "type": "depends-on",
    "display": "ValueSet Outpatient Surgery Service, 20190426",
    "resource": "http://cts.nlm.nih.gov/fhir/ValueSet/2.16.840.1.113762.1.4.1110.38|20190426"
  }, {
    "type": "depends-on",
    "display": "ValueSet Present on Admission or Clinically Undetermined, 20220415",
    "resource": "http://cts.nlm.nih.gov/fhir/ValueSet/2.16.840.1.113762.1.4.1147.197|20220415"
  }, {
    "type": "depends-on",
    "resource": "http://hl7.org/fhir/us/qicore/StructureDefinition/qicore-location"
  }, {
    "type": "depends-on",
    "resource": "http://hl7.org/fhir/us/qicore/StructureDefinition/qicore-claim"
  }, {
    "type": "depends-on",
    "display": "Library CQMCommon, 4.0.000",
    "resource": "https://madie.cms.gov/Library/CQMCommon|4.0.000"
  }, {
    "type": "depends-on",
    "display": "ValueSet Antidepressant Medication, 20240210",
    "resource": "http://cts.nlm.nih.gov/fhir/ValueSet/2.16.840.1.113883.3.464.1003.196.11.1530|20240210"
  }, {
    "type": "depends-on",
    "display": "ValueSet Antidepressant Medication, 20210306",
    "resource": "http://cts.nlm.nih.gov/fhir/ValueSet/2.16.840.1.113883.3.464.1003.196.12.1213|20210306"
  }, {
    "type": "depends-on",
    "display": "ValueSet Major Depression, 20230124",
    "resource": "http://cts.nlm.nih.gov/fhir/ValueSet/2.16.840.1.113883.3.464.1003.105.11.1017|20230124"
  }, {
    "type": "depends-on",
    "display": "ValueSet Major Depression, 20170504",
    "resource": "http://cts.nlm.nih.gov/fhir/ValueSet/2.16.840.1.113883.3.464.1003.105.11.1019|20170504"
  }, {
    "type": "depends-on",
    "display": "ValueSet Major Depression, 20170504",
    "resource": "http://cts.nlm.nih.gov/fhir/ValueSet/2.16.840.1.113883.3.464.1003.105.12.1007|20170504"
  }, {
    "type": "depends-on",
    "display": "ValueSet Annual Wellness Visit, 20231221",
    "resource": "http://cts.nlm.nih.gov/fhir/ValueSet/2.16.840.1.113883.3.526.2.1363|20231221"
  }, {
    "type": "depends-on",
    "display": "ValueSet Annual Wellness Visit, 20240206",
    "resource": "http://cts.nlm.nih.gov/fhir/ValueSet/2.16.840.1.113883.3.526.2.1772|20240206"
  }, {
    "type": "depends-on",
    "display": "ValueSet Annual Wellness Visit, 20190315",
    "resource": "http://cts.nlm.nih.gov/fhir/ValueSet/2.16.840.1.113883.3.526.3.1240|20190315"
  }, {
    "type": "depends-on",
    "display": "ValueSet Nursing Facility Visit, 20180310",
    "resource": "http://cts.nlm.nih.gov/fhir/ValueSet/2.16.840.1.113883.3.464.1003.101.11.1261|20180310"
  }, {
    "type": "depends-on",
    "display": "ValueSet Nursing Facility Visit, 20240203",
    "resource": "http://cts.nlm.nih.gov/fhir/ValueSet/2.16.840.1.113883.3.464.1003.101.11.1060|20240203"
  }, {
    "type": "depends-on",
    "display": "ValueSet Nursing Facility Visit, 20240110",
    "resource": "http://cts.nlm.nih.gov/fhir/ValueSet/2.16.840.1.113883.3.464.1003.101.12.1012|20240110"
  }, {
    "type": "depends-on",
    "display": "ValueSet Psych Visit Psychotherapy, 20170504",
    "resource": "http://cts.nlm.nih.gov/fhir/ValueSet/2.16.840.1.113883.3.526.2.1927|20170504"
  }, {
    "type": "depends-on",
    "display": "ValueSet Psych Visit Psychotherapy, 20190315",
    "resource": "http://cts.nlm.nih.gov/fhir/ValueSet/2.16.840.1.113883.3.526.2.1777|20190315"
  }, {
    "type": "depends-on",
    "display": "ValueSet Psych Visit Psychotherapy, 20190315",
    "resource": "http://cts.nlm.nih.gov/fhir/ValueSet/2.16.840.1.113883.3.526.3.1496|20190315"
  }, {
    "type": "depends-on",
    "resource": "http://hl7.org/fhir/us/qicore/StructureDefinition/qicore-medicationdispense"
  }, {
    "type": "depends-on",
    "display": "ValueSet Cataract Surgery, 20250125",
    "resource": "http://cts.nlm.nih.gov/fhir/ValueSet/2.16.840.1.113883.3.526.2.1527|20250125"
  }, {
    "type": "depends-on",
    "display": "ValueSet Cataract Surgery, 20250125",
    "resource": "http://cts.nlm.nih.gov/fhir/ValueSet/2.16.840.1.113883.3.526.2.1528|20250125"
  }, {
    "type": "depends-on",
    "display": "ValueSet Cataract Surgery, 20210210",
    "resource": "http://cts.nlm.nih.gov/fhir/ValueSet/2.16.840.1.113883.3.526.3.1411|20210210"
  }, {
    "type": "depends-on",
    "display": "ValueSet Best Corrected Visual Acuity Exam Using Snellen Chart, 20210210",
    "resource": "http://cts.nlm.nih.gov/fhir/ValueSet/2.16.840.1.113883.3.526.2.1781|20210210"
  }, {
    "type": "depends-on",
    "display": "ValueSet Best Corrected Visual Acuity Exam Using Snellen Chart, 20210210",
    "resource": "http://cts.nlm.nih.gov/fhir/ValueSet/2.16.840.1.113883.3.526.3.1560|20210210"
  }, {
    "type": "depends-on",
    "display": "ValueSet Visual Acuity 20/40 or Better, 20210214",
    "resource": "http://cts.nlm.nih.gov/fhir/ValueSet/2.16.840.1.113883.3.526.2.1731|20210214"
  }, {
    "type": "depends-on",
    "display": "ValueSet Visual Acuity 20/40 or Better, 20210214",
    "resource": "http://cts.nlm.nih.gov/fhir/ValueSet/2.16.840.1.113883.3.526.3.1483|20210214"
  }, {
    "type": "depends-on",
    "display": "ValueSet Acute and Subacute Iridocyclitis, 20250125",
    "resource": "http://cts.nlm.nih.gov/fhir/ValueSet/2.16.840.1.113883.3.526.2.1509|20250125"
  }, {
    "type": "depends-on",
    "display": "ValueSet Acute and Subacute Iridocyclitis, 20250125",
    "resource": "http://cts.nlm.nih.gov/fhir/ValueSet/2.16.840.1.113883.3.526.2.1344|20250125"
  }, {
    "type": "depends-on",
    "display": "ValueSet Acute and Subacute Iridocyclitis, 20210210",
    "resource": "http://cts.nlm.nih.gov/fhir/ValueSet/2.16.840.1.113883.3.526.3.1241|20210210"
  }, {
    "type": "depends-on",
    "display": "ValueSet Amblyopia, 20210210",
    "resource": "http://cts.nlm.nih.gov/fhir/ValueSet/2.16.840.1.113883.3.526.2.1626|20210210"
  }, {
    "type": "depends-on",
    "display": "ValueSet Amblyopia, 20250125",
    "resource": "http://cts.nlm.nih.gov/fhir/ValueSet/2.16.840.1.113883.3.526.2.1628|20250125"
  }, {
    "type": "depends-on",
    "display": "ValueSet Amblyopia, 20210210",
    "resource": "http://cts.nlm.nih.gov/fhir/ValueSet/2.16.840.1.113883.3.526.3.1448|20210210"
  }, {
    "type": "depends-on",
    "display": "ValueSet Burn Confined to Eye and Adnexa, 20210210",
    "resource": "http://cts.nlm.nih.gov/fhir/ValueSet/2.16.840.1.113883.3.526.2.1523|20210210"
  }, {
    "type": "depends-on",
    "display": "ValueSet Burn Confined to Eye and Adnexa, 20250125",
    "resource": "http://cts.nlm.nih.gov/fhir/ValueSet/2.16.840.1.113883.3.526.2.1521|20250125"
  }, {
    "type": "depends-on",
    "display": "ValueSet Burn Confined to Eye and Adnexa, 20210210",
    "resource": "http://cts.nlm.nih.gov/fhir/ValueSet/2.16.840.1.113883.3.526.3.1409|20210210"
  }, {
    "type": "depends-on",
    "display": "ValueSet Cataract Secondary to Ocular Disorders, 20250125",
    "resource": "http://cts.nlm.nih.gov/fhir/ValueSet/2.16.840.1.113883.3.526.2.1524|20250125"
  }, {
    "type": "depends-on",
    "display": "ValueSet Cataract Secondary to Ocular Disorders, 20210210",
    "resource": "http://cts.nlm.nih.gov/fhir/ValueSet/2.16.840.1.113883.3.526.2.1526|20210210"
  }, {
    "type": "depends-on",
    "display": "ValueSet Cataract Secondary to Ocular Disorders, 20210210",
    "resource": "http://cts.nlm.nih.gov/fhir/ValueSet/2.16.840.1.113883.3.526.3.1410|20210210"
  }, {
    "type": "depends-on",
    "display": "ValueSet Cataract Congenital, 20250125",
    "resource": "http://cts.nlm.nih.gov/fhir/ValueSet/2.16.840.1.113883.3.526.2.1530|20250125"
  }, {
    "type": "depends-on",
    "display": "ValueSet Cataract Congenital, 20210210",
    "resource": "http://cts.nlm.nih.gov/fhir/ValueSet/2.16.840.1.113883.3.526.2.1529|20210210"
  }, {
    "type": "depends-on",
    "display": "ValueSet Cataract Congenital, 20210210",
    "resource": "http://cts.nlm.nih.gov/fhir/ValueSet/2.16.840.1.113883.3.526.3.1412|20210210"
  }, {
    "type": "depends-on",
    "display": "ValueSet Cataract Mature or Hypermature, 20250125",
    "resource": "http://cts.nlm.nih.gov/fhir/ValueSet/2.16.840.1.113883.3.526.2.1534|20250125"
  }, {
    "type": "depends-on",
    "display": "ValueSet Cataract Mature or Hypermature, 20250125",
    "resource": "http://cts.nlm.nih.gov/fhir/ValueSet/2.16.840.1.113883.3.526.2.1532|20250125"
  }, {
    "type": "depends-on",
    "display": "ValueSet Cataract Mature or Hypermature, 20210210",
    "resource": "http://cts.nlm.nih.gov/fhir/ValueSet/2.16.840.1.113883.3.526.3.1413|20210210"
  }, {
    "type": "depends-on",
    "display": "ValueSet Cataract Posterior Polar, 20210210",
    "resource": "http://cts.nlm.nih.gov/fhir/ValueSet/2.16.840.1.113883.3.526.2.1537|20210210"
  }, {
    "type": "depends-on",
    "display": "ValueSet Cataract Posterior Polar, 20250125",
    "resource": "http://cts.nlm.nih.gov/fhir/ValueSet/2.16.840.1.113883.3.526.2.1535|20250125"
  }, {
    "type": "depends-on",
    "display": "ValueSet Cataract Posterior Polar, 20210210",
    "resource": "http://cts.nlm.nih.gov/fhir/ValueSet/2.16.840.1.113883.3.526.3.1414|20210210"
  }, {
    "type": "depends-on",
    "display": "ValueSet Central Corneal Ulcer, 20210210",
    "resource": "http://cts.nlm.nih.gov/fhir/ValueSet/2.16.840.1.113883.3.526.2.1578|20210210"
  }, {
    "type": "depends-on",
    "display": "ValueSet Central Corneal Ulcer, 20250125",
    "resource": "http://cts.nlm.nih.gov/fhir/ValueSet/2.16.840.1.113883.3.526.2.1577|20250125"
  }, {
    "type": "depends-on",
    "display": "ValueSet Central Corneal Ulcer, 20210210",
    "resource": "http://cts.nlm.nih.gov/fhir/ValueSet/2.16.840.1.113883.3.526.3.1428|20210210"
  }, {
    "type": "depends-on",
    "display": "ValueSet Certain Types of Iridocyclitis, 20250125",
    "resource": "http://cts.nlm.nih.gov/fhir/ValueSet/2.16.840.1.113883.3.526.2.1538|20250125"
  }, {
    "type": "depends-on",
    "display": "ValueSet Certain Types of Iridocyclitis, 20210210",
    "resource": "http://cts.nlm.nih.gov/fhir/ValueSet/2.16.840.1.113883.3.526.2.1540|20210210"
  }, {
    "type": "depends-on",
    "display": "ValueSet Certain Types of Iridocyclitis, 20210210",
    "resource": "http://cts.nlm.nih.gov/fhir/ValueSet/2.16.840.1.113883.3.526.3.1415|20210210"
  }, {
    "type": "depends-on",
    "display": "ValueSet Choroidal Degenerations, 20250125",
    "resource": "http://cts.nlm.nih.gov/fhir/ValueSet/2.16.840.1.113883.3.526.2.1632|20250125"
  }, {
    "type": "depends-on",
    "display": "ValueSet Choroidal Degenerations, 20250125",
    "resource": "http://cts.nlm.nih.gov/fhir/ValueSet/2.16.840.1.113883.3.526.2.1634|20250125"
  }, {
    "type": "depends-on",
    "display": "ValueSet Choroidal Degenerations, 20210210",
    "resource": "http://cts.nlm.nih.gov/fhir/ValueSet/2.16.840.1.113883.3.526.3.1450|20210210"
  }, {
    "type": "depends-on",
    "display": "ValueSet Choroidal Detachment, 20250125",
    "resource": "http://cts.nlm.nih.gov/fhir/ValueSet/2.16.840.1.113883.3.526.2.1637|20250125"
  }, {
    "type": "depends-on",
    "display": "ValueSet Choroidal Detachment, 20241228",
    "resource": "http://cts.nlm.nih.gov/fhir/ValueSet/2.16.840.1.113883.3.526.2.1635|20241228"
  }, {
    "type": "depends-on",
    "display": "ValueSet Choroidal Detachment, 20210210",
    "resource": "http://cts.nlm.nih.gov/fhir/ValueSet/2.16.840.1.113883.3.526.3.1451|20210210"
  }, {
    "type": "depends-on",
    "display": "ValueSet Choroidal Hemorrhage and Rupture, 20250125",
    "resource": "http://cts.nlm.nih.gov/fhir/ValueSet/2.16.840.1.113883.3.526.2.1640|20250125"
  }, {
    "type": "depends-on",
    "display": "ValueSet Choroidal Hemorrhage and Rupture, 20210210",
    "resource": "http://cts.nlm.nih.gov/fhir/ValueSet/2.16.840.1.113883.3.526.2.1638|20210210"
  }, {
    "type": "depends-on",
    "display": "ValueSet Choroidal Hemorrhage and Rupture, 20210210",
    "resource": "http://cts.nlm.nih.gov/fhir/ValueSet/2.16.840.1.113883.3.526.3.1452|20210210"
  }, {
    "type": "depends-on",
    "display": "ValueSet Chronic Iridocyclitis, 20250125",
    "resource": "http://cts.nlm.nih.gov/fhir/ValueSet/2.16.840.1.113883.3.526.2.1542|20250125"
  }, {
    "type": "depends-on",
    "display": "ValueSet Chronic Iridocyclitis, 20250125",
    "resource": "http://cts.nlm.nih.gov/fhir/ValueSet/2.16.840.1.113883.3.526.2.1543|20250125"
  }, {
    "type": "depends-on",
    "display": "ValueSet Chronic Iridocyclitis, 20210210",
    "resource": "http://cts.nlm.nih.gov/fhir/ValueSet/2.16.840.1.113883.3.526.3.1416|20210210"
  }, {
    "type": "depends-on",
    "display": "ValueSet Cloudy Cornea, 20210210",
    "resource": "http://cts.nlm.nih.gov/fhir/ValueSet/2.16.840.1.113883.3.526.2.1546|20210210"
  }, {
    "type": "depends-on",
    "display": "ValueSet Cloudy Cornea, 20210210",
    "resource": "http://cts.nlm.nih.gov/fhir/ValueSet/2.16.840.1.113883.3.526.2.1544|20210210"
  }, {
    "type": "depends-on",
    "display": "ValueSet Cloudy Cornea, 20210210",
    "resource": "http://cts.nlm.nih.gov/fhir/ValueSet/2.16.840.1.113883.3.526.3.1417|20210210"
  }, {
    "type": "depends-on",
    "display": "ValueSet Corneal Edema, 20210210",
    "resource": "http://cts.nlm.nih.gov/fhir/ValueSet/2.16.840.1.113883.3.526.2.1549|20210210"
  }, {
    "type": "depends-on",
    "display": "ValueSet Corneal Edema, 20210210",
    "resource": "http://cts.nlm.nih.gov/fhir/ValueSet/2.16.840.1.113883.3.526.2.1548|20210210"
  }, {
    "type": "depends-on",
    "display": "ValueSet Corneal Edema, 20210210",
    "resource": "http://cts.nlm.nih.gov/fhir/ValueSet/2.16.840.1.113883.3.526.3.1418|20210210"
  }, {
    "type": "depends-on",
    "display": "ValueSet Disorders of Cornea Including Corneal Opacity, 20210210",
    "resource": "http://cts.nlm.nih.gov/fhir/ValueSet/2.16.840.1.113883.3.526.2.1552|20210210"
  }, {
    "type": "depends-on",
    "display": "ValueSet Disorders of Cornea Including Corneal Opacity, 20250125",
    "resource": "http://cts.nlm.nih.gov/fhir/ValueSet/2.16.840.1.113883.3.526.2.1550|20250125"
  }, {
    "type": "depends-on",
    "display": "ValueSet Disorders of Cornea Including Corneal Opacity, 20210210",
    "resource": "http://cts.nlm.nih.gov/fhir/ValueSet/2.16.840.1.113883.3.526.3.1419|20210210"
  }, {
    "type": "depends-on",
    "display": "ValueSet Degeneration of Macula and Posterior Pole, 20250125",
    "resource": "http://cts.nlm.nih.gov/fhir/ValueSet/2.16.840.1.113883.3.526.2.1643|20250125"
  }, {
    "type": "depends-on",
    "display": "ValueSet Degeneration of Macula and Posterior Pole, 20210210",
    "resource": "http://cts.nlm.nih.gov/fhir/ValueSet/2.16.840.1.113883.3.526.2.1641|20210210"
  }, {
    "type": "depends-on",
    "display": "ValueSet Degeneration of Macula and Posterior Pole, 20210210",
    "resource": "http://cts.nlm.nih.gov/fhir/ValueSet/2.16.840.1.113883.3.526.3.1453|20210210"
  }, {
    "type": "depends-on",
    "display": "ValueSet Degenerative Disorders of Globe, 20250125",
    "resource": "http://cts.nlm.nih.gov/fhir/ValueSet/2.16.840.1.113883.3.526.2.1646|20250125"
  }, {
    "type": "depends-on",
    "display": "ValueSet Degenerative Disorders of Globe, 20210214",
    "resource": "http://cts.nlm.nih.gov/fhir/ValueSet/2.16.840.1.113883.3.526.2.1644|20210214"
  }, {
    "type": "depends-on",
    "display": "ValueSet Degenerative Disorders of Globe, 20210214",
    "resource": "http://cts.nlm.nih.gov/fhir/ValueSet/2.16.840.1.113883.3.526.3.1454|20210214"
  }, {
    "type": "depends-on",
    "display": "ValueSet Diabetic Macular Edema, 20250125",
    "resource": "http://cts.nlm.nih.gov/fhir/ValueSet/2.16.840.1.113883.3.526.2.1649|20250125"
  }, {
    "type": "depends-on",
    "display": "ValueSet Diabetic Macular Edema, 20250125",
    "resource": "http://cts.nlm.nih.gov/fhir/ValueSet/2.16.840.1.113883.3.526.2.1647|20250125"
  }, {
    "type": "depends-on",
    "display": "ValueSet Diabetic Macular Edema, 20210214",
    "resource": "http://cts.nlm.nih.gov/fhir/ValueSet/2.16.840.1.113883.3.526.3.1455|20210214"
  }, {
    "type": "depends-on",
    "display": "ValueSet Diabetic Retinopathy, 20210218",
    "resource": "http://cts.nlm.nih.gov/fhir/ValueSet/2.16.840.1.113883.3.526.2.76|20210218"
  }, {
    "type": "depends-on",
    "display": "ValueSet Diabetic Retinopathy, 20250125",
    "resource": "http://cts.nlm.nih.gov/fhir/ValueSet/2.16.840.1.113883.3.526.2.80|20250125"
  }, {
    "type": "depends-on",
    "display": "ValueSet Diabetic Retinopathy, 20210218",
    "resource": "http://cts.nlm.nih.gov/fhir/ValueSet/2.16.840.1.113883.3.526.3.327|20210218"
  }, {
    "type": "depends-on",
    "display": "ValueSet Disorders of Optic Chiasm, 20210214",
    "resource": "http://cts.nlm.nih.gov/fhir/ValueSet/2.16.840.1.113883.3.526.2.1653|20210214"
  }, {
    "type": "depends-on",
    "display": "ValueSet Disorders of Optic Chiasm, 20250125",
    "resource": "http://cts.nlm.nih.gov/fhir/ValueSet/2.16.840.1.113883.3.526.2.1655|20250125"
  }, {
    "type": "depends-on",
    "display": "ValueSet Disorders of Optic Chiasm, 20210214",
    "resource": "http://cts.nlm.nih.gov/fhir/ValueSet/2.16.840.1.113883.3.526.3.1457|20210214"
  }, {
    "type": "depends-on",
    "display": "ValueSet Disorders of Visual Cortex, 20210406",
    "resource": "http://cts.nlm.nih.gov/fhir/ValueSet/2.16.840.1.113883.3.526.2.1656|20210406"
  }, {
    "type": "depends-on",
    "display": "ValueSet Disorders of Visual Cortex, 20250125",
    "resource": "http://cts.nlm.nih.gov/fhir/ValueSet/2.16.840.1.113883.3.526.2.1658|20250125"
  }, {
    "type": "depends-on",
    "display": "ValueSet Disorders of Visual Cortex, 20210214",
    "resource": "http://cts.nlm.nih.gov/fhir/ValueSet/2.16.840.1.113883.3.526.3.1458|20210214"
  }, {
    "type": "depends-on",
    "display": "ValueSet Disseminated Chorioretinitis and Disseminated Retinochoroiditis, 20210214",
    "resource": "http://cts.nlm.nih.gov/fhir/ValueSet/2.16.840.1.113883.3.526.2.1661|20210214"
  }, {
    "type": "depends-on",
    "display": "ValueSet Disseminated Chorioretinitis and Disseminated Retinochoroiditis, 20210214",
    "resource": "http://cts.nlm.nih.gov/fhir/ValueSet/2.16.840.1.113883.3.526.2.1659|20210214"
  }, {
    "type": "depends-on",
    "display": "ValueSet Disseminated Chorioretinitis and Disseminated Retinochoroiditis, 20210214",
    "resource": "http://cts.nlm.nih.gov/fhir/ValueSet/2.16.840.1.113883.3.526.3.1459|20210214"
  }, {
    "type": "depends-on",
    "display": "ValueSet Focal Chorioretinitis and Focal Retinochoroiditis, 20210214",
    "resource": "http://cts.nlm.nih.gov/fhir/ValueSet/2.16.840.1.113883.3.526.2.1662|20210214"
  }, {
    "type": "depends-on",
    "display": "ValueSet Focal Chorioretinitis and Focal Retinochoroiditis, 20250125",
    "resource": "http://cts.nlm.nih.gov/fhir/ValueSet/2.16.840.1.113883.3.526.2.1664|20250125"
  }, {
    "type": "depends-on",
    "display": "ValueSet Focal Chorioretinitis and Focal Retinochoroiditis, 20210214",
    "resource": "http://cts.nlm.nih.gov/fhir/ValueSet/2.16.840.1.113883.3.526.3.1460|20210214"
  }, {
    "type": "depends-on",
    "display": "ValueSet Glaucoma, 20250125",
    "resource": "http://cts.nlm.nih.gov/fhir/ValueSet/2.16.840.1.113883.3.526.2.1562|20250125"
  }, {
    "type": "depends-on",
    "display": "ValueSet Glaucoma, 20210218",
    "resource": "http://cts.nlm.nih.gov/fhir/ValueSet/2.16.840.1.113883.3.526.2.1561|20210218"
  }, {
    "type": "depends-on",
    "display": "ValueSet Glaucoma, 20210218",
    "resource": "http://cts.nlm.nih.gov/fhir/ValueSet/2.16.840.1.113883.3.526.3.1423|20210218"
  }, {
    "type": "depends-on",
    "display": "ValueSet Glaucoma Associated with Congenital Anomalies and Dystrophies and Systemic Syndromes, 20210214",
    "resource": "http://cts.nlm.nih.gov/fhir/ValueSet/2.16.840.1.113883.3.526.2.1665|20210214"
  }, {
    "type": "depends-on",
    "display": "ValueSet Glaucoma Associated with Congenital Anomalies and Dystrophies and Systemic Syndromes, 20250125",
    "resource": "http://cts.nlm.nih.gov/fhir/ValueSet/2.16.840.1.113883.3.526.2.1667|20250125"
  }, {
    "type": "depends-on",
    "display": "ValueSet Glaucoma Associated with Congenital Anomalies and Dystrophies and Systemic Syndromes, 20210214",
    "resource": "http://cts.nlm.nih.gov/fhir/ValueSet/2.16.840.1.113883.3.526.3.1461|20210214"
  }, {
    "type": "depends-on",
    "display": "ValueSet Hereditary Choroidal Dystrophies, 20250125",
    "resource": "http://cts.nlm.nih.gov/fhir/ValueSet/2.16.840.1.113883.3.526.2.1670|20250125"
  }, {
    "type": "depends-on",
    "display": "ValueSet Hereditary Choroidal Dystrophies, 20210214",
    "resource": "http://cts.nlm.nih.gov/fhir/ValueSet/2.16.840.1.113883.3.526.2.1668|20210214"
  }, {
    "type": "depends-on",
    "display": "ValueSet Hereditary Choroidal Dystrophies, 20210214",
    "resource": "http://cts.nlm.nih.gov/fhir/ValueSet/2.16.840.1.113883.3.526.3.1462|20210214"
  }, {
    "type": "depends-on",
    "display": "ValueSet Hereditary Corneal Dystrophies, 20250125",
    "resource": "http://cts.nlm.nih.gov/fhir/ValueSet/2.16.840.1.113883.3.526.2.1564|20250125"
  }, {
    "type": "depends-on",
    "display": "ValueSet Hereditary Corneal Dystrophies, 20210214",
    "resource": "http://cts.nlm.nih.gov/fhir/ValueSet/2.16.840.1.113883.3.526.2.1566|20210214"
  }, {
    "type": "depends-on",
    "display": "ValueSet Hereditary Corneal Dystrophies, 20210214",
    "resource": "http://cts.nlm.nih.gov/fhir/ValueSet/2.16.840.1.113883.3.526.3.1424|20210214"
  }, {
    "type": "depends-on",
    "display": "ValueSet Hereditary Retinal Dystrophies, 20240209",
    "resource": "http://cts.nlm.nih.gov/fhir/ValueSet/2.16.840.1.113883.3.526.2.1671|20240209"
  }, {
    "type": "depends-on",
    "display": "ValueSet Hereditary Retinal Dystrophies, 20250125",
    "resource": "http://cts.nlm.nih.gov/fhir/ValueSet/2.16.840.1.113883.3.526.2.1673|20250125"
  }, {
    "type": "depends-on",
    "display": "ValueSet Hereditary Retinal Dystrophies, 20210219",
    "resource": "http://cts.nlm.nih.gov/fhir/ValueSet/2.16.840.1.113883.3.526.3.1463|20210219"
  }, {
    "type": "depends-on",
    "display": "ValueSet Hypotony of Eye, 20210214",
    "resource": "http://cts.nlm.nih.gov/fhir/ValueSet/2.16.840.1.113883.3.526.2.1572|20210214"
  }, {
    "type": "depends-on",
    "display": "ValueSet Hypotony of Eye, 20250125",
    "resource": "http://cts.nlm.nih.gov/fhir/ValueSet/2.16.840.1.113883.3.526.2.1571|20250125"
  }, {
    "type": "depends-on",
    "display": "ValueSet Hypotony of Eye, 20210214",
    "resource": "http://cts.nlm.nih.gov/fhir/ValueSet/2.16.840.1.113883.3.526.3.1426|20210214"
  }, {
    "type": "depends-on",
    "display": "ValueSet Injury to Optic Nerve and Pathways, 20250125",
    "resource": "http://cts.nlm.nih.gov/fhir/ValueSet/2.16.840.1.113883.3.526.2.1574|20250125"
  }, {
    "type": "depends-on",
    "display": "ValueSet Injury to Optic Nerve and Pathways, 20210214",
    "resource": "http://cts.nlm.nih.gov/fhir/ValueSet/2.16.840.1.113883.3.526.2.1575|20210214"
  }, {
    "type": "depends-on",
    "display": "ValueSet Injury to Optic Nerve and Pathways, 20210214",
    "resource": "http://cts.nlm.nih.gov/fhir/ValueSet/2.16.840.1.113883.3.526.3.1427|20210214"
  }, {
    "type": "depends-on",
    "display": "ValueSet Macular Scar of Posterior Polar, 20250125",
    "resource": "http://cts.nlm.nih.gov/fhir/ValueSet/2.16.840.1.113883.3.526.2.1770|20250125"
  }, {
    "type": "depends-on",
    "display": "ValueSet Macular Scar of Posterior Polar, 20210214",
    "resource": "http://cts.nlm.nih.gov/fhir/ValueSet/2.16.840.1.113883.3.526.2.1769|20210214"
  }, {
    "type": "depends-on",
    "display": "ValueSet Macular Scar of Posterior Polar, 20210218",
    "resource": "http://cts.nlm.nih.gov/fhir/ValueSet/2.16.840.1.113883.3.526.3.1559|20210218"
  }, {
    "type": "depends-on",
    "display": "ValueSet Morgagnian Cataract, 20210214",
    "resource": "http://cts.nlm.nih.gov/fhir/ValueSet/2.16.840.1.113883.3.526.2.1767|20210214"
  }, {
    "type": "depends-on",
    "display": "ValueSet Morgagnian Cataract, 20210214",
    "resource": "http://cts.nlm.nih.gov/fhir/ValueSet/2.16.840.1.113883.3.526.2.1766|20210214"
  }, {
    "type": "depends-on",
    "display": "ValueSet Morgagnian Cataract, 20210214",
    "resource": "http://cts.nlm.nih.gov/fhir/ValueSet/2.16.840.1.113883.3.526.3.1558|20210214"
  }, {
    "type": "depends-on",
    "display": "ValueSet Nystagmus and Other Irregular Eye Movements, 20250125",
    "resource": "http://cts.nlm.nih.gov/fhir/ValueSet/2.16.840.1.113883.3.526.2.1679|20250125"
  }, {
    "type": "depends-on",
    "display": "ValueSet Nystagmus and Other Irregular Eye Movements, 20210308",
    "resource": "http://cts.nlm.nih.gov/fhir/ValueSet/2.16.840.1.113883.3.526.2.1677|20210308"
  }, {
    "type": "depends-on",
    "display": "ValueSet Nystagmus and Other Irregular Eye Movements, 20210308",
    "resource": "http://cts.nlm.nih.gov/fhir/ValueSet/2.16.840.1.113883.3.526.3.1465|20210308"
  }, {
    "type": "depends-on",
    "display": "ValueSet Open Wound of Eyeball, 20250125",
    "resource": "http://cts.nlm.nih.gov/fhir/ValueSet/2.16.840.1.113883.3.526.2.1582|20250125"
  }, {
    "type": "depends-on",
    "display": "ValueSet Open Wound of Eyeball, 20250125",
    "resource": "http://cts.nlm.nih.gov/fhir/ValueSet/2.16.840.1.113883.3.526.2.1583|20250125"
  }, {
    "type": "depends-on",
    "display": "ValueSet Open Wound of Eyeball, 20210406",
    "resource": "http://cts.nlm.nih.gov/fhir/ValueSet/2.16.840.1.113883.3.526.3.1430|20210406"
  }, {
    "type": "depends-on",
    "display": "ValueSet Optic Atrophy, 20210218",
    "resource": "http://cts.nlm.nih.gov/fhir/ValueSet/2.16.840.1.113883.3.526.2.1680|20210218"
  }, {
    "type": "depends-on",
    "display": "ValueSet Optic Atrophy, 20250125",
    "resource": "http://cts.nlm.nih.gov/fhir/ValueSet/2.16.840.1.113883.3.526.2.1682|20250125"
  }, {
    "type": "depends-on",
    "display": "ValueSet Optic Atrophy, 20210218",
    "resource": "http://cts.nlm.nih.gov/fhir/ValueSet/2.16.840.1.113883.3.526.3.1466|20210218"
  }, {
    "type": "depends-on",
    "display": "ValueSet Optic Neuritis, 20210218",
    "resource": "http://cts.nlm.nih.gov/fhir/ValueSet/2.16.840.1.113883.3.526.2.1683|20210218"
  }, {
    "type": "depends-on",
    "display": "ValueSet Optic Neuritis, 20220218",
    "resource": "http://cts.nlm.nih.gov/fhir/ValueSet/2.16.840.1.113883.3.526.2.1685|20220218"
  }, {
    "type": "depends-on",
    "display": "ValueSet Optic Neuritis, 20210218",
    "resource": "http://cts.nlm.nih.gov/fhir/ValueSet/2.16.840.1.113883.3.526.3.1467|20210218"
  }, {
    "type": "depends-on",
    "display": "ValueSet Other and Unspecified Forms of Chorioretinitis and Retinochoroiditis, 20210219",
    "resource": "http://cts.nlm.nih.gov/fhir/ValueSet/2.16.840.1.113883.3.526.2.1686|20210219"
  }, {
    "type": "depends-on",
    "display": "ValueSet Other and Unspecified Forms of Chorioretinitis and Retinochoroiditis, 20250125",
    "resource": "http://cts.nlm.nih.gov/fhir/ValueSet/2.16.840.1.113883.3.526.2.1688|20250125"
  }, {
    "type": "depends-on",
    "display": "ValueSet Other and Unspecified Forms of Chorioretinitis and Retinochoroiditis, 20210219",
    "resource": "http://cts.nlm.nih.gov/fhir/ValueSet/2.16.840.1.113883.3.526.3.1468|20210219"
  }, {
    "type": "depends-on",
    "display": "ValueSet Other Background Retinopathy and Retinal Vascular Changes, 20210218",
    "resource": "http://cts.nlm.nih.gov/fhir/ValueSet/2.16.840.1.113883.3.526.2.1689|20210218"
  }, {
    "type": "depends-on",
    "display": "ValueSet Other Background Retinopathy and Retinal Vascular Changes, 20250125",
    "resource": "http://cts.nlm.nih.gov/fhir/ValueSet/2.16.840.1.113883.3.526.2.1691|20250125"
  }, {
    "type": "depends-on",
    "display": "ValueSet Other Background Retinopathy and Retinal Vascular Changes, 20210218",
    "resource": "http://cts.nlm.nih.gov/fhir/ValueSet/2.16.840.1.113883.3.526.3.1469|20210218"
  }, {
    "type": "depends-on",
    "display": "ValueSet Other Disorders of Optic Nerve, 20210218",
    "resource": "http://cts.nlm.nih.gov/fhir/ValueSet/2.16.840.1.113883.3.526.2.1695|20210218"
  }, {
    "type": "depends-on",
    "display": "ValueSet Other Disorders of Optic Nerve, 20250125",
    "resource": "http://cts.nlm.nih.gov/fhir/ValueSet/2.16.840.1.113883.3.526.2.1697|20250125"
  }, {
    "type": "depends-on",
    "display": "ValueSet Other Disorders of Optic Nerve, 20210218",
    "resource": "http://cts.nlm.nih.gov/fhir/ValueSet/2.16.840.1.113883.3.526.3.1471|20210218"
  }, {
    "type": "depends-on",
    "display": "ValueSet Other Endophthalmitis, 20250125",
    "resource": "http://cts.nlm.nih.gov/fhir/ValueSet/2.16.840.1.113883.3.526.2.1703|20250125"
  }, {
    "type": "depends-on",
    "display": "ValueSet Other Endophthalmitis, 20210218",
    "resource": "http://cts.nlm.nih.gov/fhir/ValueSet/2.16.840.1.113883.3.526.2.1701|20210218"
  }, {
    "type": "depends-on",
    "display": "ValueSet Other Endophthalmitis, 20210218",
    "resource": "http://cts.nlm.nih.gov/fhir/ValueSet/2.16.840.1.113883.3.526.3.1473|20210218"
  }, {
    "type": "depends-on",
    "display": "ValueSet Other Proliferative Retinopathy, 20210218",
    "resource": "http://cts.nlm.nih.gov/fhir/ValueSet/2.16.840.1.113883.3.526.2.1722|20210218"
  }, {
    "type": "depends-on",
    "display": "ValueSet Other Proliferative Retinopathy, 20250125",
    "resource": "http://cts.nlm.nih.gov/fhir/ValueSet/2.16.840.1.113883.3.526.2.1724|20250125"
  }, {
    "type": "depends-on",
    "display": "ValueSet Other Proliferative Retinopathy, 20210218",
    "resource": "http://cts.nlm.nih.gov/fhir/ValueSet/2.16.840.1.113883.3.526.3.1480|20210218"
  }, {
    "type": "depends-on",
    "display": "ValueSet Pathologic Myopia, 20250125",
    "resource": "http://cts.nlm.nih.gov/fhir/ValueSet/2.16.840.1.113883.3.526.2.1587|20250125"
  }, {
    "type": "depends-on",
    "display": "ValueSet Pathologic Myopia, 20210218",
    "resource": "http://cts.nlm.nih.gov/fhir/ValueSet/2.16.840.1.113883.3.526.2.1588|20210218"
  }, {
    "type": "depends-on",
    "display": "ValueSet Pathologic Myopia, 20210218",
    "resource": "http://cts.nlm.nih.gov/fhir/ValueSet/2.16.840.1.113883.3.526.3.1432|20210218"
  }, {
    "type": "depends-on",
    "display": "ValueSet Posterior Lenticonus, 20250125",
    "resource": "http://cts.nlm.nih.gov/fhir/ValueSet/2.16.840.1.113883.3.526.2.1590|20250125"
  }, {
    "type": "depends-on",
    "display": "ValueSet Posterior Lenticonus, 20210218",
    "resource": "http://cts.nlm.nih.gov/fhir/ValueSet/2.16.840.1.113883.3.526.2.1591|20210218"
  }, {
    "type": "depends-on",
    "display": "ValueSet Posterior Lenticonus, 20210314",
    "resource": "http://cts.nlm.nih.gov/fhir/ValueSet/2.16.840.1.113883.3.526.3.1433|20210314"
  }, {
    "type": "depends-on",
    "display": "ValueSet Prior Penetrating Keratoplasty, 20210218",
    "resource": "http://cts.nlm.nih.gov/fhir/ValueSet/2.16.840.1.113883.3.526.2.1707|20210218"
  }, {
    "type": "depends-on",
    "display": "ValueSet Prior Penetrating Keratoplasty, 20210218",
    "resource": "http://cts.nlm.nih.gov/fhir/ValueSet/2.16.840.1.113883.3.526.2.1709|20210218"
  }, {
    "type": "depends-on",
    "display": "ValueSet Prior Penetrating Keratoplasty, 20210218",
    "resource": "http://cts.nlm.nih.gov/fhir/ValueSet/2.16.840.1.113883.3.526.3.1475|20210218"
  }, {
    "type": "depends-on",
    "display": "ValueSet Purulent Endophthalmitis, 20210218",
    "resource": "http://cts.nlm.nih.gov/fhir/ValueSet/2.16.840.1.113883.3.526.2.1713|20210218"
  }, {
    "type": "depends-on",
    "display": "ValueSet Purulent Endophthalmitis, 20250125",
    "resource": "http://cts.nlm.nih.gov/fhir/ValueSet/2.16.840.1.113883.3.526.2.1715|20250125"
  }, {
    "type": "depends-on",
    "display": "ValueSet Purulent Endophthalmitis, 20210218",
    "resource": "http://cts.nlm.nih.gov/fhir/ValueSet/2.16.840.1.113883.3.526.3.1477|20210218"
  }, {
    "type": "depends-on",
    "display": "ValueSet Retinal Detachment with Retinal Defect, 20220218",
    "resource": "http://cts.nlm.nih.gov/fhir/ValueSet/2.16.840.1.113883.3.526.2.1716|20220218"
  }, {
    "type": "depends-on",
    "display": "ValueSet Retinal Detachment with Retinal Defect, 20250125",
    "resource": "http://cts.nlm.nih.gov/fhir/ValueSet/2.16.840.1.113883.3.526.2.1718|20250125"
  }, {
    "type": "depends-on",
    "display": "ValueSet Retinal Detachment with Retinal Defect, 20210218",
    "resource": "http://cts.nlm.nih.gov/fhir/ValueSet/2.16.840.1.113883.3.526.3.1478|20210218"
  }, {
    "type": "depends-on",
    "display": "ValueSet Retinal Vascular Occlusion, 20210218",
    "resource": "http://cts.nlm.nih.gov/fhir/ValueSet/2.16.840.1.113883.3.526.2.1719|20210218"
  }, {
    "type": "depends-on",
    "display": "ValueSet Retinal Vascular Occlusion, 20250208",
    "resource": "http://cts.nlm.nih.gov/fhir/ValueSet/2.16.840.1.113883.3.526.2.1721|20250208"
  }, {
    "type": "depends-on",
    "display": "ValueSet Retinal Vascular Occlusion, 20210218",
    "resource": "http://cts.nlm.nih.gov/fhir/ValueSet/2.16.840.1.113883.3.526.3.1479|20210218"
  }, {
    "type": "depends-on",
    "display": "ValueSet Retrolental Fibroplasias, 20250125",
    "resource": "http://cts.nlm.nih.gov/fhir/ValueSet/2.16.840.1.113883.3.526.2.1601|20250125"
  }, {
    "type": "depends-on",
    "display": "ValueSet Retrolental Fibroplasias, 20210218",
    "resource": "http://cts.nlm.nih.gov/fhir/ValueSet/2.16.840.1.113883.3.526.2.1603|20210218"
  }, {
    "type": "depends-on",
    "display": "ValueSet Retrolental Fibroplasias, 20210218",
    "resource": "http://cts.nlm.nih.gov/fhir/ValueSet/2.16.840.1.113883.3.526.3.1438|20210218"
  }, {
    "type": "depends-on",
    "display": "ValueSet Scleritis, 20210218",
    "resource": "http://cts.nlm.nih.gov/fhir/ValueSet/2.16.840.1.113762.1.4.1226.2|20210218"
  }, {
    "type": "depends-on",
    "display": "ValueSet Scleritis, 20250125",
    "resource": "http://cts.nlm.nih.gov/fhir/ValueSet/2.16.840.1.113762.1.4.1226.3|20250125"
  }, {
    "type": "depends-on",
    "display": "ValueSet Scleritis, 20210308",
    "resource": "http://cts.nlm.nih.gov/fhir/ValueSet/2.16.840.1.113762.1.4.1226.1|20210308"
  }, {
    "type": "depends-on",
    "display": "ValueSet Separation of Retinal Layers, 20250125",
    "resource": "http://cts.nlm.nih.gov/fhir/ValueSet/2.16.840.1.113883.3.526.2.1730|20250125"
  }, {
    "type": "depends-on",
    "display": "ValueSet Separation of Retinal Layers, 20210218",
    "resource": "http://cts.nlm.nih.gov/fhir/ValueSet/2.16.840.1.113883.3.526.2.1728|20210218"
  }, {
    "type": "depends-on",
    "display": "ValueSet Separation of Retinal Layers, 20210218",
    "resource": "http://cts.nlm.nih.gov/fhir/ValueSet/2.16.840.1.113883.3.526.3.1482|20210218"
  }, {
    "type": "depends-on",
    "display": "ValueSet Traumatic Cataract, 20250125",
    "resource": "http://cts.nlm.nih.gov/fhir/ValueSet/2.16.840.1.113883.3.526.2.1613|20250125"
  }, {
    "type": "depends-on",
    "display": "ValueSet Traumatic Cataract, 20210219",
    "resource": "http://cts.nlm.nih.gov/fhir/ValueSet/2.16.840.1.113883.3.526.2.1612|20210219"
  }, {
    "type": "depends-on",
    "display": "ValueSet Traumatic Cataract, 20210219",
    "resource": "http://cts.nlm.nih.gov/fhir/ValueSet/2.16.840.1.113883.3.526.3.1443|20210219"
  }, {
    "type": "depends-on",
    "display": "ValueSet Uveitis, 20210219",
    "resource": "http://cts.nlm.nih.gov/fhir/ValueSet/2.16.840.1.113883.3.526.2.1617|20210219"
  }, {
    "type": "depends-on",
    "display": "ValueSet Uveitis, 20250125",
    "resource": "http://cts.nlm.nih.gov/fhir/ValueSet/2.16.840.1.113883.3.526.2.1615|20250125"
  }, {
    "type": "depends-on",
    "display": "ValueSet Uveitis, 20210219",
    "resource": "http://cts.nlm.nih.gov/fhir/ValueSet/2.16.840.1.113883.3.526.3.1444|20210219"
  }, {
    "type": "depends-on",
    "display": "ValueSet Vascular Disorders of Iris and Ciliary Body, 20210214",
    "resource": "http://cts.nlm.nih.gov/fhir/ValueSet/2.16.840.1.113883.3.526.2.1620|20210214"
  }, {
    "type": "depends-on",
    "display": "ValueSet Vascular Disorders of Iris and Ciliary Body, 20250125",
    "resource": "http://cts.nlm.nih.gov/fhir/ValueSet/2.16.840.1.113883.3.526.2.1618|20250125"
  }, {
    "type": "depends-on",
    "display": "ValueSet Vascular Disorders of Iris and Ciliary Body, 20210214",
    "resource": "http://cts.nlm.nih.gov/fhir/ValueSet/2.16.840.1.113883.3.526.3.1445|20210214"
  }, {
    "type": "depends-on",
    "display": "ValueSet Visual Field Defects, 20220218",
    "resource": "http://cts.nlm.nih.gov/fhir/ValueSet/2.16.840.1.113883.3.526.2.1623|20220218"
  }, {
    "type": "depends-on",
    "display": "ValueSet Visual Field Defects, 20250125",
    "resource": "http://cts.nlm.nih.gov/fhir/ValueSet/2.16.840.1.113883.3.526.2.1621|20250125"
  }, {
    "type": "depends-on",
    "display": "ValueSet Visual Field Defects, 20210220",
    "resource": "http://cts.nlm.nih.gov/fhir/ValueSet/2.16.840.1.113883.3.526.3.1446|20210220"
  }, {
    "type": "depends-on",
    "resource": "http://hl7.org/fhir/us/qicore/StructureDefinition/qicore-observation-clinical-result"
  }, {
    "type": "depends-on",
    "resource": "https://madie.cms.gov/Library/AHAOverall|3.0.000"
  }, {
    "type": "depends-on",
    "display": "ValueSet ACE Inhibitor or ARB or ARNI, 20220218",
    "resource": "http://cts.nlm.nih.gov/fhir/ValueSet/2.16.840.1.113883.3.526.2.39|20220218"
  }, {
    "type": "depends-on",
    "display": "ValueSet ACE Inhibitor or ARB or ARNI, 20210218",
    "resource": "http://cts.nlm.nih.gov/fhir/ValueSet/2.16.840.1.113883.3.526.3.1139|20210218"
  }, {
    "type": "depends-on",
    "display": "ValueSet Care Services in Long Term Residential Facility, 20180310",
    "resource": "http://cts.nlm.nih.gov/fhir/ValueSet/2.16.840.1.113883.3.464.1003.101.11.1262|20180310"
  }, {
    "type": "depends-on",
    "display": "ValueSet Care Services in Long Term Residential Facility, 20240203",
    "resource": "http://cts.nlm.nih.gov/fhir/ValueSet/2.16.840.1.113883.3.464.1003.101.12.1014|20240203"
  }, {
    "type": "depends-on",
    "display": "ValueSet Heart Failure, 20230210",
    "resource": "http://cts.nlm.nih.gov/fhir/ValueSet/2.16.840.1.113883.3.526.2.25|20230210"
  }, {
    "type": "depends-on",
    "display": "ValueSet Heart Failure, 20190315",
    "resource": "http://cts.nlm.nih.gov/fhir/ValueSet/2.16.840.1.113883.3.526.2.24|20190315"
  }, {
    "type": "depends-on",
    "display": "ValueSet Heart Failure, 20210218",
    "resource": "http://cts.nlm.nih.gov/fhir/ValueSet/2.16.840.1.113883.3.526.3.376|20210218"
  }, {
    "type": "depends-on",
    "display": "ValueSet Ejection Fraction, 20250128",
    "resource": "http://cts.nlm.nih.gov/fhir/ValueSet/2.16.840.1.113883.3.526.2.1238|20250128"
  }, {
    "type": "depends-on",
    "display": "ValueSet Ejection Fraction, 20170504",
    "resource": "http://cts.nlm.nih.gov/fhir/ValueSet/2.16.840.1.113883.3.526.3.1134|20170504"
  }, {
    "type": "depends-on",
    "display": "ValueSet Moderate or Severe LVSD, 20170504",
    "resource": "http://cts.nlm.nih.gov/fhir/ValueSet/2.16.840.1.113883.3.526.2.861|20170504"
  }, {
    "type": "depends-on",
    "display": "ValueSet Moderate or Severe LVSD, 20170504",
    "resource": "http://cts.nlm.nih.gov/fhir/ValueSet/2.16.840.1.113883.3.526.3.1090|20170504"
  }, {
    "type": "depends-on",
    "display": "ValueSet Moderate or Severe, 20170504",
    "resource": "http://cts.nlm.nih.gov/fhir/ValueSet/2.16.840.1.113883.3.526.2.860|20170504"
  }, {
    "type": "depends-on",
    "display": "ValueSet Moderate or Severe, 20170504",
    "resource": "http://cts.nlm.nih.gov/fhir/ValueSet/2.16.840.1.113883.3.526.3.1092|20170504"
  }, {
    "type": "depends-on",
    "display": "ValueSet Patient Provider Interaction, 20200306",
    "resource": "http://cts.nlm.nih.gov/fhir/ValueSet/2.16.840.1.113883.3.526.2.1049|20200306"
  }, {
    "type": "depends-on",
    "display": "ValueSet Patient Provider Interaction, 20170504",
    "resource": "http://cts.nlm.nih.gov/fhir/ValueSet/2.16.840.1.113883.3.526.3.1012|20170504"
  }, {
    "type": "depends-on",
    "display": "ValueSet Heart Transplant, 20220218",
    "resource": "http://cts.nlm.nih.gov/fhir/ValueSet/2.16.840.1.113762.1.4.1178.32|20220218"
  }, {
    "type": "depends-on",
    "display": "ValueSet Heart Transplant, 20220218",
    "resource": "http://cts.nlm.nih.gov/fhir/ValueSet/2.16.840.1.113762.1.4.1178.31|20220218"
  }, {
    "type": "depends-on",
    "display": "ValueSet Heart Transplant, 20220218",
    "resource": "http://cts.nlm.nih.gov/fhir/ValueSet/2.16.840.1.113762.1.4.1178.33|20220218"
  }, {
    "type": "depends-on",
    "display": "ValueSet Heart Transplant Complications, 20220316",
    "resource": "http://cts.nlm.nih.gov/fhir/ValueSet/2.16.840.1.113762.1.4.1178.54|20220316"
  }, {
    "type": "depends-on",
    "display": "ValueSet Heart Transplant Complications, 20250128",
    "resource": "http://cts.nlm.nih.gov/fhir/ValueSet/2.16.840.1.113762.1.4.1178.55|20250128"
  }, {
    "type": "depends-on",
    "display": "ValueSet Heart Transplant Complications, 20220218",
    "resource": "http://cts.nlm.nih.gov/fhir/ValueSet/2.16.840.1.113762.1.4.1178.56|20220218"
  }, {
    "type": "depends-on",
    "display": "ValueSet Left Ventricular Assist Device Placement, 20220218",
    "resource": "http://cts.nlm.nih.gov/fhir/ValueSet/2.16.840.1.113762.1.4.1178.62|20220218"
  }, {
    "type": "depends-on",
    "display": "ValueSet Left Ventricular Assist Device Placement, 20230210",
    "resource": "http://cts.nlm.nih.gov/fhir/ValueSet/2.16.840.1.113762.1.4.1178.60|20230210"
  }, {
    "type": "depends-on",
    "display": "ValueSet Left Ventricular Assist Device Placement, 20220218",
    "resource": "http://cts.nlm.nih.gov/fhir/ValueSet/2.16.840.1.113762.1.4.1178.61|20220218"
  }, {
    "type": "depends-on",
    "display": "ValueSet Left Ventricular Assist Device Complications, 20220218",
    "resource": "http://cts.nlm.nih.gov/fhir/ValueSet/2.16.840.1.113762.1.4.1178.57|20220218"
  }, {
    "type": "depends-on",
    "display": "ValueSet Left Ventricular Assist Device Complications, 20220218",
    "resource": "http://cts.nlm.nih.gov/fhir/ValueSet/2.16.840.1.113762.1.4.1178.58|20220218"
  }, {
    "type": "depends-on",
    "display": "ValueSet Patient Reason, 20250208",
    "resource": "http://cts.nlm.nih.gov/fhir/ValueSet/2.16.840.1.113883.3.526.2.311|20250208"
  }, {
    "type": "depends-on",
    "display": "ValueSet Patient Reason, 20170504",
    "resource": "http://cts.nlm.nih.gov/fhir/ValueSet/2.16.840.1.113883.3.526.3.1008|20170504"
  }, {
    "type": "depends-on",
    "display": "ValueSet Patient Reason for ACE Inhibitor or ARB Decline, 20170504",
    "resource": "http://cts.nlm.nih.gov/fhir/ValueSet/2.16.840.1.113883.3.526.2.305|20170504"
  }, {
    "type": "depends-on",
    "display": "ValueSet Patient Reason for ACE Inhibitor or ARB Decline, 20170504",
    "resource": "http://cts.nlm.nih.gov/fhir/ValueSet/2.16.840.1.113883.3.526.3.1140|20170504"
  }, {
    "type": "depends-on",
    "display": "ValueSet ACE Inhibitor or ARB or ARNI Ingredient, 20230217",
    "resource": "http://cts.nlm.nih.gov/fhir/ValueSet/2.16.840.1.113883.3.526.2.1926|20230217"
  }, {
    "type": "depends-on",
    "display": "ValueSet ACE Inhibitor or ARB or ARNI Ingredient, 20230217",
    "resource": "http://cts.nlm.nih.gov/fhir/ValueSet/2.16.840.1.113883.3.526.3.1489|20230217"
  }, {
    "type": "depends-on",
    "display": "ValueSet Allergy to ACE Inhibitor or ARB, 20240202",
    "resource": "http://cts.nlm.nih.gov/fhir/ValueSet/2.16.840.1.113883.3.526.2.1256|20240202"
  }, {
    "type": "depends-on",
    "display": "ValueSet Allergy to ACE Inhibitor or ARB, 20170908",
    "resource": "http://cts.nlm.nih.gov/fhir/ValueSet/2.16.840.1.113883.3.526.3.1211|20170908"
  }, {
    "type": "depends-on",
    "display": "ValueSet Intolerance to ACE Inhibitor or ARB, 20240202",
    "resource": "http://cts.nlm.nih.gov/fhir/ValueSet/2.16.840.1.113883.3.526.2.1257|20240202"
  }, {
    "type": "depends-on",
    "display": "ValueSet Intolerance to ACE Inhibitor or ARB, 20170504",
    "resource": "http://cts.nlm.nih.gov/fhir/ValueSet/2.16.840.1.113883.3.526.3.1212|20170504"
  }, {
    "type": "depends-on",
    "display": "ValueSet Pregnancy, 20250128",
    "resource": "http://cts.nlm.nih.gov/fhir/ValueSet/2.16.840.1.113883.3.526.2.532|20250128"
  }, {
    "type": "depends-on",
    "display": "ValueSet Pregnancy, 20240202",
    "resource": "http://cts.nlm.nih.gov/fhir/ValueSet/2.16.840.1.113883.3.526.2.242|20240202"
  }, {
    "type": "depends-on",
    "display": "ValueSet Pregnancy, 20210218",
    "resource": "http://cts.nlm.nih.gov/fhir/ValueSet/2.16.840.1.113883.3.526.3.378|20210218"
  }, {
    "type": "depends-on",
    "resource": "http://hl7.org/fhir/us/qicore/StructureDefinition/qicore-allergyintolerance"
  } ]
}