{
  "resourceType": "Bundle",
  "id": "617be6951619a529957d62b4",
  "type": "transaction",
  "entry": [ {
    "fullUrl": "https://madie.cms.gov/Patient/ebdb2548-e2a1-4cee-a7df-c824f80b4eab",
    "resource": {
      "resourceType": "Patient",
      "id": "ebdb2548-e2a1-4cee-a7df-c824f80b4eab",
      "meta": {
        "profile": [ "http://hl7.org/fhir/us/qicore/StructureDefinition/qicore-patient" ]
      },
      "extension": [ {
        "url": "http://hl7.org/fhir/us/core/StructureDefinition/us-core-race",
        "extension": [ {
          "url": "ombCategory",
          "valueCoding": {
            "system": "urn:oid:2.16.840.1.113883.6.238",
            "code": "2028-9",
            "display": "Asian",
            "userSelected": true
          }
        }, {
          "url": "text",
          "valueString": "Asian"
        } ]
      }, {
        "url": "http://hl7.org/fhir/us/core/StructureDefinition/us-core-ethnicity",
        "extension": [ {
          "url": "ombCategory",
          "valueCoding": {
            "system": "urn:oid:2.16.840.1.113883.6.238",
            "code": "2186-5",
            "display": "Not Hispanic or Latino",
            "userSelected": true
          }
        }, {
          "url": "text",
          "valueString": "Not Hispanic or Latino"
        } ]
      }, {
        "url": "http://hl7.org/fhir/us/core/StructureDefinition/us-core-sex",
        "valueCode": "248152002"
      } ],
      "identifier": [ {
        "type": {
          "coding": [ {
            "system": "http://terminology.hl7.org/CodeSystem/v2-0203",
            "code": "MR"
          } ]
        },
        "system": "https://bonnie-fhir.healthit.gov/",
        "value": "617be6951619a529957d62b4"
      } ],
      "name": [ {
        "family": "DenExcl6Fail",
        "given": [ "MedStartsWayBeforeED" ]
      } ],
      "gender": "female",
      "birthDate": "1985-12-02"
    },
    "request": {
      "method": "PUT",
      "url": "Patient/ebdb2548-e2a1-4cee-a7df-c824f80b4eab"
    }
  }, {
    "fullUrl": "https://madie.cms.gov/Encounter/51986929-1110-46f4-83e6-c5d5029f2a19",
    "resource": {
      "resourceType": "Encounter",
      "id": "51986929-1110-46f4-83e6-c5d5029f2a19",
      "meta": {
        "profile": [ "http://hl7.org/fhir/us/qicore/StructureDefinition/qicore-encounter" ]
      },
      "status": "finished",
      "class": {
        "system": "http://terminology.hl7.org/CodeSystem/v3-ActCode",
        "code": "EMER",
        "display": "emergency",
        "userSelected": true
      },
      "type": [ {
        "coding": [ {
          "system": "http://snomed.info/sct",
          "version": "2020-09",
          "code": "4525004",
          "display": "Emergency department patient visit (procedure)",
          "userSelected": true
        } ]
      } ],
      "subject": {
        "reference": "Patient/ebdb2548-e2a1-4cee-a7df-c824f80b4eab"
      },
      "period": {
        "start": "2026-10-09T08:05:00.000+00:00",
        "end": "2026-10-10T07:15:00.000+00:00"
      },
      "reasonCode": [ {
        "coding": [ {
          "system": "http://hl7.org/fhir/sid/icd-10-cm",
          "version": "2021",
          "code": "I21.02",
          "display": "ST elevation (STEMI) myocardial infarction involving left anterior descending coronary artery",
          "userSelected": true
        } ]
      } ]
    },
    "request": {
      "method": "PUT",
      "url": "Encounter/51986929-1110-46f4-83e6-c5d5029f2a19"
    }
  }, {
    "fullUrl": "https://madie.cms.gov/MedicationRequest/65f618f5-ea13-4b8b-8356-0a9e5572ab04",
    "resource": {
      "resourceType": "MedicationRequest",
      "id": "65f618f5-ea13-4b8b-8356-0a9e5572ab04",
      "meta": {
        "profile": [ "http://hl7.org/fhir/us/qicore/StructureDefinition/qicore-medicationrequest" ]
      },
      "status": "active",
      "intent": "order",
      "category": [ {
        "coding": [ {
          "system": "http://terminology.hl7.org/CodeSystem/medicationrequest-category",
          "code": "inpatient",
          "display": "Inpatient",
          "userSelected": true
        } ]
      } ],
      "medicationCodeableConcept": {
        "coding": [ {
          "system": "http://www.nlm.nih.gov/research/umls/rxnorm",
          "code": "1114202",
          "display": "rivaroxaban 10 MG Oral Tablet [Xarelto]",
          "userSelected": true
        } ]
      },
      "subject": {
        "reference": "Patient/ebdb2548-e2a1-4cee-a7df-c824f80b4eab"
      },
      "authoredOn": "2026-06-02T08:00:00.000+00:00",
      "requester": {
        "reference": "Practitioner/b1831627-b46e-4eff-bc69-7d75e2ed79c5"
      }
    },
    "request": {
      "method": "PUT",
      "url": "MedicationRequest/65f618f5-ea13-4b8b-8356-0a9e5572ab04"
    }
  }, {
    "fullUrl": "https://madie.cms.gov/Practitioner/b1831627-b46e-4eff-bc69-7d75e2ed79c5",
    "resource": {
      "resourceType": "Practitioner",
      "id": "b1831627-b46e-4eff-bc69-7d75e2ed79c5",
      "meta": {
        "profile": [ "http://hl7.org/fhir/us/qicore/StructureDefinition/qicore-practitioner" ]
      },
      "identifier": [ {
        "system": "http://hl7.org/fhir/sid/us-npi",
        "value": "9999999896"
      } ],
      "name": [ {
        "family": "Evil",
        "prefix": [ "Dr" ]
      } ]
    },
    "request": {
      "method": "PUT",
      "url": "Practitioner/b1831627-b46e-4eff-bc69-7d75e2ed79c5"
    }
  }, {
    "fullUrl": "https://madie.cms.gov/MeasureReport/554ec0fe-bd1a-4146-8c34-f6eed1031c1d",
    "resource": {
      "resourceType": "MeasureReport",
      "id": "554ec0fe-bd1a-4146-8c34-f6eed1031c1d",
      "meta": {
        "profile": [ "http://hl7.org/fhir/us/cqfmeasures/StructureDefinition/test-case-cqfm" ]
      },
      "contained": [ {
        "resourceType": "Parameters",
        "id": "1aa98ad8-89ef-424e-b5a2-755e72e0cbc9-parameters",
        "parameter": [ {
          "name": "subject",
          "valueString": "ebdb2548-e2a1-4cee-a7df-c824f80b4eab"
        } ]
      } ],
      "extension": [ {
        "url": "http://hl7.org/fhir/StructureDefinition/cqf-inputParameters",
        "valueReference": {
          "reference": "#1aa98ad8-89ef-424e-b5a2-755e72e0cbc9-parameters"
        }
      }, {
        "url": "http://hl7.org/fhir/us/cqfmeasures/StructureDefinition/cqfm-testCaseDescription",
        "valueMarkdown": "Patient has anticoagulant medication starts way before ED"
      } ],
      "modifierExtension": [ {
        "url": "http://hl7.org/fhir/us/cqfmeasures/StructureDefinition/cqfm-isTestCase",
        "valueBoolean": true
      } ],
      "status": "complete",
      "type": "individual",
      "measure": "https://madie.cms.gov/Measure/CMS996FHIRAptTxforSTEMI",
      "period": {
        "start": "2026-01-01",
        "end": "2026-12-31"
      },
      "group": [ {
        "id": "Group_1",
        "population": [ {
          "id": "InitialPopulation_1",
          "code": {
            "coding": [ {
              "system": "http://terminology.hl7.org/CodeSystem/measure-population",
              "code": "initial-population",
              "display": "Initial Population"
            } ]
          },
          "count": 1
        }, {
          "id": "Denominator_1",
          "code": {
            "coding": [ {
              "system": "http://terminology.hl7.org/CodeSystem/measure-population",
              "code": "denominator",
              "display": "Denominator"
            } ]
          },
          "count": 1
        }, {
          "id": "DenominatorExclusion_1",
          "code": {
            "coding": [ {
              "system": "http://terminology.hl7.org/CodeSystem/measure-population",
              "code": "denominator-exclusion",
              "display": "Denominator Exclusion"
            } ]
          },
          "count": 0
        }, {
          "id": "Numerator_1",
          "code": {
            "coding": [ {
              "system": "http://terminology.hl7.org/CodeSystem/measure-population",
              "code": "numerator",
              "display": "Numerator"
            } ]
          },
          "count": 0
        }, {
          "id": "DenominatorException_1",
          "code": {
            "coding": [ {
              "system": "http://terminology.hl7.org/CodeSystem/measure-population",
              "code": "denominator-exception",
              "display": "Denominator Exception"
            } ]
          },
          "count": 0
        } ],
        "measureScore": {
          "value": 0.0
        }
      } ],
      "evaluatedResource": [ {
        "reference": "Patient/ebdb2548-e2a1-4cee-a7df-c824f80b4eab"
      }, {
        "reference": "Encounter/51986929-1110-46f4-83e6-c5d5029f2a19"
      }, {
        "reference": "MedicationRequest/65f618f5-ea13-4b8b-8356-0a9e5572ab04"
      }, {
        "reference": "Practitioner/b1831627-b46e-4eff-bc69-7d75e2ed79c5"
      } ]
    },
    "request": {
      "method": "PUT",
      "url": "MeasureReport/554ec0fe-bd1a-4146-8c34-f6eed1031c1d"
    }
  } ]
}