{
  "resourceType": "Bundle",
  "id": "63487c2e0968f80122540171",
  "type": "transaction",
  "entry": [ {
    "fullUrl": "https://madie.cms.gov/Patient/1df41494-87ab-4167-95a8-8d38e0c059f3",
    "resource": {
      "resourceType": "Patient",
      "id": "1df41494-87ab-4167-95a8-8d38e0c059f3",
      "meta": {
        "profile": [ "http://hl7.org/fhir/us/qicore/StructureDefinition/qicore-patient" ]
      },
      "text": {
        "status": "generated",
        "div": "<div xmlns=\"http://www.w3.org/1999/xhtml\"><div class=\"hapiHeaderText\">AssessTimeOfDelivRelvDateTimeEQDelivEncEnd <b>DENPASS </b></div><table class=\"hapiPropertyTable\"><tbody><tr><td>Identifier</td><td>6be577fcfc58a0f157e5a93fd65e49b7f4787364657c858f26ba6356e13eb3b6</td></tr><tr><td>Date of birth</td><td><span>14 February 1985</span></td></tr></tbody></table></div>"
      },
      "extension": [ {
        "url": "http://hl7.org/fhir/us/core/StructureDefinition/us-core-race",
        "extension": [ {
          "url": "ombCategory",
          "valueCoding": {
            "system": "urn:oid:2.16.840.1.113883.6.238",
            "code": "1002-5",
            "display": "American Indian or Alaska Native",
            "userSelected": true
          }
        }, {
          "url": "text",
          "valueString": "American Indian or Alaska Native"
        } ]
      }, {
        "url": "http://hl7.org/fhir/us/core/StructureDefinition/us-core-ethnicity",
        "extension": [ {
          "url": "ombCategory",
          "valueCoding": {
            "system": "urn:oid:2.16.840.1.113883.6.238",
            "code": "2135-2",
            "display": "Hispanic or Latino",
            "userSelected": true
          }
        }, {
          "url": "text",
          "valueString": "Hispanic or Latino"
        } ]
      } ],
      "identifier": [ {
        "type": {
          "coding": [ {
            "system": "http://terminology.hl7.org/CodeSystem/v2-0203",
            "code": "MR"
          } ]
        },
        "system": "https://bonnie-fhir.healthit.gov/",
        "value": "63487c2e0968f80122540171"
      } ],
      "active": true,
      "name": [ {
        "use": "usual",
        "family": "DENPass",
        "given": [ "AssessTimeOfDelivRelvDateTimeEQDelivEncEnd" ]
      } ],
      "gender": "female",
      "birthDate": "1998-02-14"
    },
    "request": {
      "method": "PUT",
      "url": "Patient/1df41494-87ab-4167-95a8-8d38e0c059f3"
    }
  }, {
    "fullUrl": "https://madie.cms.gov/Observation/a9ddbd3d-bdc1-4310-81d5-a85b8e7fc87c",
    "resource": {
      "resourceType": "Observation",
      "id": "a9ddbd3d-bdc1-4310-81d5-a85b8e7fc87c",
      "meta": {
        "profile": [ "http://hl7.org/fhir/us/qicore/StructureDefinition/qicore-simple-observation" ]
      },
      "status": "final",
      "category": [ {
        "coding": [ {
          "system": "http://terminology.hl7.org/CodeSystem/observation-category",
          "code": "exam",
          "display": "exam",
          "userSelected": true
        } ]
      } ],
      "code": {
        "coding": [ {
          "system": "http://loinc.org",
          "code": "11996-6"
        } ]
      },
      "subject": {
        "reference": "Patient/1df41494-87ab-4167-95a8-8d38e0c059f3"
      },
      "effectiveDateTime": "2026-06-08T08:00:00.000+00:00",
      "valueInteger": 1
    },
    "request": {
      "method": "PUT",
      "url": "Observation/a9ddbd3d-bdc1-4310-81d5-a85b8e7fc87c"
    }
  }, {
    "fullUrl": "https://madie.cms.gov/Observation/ee8282e3-4df8-46d0-94c1-2daf8c2a4a60",
    "resource": {
      "resourceType": "Observation",
      "id": "ee8282e3-4df8-46d0-94c1-2daf8c2a4a60",
      "meta": {
        "profile": [ "http://hl7.org/fhir/us/qicore/StructureDefinition/qicore-simple-observation" ]
      },
      "status": "final",
      "category": [ {
        "coding": [ {
          "system": "http://terminology.hl7.org/CodeSystem/observation-category",
          "code": "exam",
          "display": "exam",
          "userSelected": true
        } ]
      } ],
      "code": {
        "coding": [ {
          "system": "http://loinc.org",
          "code": "11884-4"
        } ]
      },
      "subject": {
        "reference": "Patient/1df41494-87ab-4167-95a8-8d38e0c059f3"
      },
      "effectiveDateTime": "2026-06-10T08:15:00.000+00:00",
      "valueQuantity": {
        "value": 38,
        "system": "http://unitsofmeasure.org",
        "code": "wk"
      }
    },
    "request": {
      "method": "PUT",
      "url": "Observation/ee8282e3-4df8-46d0-94c1-2daf8c2a4a60"
    }
  }, {
    "fullUrl": "https://madie.cms.gov/Observation/383ca797-6f33-4337-b44c-38e96044bbdd",
    "resource": {
      "resourceType": "Observation",
      "id": "383ca797-6f33-4337-b44c-38e96044bbdd",
      "meta": {
        "profile": [ "http://hl7.org/fhir/us/qicore/StructureDefinition/qicore-simple-observation" ]
      },
      "status": "final",
      "category": [ {
        "coding": [ {
          "system": "http://terminology.hl7.org/CodeSystem/observation-category",
          "code": "exam",
          "display": "exam",
          "userSelected": true
        } ]
      } ],
      "code": {
        "coding": [ {
          "system": "http://loinc.org",
          "code": "93857-1"
        } ]
      },
      "subject": {
        "reference": "Patient/1df41494-87ab-4167-95a8-8d38e0c059f3"
      },
      "effectiveDateTime": "2026-06-10T08:15:00.000+00:00",
      "valueDateTime": "2026-06-10T08:15:00.000+00:00"
    },
    "request": {
      "method": "PUT",
      "url": "Observation/383ca797-6f33-4337-b44c-38e96044bbdd"
    }
  }, {
    "fullUrl": "https://madie.cms.gov/Encounter/81ff4e2b-53fc-428a-ac30-83deb812f8c2",
    "resource": {
      "resourceType": "Encounter",
      "id": "81ff4e2b-53fc-428a-ac30-83deb812f8c2",
      "meta": {
        "profile": [ "http://hl7.org/fhir/us/qicore/StructureDefinition/qicore-encounter" ]
      },
      "status": "finished",
      "class": {
        "system": "http://terminology.hl7.org/CodeSystem/v3-ActCode",
        "code": "IMP",
        "display": "inpatient encounter"
      },
      "type": [ {
        "coding": [ {
          "system": "http://snomed.info/sct",
          "code": "183452005"
        } ]
      } ],
      "subject": {
        "reference": "Patient/1df41494-87ab-4167-95a8-8d38e0c059f3"
      },
      "period": {
        "start": "2026-06-08T08:00:00.000+00:00",
        "end": "2026-06-10T08:15:00.000+00:00"
      },
      "length": {
        "value": 2,
        "unit": "days"
      },
      "reasonReference": [ {
        "reference": "Condition/b177fccd-aae1-474a-8c6e-e7b8f6719db5"
      } ]
    },
    "request": {
      "method": "PUT",
      "url": "Encounter/81ff4e2b-53fc-428a-ac30-83deb812f8c2"
    }
  }, {
    "fullUrl": "https://madie.cms.gov/Procedure/f129786b-1bef-4519-9957-4c86786c907a",
    "resource": {
      "resourceType": "Procedure",
      "id": "f129786b-1bef-4519-9957-4c86786c907a",
      "meta": {
        "profile": [ "http://hl7.org/fhir/us/qicore/StructureDefinition/qicore-procedure" ]
      },
      "extension": [ {
        "url": "http://hl7.org/fhir/us/qicore/StructureDefinition/qicore-recorded",
        "valueDateTime": "2014-04-05T13:35:00.000+00:00"
      } ],
      "status": "completed",
      "code": {
        "coding": [ {
          "system": "http://www.cms.gov/Medicare/Coding/ICD10",
          "code": "10D00Z0"
        } ]
      },
      "subject": {
        "reference": "Patient/1df41494-87ab-4167-95a8-8d38e0c059f3"
      },
      "performedPeriod": {
        "start": "2026-06-08T08:00:00.000+00:00",
        "end": "2026-06-08T09:15:00.000+00:00"
      }
    },
    "request": {
      "method": "PUT",
      "url": "Procedure/f129786b-1bef-4519-9957-4c86786c907a"
    }
  }, {
    "fullUrl": "https://madie.cms.gov/Condition/b177fccd-aae1-474a-8c6e-e7b8f6719db5",
    "resource": {
      "resourceType": "Condition",
      "id": "b177fccd-aae1-474a-8c6e-e7b8f6719db5",
      "meta": {
        "profile": [ "http://hl7.org/fhir/us/qicore/StructureDefinition/qicore-condition-encounter-diagnosis" ]
      },
      "category": [ {
        "coding": [ {
          "system": "http://terminology.hl7.org/CodeSystem/condition-category",
          "code": "encounter-diagnosis",
          "display": "Encounter Diagnosis"
        } ]
      } ],
      "code": {
        "coding": [ {
          "system": "http://snomed.info/sct",
          "version": "2022-09",
          "code": "169826009",
          "display": "Single live birth from singleton pregnancy (finding)",
          "userSelected": true
        } ]
      },
      "subject": {
        "reference": "Patient/1df41494-87ab-4167-95a8-8d38e0c059f3"
      },
      "encounter": {
        "reference": "Encounter/81ff4e2b-53fc-428a-ac30-83deb812f8c2"
      },
      "recordedDate": "2026-10-20T08:00:00.000+00:00"
    },
    "request": {
      "method": "PUT",
      "url": "Condition/b177fccd-aae1-474a-8c6e-e7b8f6719db5"
    }
  }, {
    "fullUrl": "https://madie.cms.gov/Coverage/f858b7ec-a11c-4b98-b92b-03ff5f6c9c4e",
    "resource": {
      "resourceType": "Coverage",
      "id": "f858b7ec-a11c-4b98-b92b-03ff5f6c9c4e",
      "meta": {
        "profile": [ "http://hl7.org/fhir/us/qicore/StructureDefinition/qicore-coverage" ]
      },
      "status": "active",
      "subscriberId": "523435",
      "beneficiary": {
        "reference": "Patient/1df41494-87ab-4167-95a8-8d38e0c059f3"
      },
      "relationship": {
        "coding": [ {
          "system": "http://terminology.hl7.org/CodeSystem/subscriber-relationship",
          "code": "self"
        } ]
      },
      "payor": [ {
        "reference": "Organization/ec86ba74-ce5a-4137-902f-cdc1ff7c7c6b"
      } ]
    },
    "request": {
      "method": "PUT",
      "url": "Coverage/f858b7ec-a11c-4b98-b92b-03ff5f6c9c4e"
    }
  }, {
    "fullUrl": "https://madie.cms.gov/Organization/ec86ba74-ce5a-4137-902f-cdc1ff7c7c6b",
    "resource": {
      "resourceType": "Organization",
      "id": "ec86ba74-ce5a-4137-902f-cdc1ff7c7c6b",
      "meta": {
        "profile": [ "http://hl7.org/fhir/us/qicore/StructureDefinition/qicore-organization" ]
      },
      "identifier": [ {
        "use": "temp",
        "system": "urn:oid:2.16.840.1.113883.4.4",
        "value": "21-3259825"
      } ],
      "active": true,
      "type": [ {
        "coding": [ {
          "system": "http://terminology.hl7.org/CodeSystem/organization-type",
          "code": "pay",
          "display": "Payer"
        } ]
      } ],
      "name": "Blue Cross Blue Shield of Texas",
      "telecom": [ {
        "system": "phone",
        "value": "(+1) 972-766-6900"
      } ],
      "address": [ {
        "use": "billing",
        "type": "postal",
        "line": [ "P.O. Box 660044" ],
        "city": "Dallas",
        "state": "TX",
        "postalCode": "75266-0044",
        "country": "USA"
      } ]
    },
    "request": {
      "method": "PUT",
      "url": "Organization/ec86ba74-ce5a-4137-902f-cdc1ff7c7c6b"
    }
  }, {
    "fullUrl": "https://madie.cms.gov/Practitioner/8056629d-9cd7-4e04-bed7-0218bd104486",
    "resource": {
      "resourceType": "Practitioner",
      "id": "8056629d-9cd7-4e04-bed7-0218bd104486",
      "meta": {
        "profile": [ "http://hl7.org/fhir/us/qicore/StructureDefinition/qicore-practitioner" ]
      },
      "identifier": [ {
        "system": "http://hl7.org/fhir/sid/us-npi",
        "value": "1234567890"
      } ],
      "name": [ {
        "family": "Evil",
        "prefix": [ "Dr" ]
      } ]
    },
    "request": {
      "method": "PUT",
      "url": "Practitioner/8056629d-9cd7-4e04-bed7-0218bd104486"
    }
  }, {
    "fullUrl": "https://madie.cms.gov/MeasureReport/b71dfc45-8ac5-47da-a3d5-80f2947965a0",
    "resource": {
      "resourceType": "MeasureReport",
      "id": "b71dfc45-8ac5-47da-a3d5-80f2947965a0",
      "meta": {
        "profile": [ "http://hl7.org/fhir/us/cqfmeasures/StructureDefinition/test-case-cqfm" ]
      },
      "contained": [ {
        "resourceType": "Parameters",
        "id": "60ac0735-9d24-40aa-b00e-9cd37bc0ea87-parameters",
        "parameter": [ {
          "name": "subject",
          "valueString": "1df41494-87ab-4167-95a8-8d38e0c059f3"
        } ]
      } ],
      "extension": [ {
        "url": "http://hl7.org/fhir/StructureDefinition/cqf-inputParameters",
        "valueReference": {
          "reference": "#60ac0735-9d24-40aa-b00e-9cd37bc0ea87-parameters"
        }
      }, {
        "url": "http://hl7.org/fhir/us/cqfmeasures/StructureDefinition/cqfm-testCaseDescription",
        "valueMarkdown": "Passes: IP, Pt is 27 years of age,  encounter dx of delivery of singleton, gravida, EGA @ 38 weeks, AsseDelivTm Is DelivEncEnd.  Tests \"TimeOfDelivery.RelvDatetime during DeliveryEncounters.relevantPeriod\".\n"
      } ],
      "modifierExtension": [ {
        "url": "http://hl7.org/fhir/us/cqfmeasures/StructureDefinition/cqfm-isTestCase",
        "valueBoolean": true
      } ],
      "status": "complete",
      "type": "individual",
      "measure": "https://madie.cms.gov/Measure/CMS0334FHIRPCCesareanBirth",
      "period": {
        "start": "2026-01-01",
        "end": "2026-12-31"
      },
      "group": [ {
        "id": "Group_1",
        "population": [ {
          "id": "InitialPopulation_1",
          "code": {
            "coding": [ {
              "system": "http://terminology.hl7.org/CodeSystem/measure-population",
              "code": "initial-population",
              "display": "Initial Population"
            } ]
          },
          "count": 1
        }, {
          "id": "Denominator_1",
          "code": {
            "coding": [ {
              "system": "http://terminology.hl7.org/CodeSystem/measure-population",
              "code": "denominator",
              "display": "Denominator"
            } ]
          },
          "count": 1
        }, {
          "id": "DenominatorExclusion_1",
          "code": {
            "coding": [ {
              "system": "http://terminology.hl7.org/CodeSystem/measure-population",
              "code": "denominator-exclusion",
              "display": "Denominator Exclusion"
            } ]
          },
          "count": 0
        }, {
          "id": "Numerator_1",
          "code": {
            "coding": [ {
              "system": "http://terminology.hl7.org/CodeSystem/measure-population",
              "code": "numerator",
              "display": "Numerator"
            } ]
          },
          "count": 1
        } ],
        "measureScore": {
          "value": 0.0
        }
      } ],
      "evaluatedResource": [ {
        "reference": "Patient/1df41494-87ab-4167-95a8-8d38e0c059f3"
      }, {
        "reference": "Observation/a9ddbd3d-bdc1-4310-81d5-a85b8e7fc87c"
      }, {
        "reference": "Observation/ee8282e3-4df8-46d0-94c1-2daf8c2a4a60"
      }, {
        "reference": "Observation/383ca797-6f33-4337-b44c-38e96044bbdd"
      }, {
        "reference": "Encounter/81ff4e2b-53fc-428a-ac30-83deb812f8c2"
      }, {
        "reference": "Procedure/f129786b-1bef-4519-9957-4c86786c907a"
      }, {
        "reference": "Condition/b177fccd-aae1-474a-8c6e-e7b8f6719db5"
      }, {
        "reference": "Coverage/f858b7ec-a11c-4b98-b92b-03ff5f6c9c4e"
      }, {
        "reference": "Organization/ec86ba74-ce5a-4137-902f-cdc1ff7c7c6b"
      }, {
        "reference": "Practitioner/8056629d-9cd7-4e04-bed7-0218bd104486"
      } ]
    },
    "request": {
      "method": "PUT",
      "url": "MeasureReport/b71dfc45-8ac5-47da-a3d5-80f2947965a0"
    }
  } ]
}