{
  "resourceType": "Bundle",
  "id": "62b1e15a3968556e5150cf3b",
  "type": "transaction",
  "entry": [ {
    "fullUrl": "https://madie.cms.gov/Patient/e1b6a53f-c856-41c2-b1fe-ec50d3f23333",
    "resource": {
      "resourceType": "Patient",
      "id": "e1b6a53f-c856-41c2-b1fe-ec50d3f23333",
      "meta": {
        "profile": [ "http://hl7.org/fhir/us/qicore/StructureDefinition/qicore-patient" ]
      },
      "extension": [ {
        "url": "http://hl7.org/fhir/us/core/StructureDefinition/us-core-race",
        "extension": [ {
          "url": "ombCategory",
          "valueCoding": {
            "system": "urn:oid:2.16.840.1.113883.6.238",
            "code": "1002-5",
            "display": "American Indian or Alaska Native",
            "userSelected": true
          }
        }, {
          "url": "text",
          "valueString": "American Indian or Alaska Native"
        } ]
      }, {
        "url": "http://hl7.org/fhir/us/core/StructureDefinition/us-core-ethnicity",
        "extension": [ {
          "url": "ombCategory",
          "valueCoding": {
            "system": "urn:oid:2.16.840.1.113883.6.238",
            "code": "2135-2",
            "display": "Hispanic or Latino",
            "userSelected": true
          }
        }, {
          "url": "text",
          "valueString": "Hispanic or Latino"
        } ]
      } ],
      "identifier": [ {
        "type": {
          "coding": [ {
            "system": "http://terminology.hl7.org/CodeSystem/v2-0203",
            "code": "MR"
          } ]
        },
        "system": "https://bonnie-fhir.healthit.gov/",
        "value": "62b1e15a3968556e5150cf3b"
      } ],
      "name": [ {
        "family": "DENOMEXPass",
        "given": [ "AdultHistoryOfBipolarRemission" ]
      } ],
      "gender": "male",
      "birthDate": "2008-01-01"
    },
    "request": {
      "method": "PUT",
      "url": "Patient/e1b6a53f-c856-41c2-b1fe-ec50d3f23333"
    }
  }, {
    "fullUrl": "https://madie.cms.gov/Encounter/17884ff1-97b4-4040-9ff2-9dd6da3d48d2",
    "resource": {
      "resourceType": "Encounter",
      "id": "17884ff1-97b4-4040-9ff2-9dd6da3d48d2",
      "meta": {
        "profile": [ "http://hl7.org/fhir/us/qicore/StructureDefinition/qicore-encounter" ]
      },
      "status": "finished",
      "class": {
        "system": "http://terminology.hl7.org/CodeSystem/v3-ActCode",
        "code": "AMB",
        "display": "ambulatory"
      },
      "type": [ {
        "coding": [ {
          "system": "http://snomed.info/sct",
          "version": "2021-09",
          "code": "10197000",
          "display": "Psychiatric interview and evaluation (procedure)",
          "userSelected": true
        } ]
      } ],
      "subject": {
        "reference": "Patient/e1b6a53f-c856-41c2-b1fe-ec50d3f23333"
      },
      "period": {
        "start": "2026-06-21T08:00:00.000+00:00",
        "end": "2026-06-21T08:15:00.000+00:00"
      }
    },
    "request": {
      "method": "PUT",
      "url": "Encounter/17884ff1-97b4-4040-9ff2-9dd6da3d48d2"
    }
  }, {
    "fullUrl": "https://madie.cms.gov/Condition/0ebaccd5-f10f-4bb3-9d43-d2ce8a3415b4",
    "resource": {
      "resourceType": "Condition",
      "id": "0ebaccd5-f10f-4bb3-9d43-d2ce8a3415b4",
      "meta": {
        "profile": [ "http://hl7.org/fhir/us/qicore/StructureDefinition/qicore-condition-problems-health-concerns" ]
      },
      "clinicalStatus": {
        "coding": [ {
          "system": "http://terminology.hl7.org/CodeSystem/condition-clinical",
          "code": "active",
          "display": "active",
          "userSelected": true
        } ]
      },
      "category": [ {
        "coding": [ {
          "system": "http://terminology.hl7.org/CodeSystem/condition-category",
          "code": "problem-list-item",
          "display": "Problem List Item"
        } ]
      } ],
      "code": {
        "coding": [ {
          "system": "http://snomed.info/sct",
          "version": "2021-09",
          "code": "12969000",
          "display": "Severe bipolar II disorder, most recent episode major depressive, in full remission (disorder)",
          "userSelected": true
        } ]
      },
      "subject": {
        "reference": "Patient/e1b6a53f-c856-41c2-b1fe-ec50d3f23333"
      },
      "onsetDateTime": "2021-06-15T08:00:00.000+00:00"
    },
    "request": {
      "method": "PUT",
      "url": "Condition/0ebaccd5-f10f-4bb3-9d43-d2ce8a3415b4"
    }
  }, {
    "fullUrl": "https://madie.cms.gov/Coverage/637fd8ac-f382-4597-a952-79609d1fd3fe",
    "resource": {
      "resourceType": "Coverage",
      "id": "637fd8ac-f382-4597-a952-79609d1fd3fe",
      "meta": {
        "profile": [ "http://hl7.org/fhir/us/qicore/StructureDefinition/qicore-coverage" ]
      },
      "status": "active",
      "beneficiary": {
        "reference": "Patient/e1b6a53f-c856-41c2-b1fe-ec50d3f23333"
      },
      "payor": [ {
        "reference": "Organization/f4bef3ce-196e-427e-b555-1fc5fb79d0b6"
      } ]
    },
    "request": {
      "method": "PUT",
      "url": "Coverage/637fd8ac-f382-4597-a952-79609d1fd3fe"
    }
  }, {
    "fullUrl": "https://madie.cms.gov/Organization/f4bef3ce-196e-427e-b555-1fc5fb79d0b6",
    "resource": {
      "resourceType": "Organization",
      "id": "f4bef3ce-196e-427e-b555-1fc5fb79d0b6",
      "meta": {
        "profile": [ "http://hl7.org/fhir/us/qicore/StructureDefinition/qicore-organization" ]
      },
      "identifier": [ {
        "use": "temp",
        "system": "urn:oid:2.16.840.1.113883.4.4",
        "value": "21-3259825"
      } ],
      "active": true,
      "type": [ {
        "coding": [ {
          "system": "http://terminology.hl7.org/CodeSystem/organization-type",
          "code": "pay",
          "display": "Payer"
        } ]
      } ],
      "name": "Blue Cross Blue Shield of Texas",
      "telecom": [ {
        "system": "phone",
        "value": "(+1) 972-766-6900"
      } ],
      "address": [ {
        "use": "billing",
        "type": "postal",
        "line": [ "P.O. Box 660044" ],
        "city": "Dallas",
        "state": "TX",
        "postalCode": "75266-0044",
        "country": "USA"
      } ]
    },
    "request": {
      "method": "PUT",
      "url": "Organization/f4bef3ce-196e-427e-b555-1fc5fb79d0b6"
    }
  }, {
    "fullUrl": "https://madie.cms.gov/Practitioner/2730aeb3-eaeb-4402-955b-0b97d02d70bd",
    "resource": {
      "resourceType": "Practitioner",
      "id": "2730aeb3-eaeb-4402-955b-0b97d02d70bd",
      "meta": {
        "profile": [ "http://hl7.org/fhir/us/qicore/StructureDefinition/qicore-practitioner" ]
      },
      "identifier": [ {
        "system": "http://hl7.org/fhir/sid/us-npi",
        "value": "123456"
      } ],
      "name": [ {
        "family": "Evil",
        "prefix": [ "Dr" ]
      } ]
    },
    "request": {
      "method": "PUT",
      "url": "Practitioner/2730aeb3-eaeb-4402-955b-0b97d02d70bd"
    }
  }, {
    "fullUrl": "https://madie.cms.gov/MeasureReport/a9e5fff9-b93a-41e8-ae8c-d616cdf27a13",
    "resource": {
      "resourceType": "MeasureReport",
      "id": "a9e5fff9-b93a-41e8-ae8c-d616cdf27a13",
      "meta": {
        "profile": [ "http://hl7.org/fhir/us/cqfmeasures/StructureDefinition/test-case-cqfm" ]
      },
      "contained": [ {
        "resourceType": "Parameters",
        "id": "afa62b61-1f27-4c7a-b877-c40bfb198843-parameters",
        "parameter": [ {
          "name": "subject",
          "valueString": "e1b6a53f-c856-41c2-b1fe-ec50d3f23333"
        } ]
      } ],
      "extension": [ {
        "url": "http://hl7.org/fhir/StructureDefinition/cqf-inputParameters",
        "valueReference": {
          "reference": "#afa62b61-1f27-4c7a-b877-c40bfb198843-parameters"
        }
      }, {
        "url": "http://hl7.org/fhir/us/cqfmeasures/StructureDefinition/cqfm-testCaseDescription",
        "valueMarkdown": "18 yo patient with history of bipolar - remission"
      } ],
      "modifierExtension": [ {
        "url": "http://hl7.org/fhir/us/cqfmeasures/StructureDefinition/cqfm-isTestCase",
        "valueBoolean": true
      } ],
      "status": "complete",
      "type": "individual",
      "measure": "https://madie.cms.gov/Measure/CMS2FHIRPCSDepressionScreenAndFollowUp",
      "period": {
        "start": "2026-01-01",
        "end": "2026-12-31"
      },
      "group": [ {
        "id": "Group_1",
        "population": [ {
          "id": "InitialPopulation_1",
          "code": {
            "coding": [ {
              "system": "http://terminology.hl7.org/CodeSystem/measure-population",
              "code": "initial-population",
              "display": "Initial Population"
            } ]
          },
          "count": 1
        }, {
          "id": "Denominator_1",
          "code": {
            "coding": [ {
              "system": "http://terminology.hl7.org/CodeSystem/measure-population",
              "code": "denominator",
              "display": "Denominator"
            } ]
          },
          "count": 1
        }, {
          "id": "DenominatorExclusion_1",
          "code": {
            "coding": [ {
              "system": "http://terminology.hl7.org/CodeSystem/measure-population",
              "code": "denominator-exclusion",
              "display": "Denominator Exclusion"
            } ]
          },
          "count": 1
        }, {
          "id": "Numerator_1",
          "code": {
            "coding": [ {
              "system": "http://terminology.hl7.org/CodeSystem/measure-population",
              "code": "numerator",
              "display": "Numerator"
            } ]
          },
          "count": 0
        }, {
          "id": "DenominatorException_1",
          "code": {
            "coding": [ {
              "system": "http://terminology.hl7.org/CodeSystem/measure-population",
              "code": "denominator-exception",
              "display": "Denominator Exception"
            } ]
          },
          "count": 0
        } ],
        "measureScore": {
          "value": 1.0
        }
      } ],
      "evaluatedResource": [ {
        "reference": "Patient/e1b6a53f-c856-41c2-b1fe-ec50d3f23333"
      }, {
        "reference": "Encounter/17884ff1-97b4-4040-9ff2-9dd6da3d48d2"
      }, {
        "reference": "Condition/0ebaccd5-f10f-4bb3-9d43-d2ce8a3415b4"
      }, {
        "reference": "Coverage/637fd8ac-f382-4597-a952-79609d1fd3fe"
      }, {
        "reference": "Organization/f4bef3ce-196e-427e-b555-1fc5fb79d0b6"
      }, {
        "reference": "Practitioner/2730aeb3-eaeb-4402-955b-0b97d02d70bd"
      } ]
    },
    "request": {
      "method": "PUT",
      "url": "MeasureReport/a9e5fff9-b93a-41e8-ae8c-d616cdf27a13"
    }
  } ]
}