{
  "resourceType": "Bundle",
  "id": "63487c2e0968f8012254016a",
  "type": "transaction",
  "entry": [ {
    "fullUrl": "https://madie.cms.gov/Patient/9f006931-e0fe-43f3-9c93-373908837912",
    "resource": {
      "resourceType": "Patient",
      "id": "9f006931-e0fe-43f3-9c93-373908837912",
      "meta": {
        "profile": [ "http://hl7.org/fhir/us/qicore/StructureDefinition/qicore-patient" ]
      },
      "text": {
        "status": "generated",
        "div": "<div xmlns=\"http://www.w3.org/1999/xhtml\"><div class=\"hapiHeaderText\">AssessG1<b>DENPASS</b></div><table class=\"hapiPropertyTable\"><tbody><tr><td>Identifier</td><td>b00b06f67015bda652373741cca10f65466d828e3a674df9528f73ec417ce0bb</td></tr><tr><td>Date of birth</td><td><span>14 February 1985</span></td></tr></tbody></table></div>"
      },
      "extension": [ {
        "url": "http://hl7.org/fhir/us/core/StructureDefinition/us-core-race",
        "extension": [ {
          "url": "ombCategory",
          "valueCoding": {
            "system": "urn:oid:2.16.840.1.113883.6.238",
            "code": "1002-5",
            "display": "American Indian or Alaska Native",
            "userSelected": true
          }
        }, {
          "url": "text",
          "valueString": "American Indian or Alaska Native"
        } ]
      }, {
        "url": "http://hl7.org/fhir/us/core/StructureDefinition/us-core-ethnicity",
        "extension": [ {
          "url": "ombCategory",
          "valueCoding": {
            "system": "urn:oid:2.16.840.1.113883.6.238",
            "code": "2135-2",
            "display": "Hispanic or Latino",
            "userSelected": true
          }
        }, {
          "url": "text",
          "valueString": "Hispanic or Latino"
        } ]
      } ],
      "identifier": [ {
        "type": {
          "coding": [ {
            "system": "http://terminology.hl7.org/CodeSystem/v2-0203",
            "code": "MR"
          } ]
        },
        "system": "https://bonnie-fhir.healthit.gov/",
        "value": "63487c2e0968f8012254016a"
      } ],
      "active": true,
      "name": [ {
        "use": "usual",
        "family": "DENPass",
        "given": [ "AssessG1" ]
      } ],
      "gender": "female",
      "birthDate": "1998-02-14"
    },
    "request": {
      "method": "PUT",
      "url": "Patient/9f006931-e0fe-43f3-9c93-373908837912"
    }
  }, {
    "fullUrl": "https://madie.cms.gov/Observation/1e19fcd0-430e-460a-9028-3e49c4442757",
    "resource": {
      "resourceType": "Observation",
      "id": "1e19fcd0-430e-460a-9028-3e49c4442757",
      "meta": {
        "profile": [ "http://hl7.org/fhir/us/qicore/StructureDefinition/qicore-simple-observation" ]
      },
      "status": "final",
      "category": [ {
        "coding": [ {
          "system": "http://terminology.hl7.org/CodeSystem/observation-category",
          "code": "exam",
          "display": "exam",
          "userSelected": true
        } ]
      } ],
      "code": {
        "coding": [ {
          "system": "http://loinc.org",
          "code": "11996-6"
        } ]
      },
      "subject": {
        "reference": "Patient/9f006931-e0fe-43f3-9c93-373908837912"
      },
      "effectiveDateTime": "2025-10-19T08:10:00.000+00:00",
      "performer": [ {
        "reference": "Organization/example1",
        "display": "Hendricks Country Hospital"
      } ],
      "valueInteger": 1
    },
    "request": {
      "method": "PUT",
      "url": "Observation/1e19fcd0-430e-460a-9028-3e49c4442757"
    }
  }, {
    "fullUrl": "https://madie.cms.gov/Observation/a2377e49-240a-47c1-9463-65a8593b2b71",
    "resource": {
      "resourceType": "Observation",
      "id": "a2377e49-240a-47c1-9463-65a8593b2b71",
      "meta": {
        "profile": [ "http://hl7.org/fhir/us/qicore/StructureDefinition/qicore-simple-observation" ]
      },
      "status": "final",
      "category": [ {
        "coding": [ {
          "system": "http://terminology.hl7.org/CodeSystem/observation-category",
          "code": "exam",
          "display": "exam",
          "userSelected": true
        } ]
      } ],
      "code": {
        "coding": [ {
          "system": "http://loinc.org",
          "code": "11884-4"
        } ]
      },
      "subject": {
        "reference": "Patient/9f006931-e0fe-43f3-9c93-373908837912"
      },
      "effectiveDateTime": "2026-06-08T09:15:00.000+00:00",
      "performer": [ {
        "reference": "Organization/example1",
        "display": "Hendricks Country Hospital"
      } ],
      "valueQuantity": {
        "value": 38,
        "unit": "weeks"
      }
    },
    "request": {
      "method": "PUT",
      "url": "Observation/a2377e49-240a-47c1-9463-65a8593b2b71"
    }
  }, {
    "fullUrl": "https://madie.cms.gov/Observation/0d4254af-2b20-4191-8df9-58ba622592f6",
    "resource": {
      "resourceType": "Observation",
      "id": "0d4254af-2b20-4191-8df9-58ba622592f6",
      "meta": {
        "profile": [ "http://hl7.org/fhir/us/qicore/StructureDefinition/qicore-simple-observation" ]
      },
      "status": "final",
      "category": [ {
        "coding": [ {
          "system": "http://terminology.hl7.org/CodeSystem/observation-category",
          "code": "exam",
          "display": "exam",
          "userSelected": true
        } ]
      } ],
      "code": {
        "coding": [ {
          "system": "http://loinc.org",
          "code": "93857-1"
        } ]
      },
      "subject": {
        "reference": "Patient/9f006931-e0fe-43f3-9c93-373908837912"
      },
      "effectiveDateTime": "2026-06-08T20:00:00.000+00:00",
      "performer": [ {
        "reference": "Organization/example1",
        "display": "Hendricks Country Hospital"
      } ],
      "valueDateTime": "2026-06-08T20:00:00.000+00:00"
    },
    "request": {
      "method": "PUT",
      "url": "Observation/0d4254af-2b20-4191-8df9-58ba622592f6"
    }
  }, {
    "fullUrl": "https://madie.cms.gov/Encounter/c94a173e-826b-4340-a246-46d3afc1a576",
    "resource": {
      "resourceType": "Encounter",
      "id": "c94a173e-826b-4340-a246-46d3afc1a576",
      "meta": {
        "profile": [ "http://hl7.org/fhir/us/qicore/StructureDefinition/qicore-encounter" ]
      },
      "status": "finished",
      "class": {
        "system": "http://terminology.hl7.org/CodeSystem/v3-ActCode",
        "code": "IMP",
        "display": "inpatient encounter"
      },
      "type": [ {
        "coding": [ {
          "system": "http://snomed.info/sct",
          "code": "183452005"
        } ]
      } ],
      "subject": {
        "reference": "Patient/9f006931-e0fe-43f3-9c93-373908837912"
      },
      "period": {
        "start": "2026-06-08T08:00:00.000+00:00",
        "end": "2026-06-10T08:15:00.000+00:00"
      },
      "reasonReference": [ {
        "reference": "Condition/936f34a4-7d26-4942-9cb7-c1b4d6b5c10d"
      } ]
    },
    "request": {
      "method": "PUT",
      "url": "Encounter/c94a173e-826b-4340-a246-46d3afc1a576"
    }
  }, {
    "fullUrl": "https://madie.cms.gov/Procedure/8699de72-d122-4154-9a22-68934d56c509",
    "resource": {
      "resourceType": "Procedure",
      "id": "8699de72-d122-4154-9a22-68934d56c509",
      "meta": {
        "profile": [ "http://hl7.org/fhir/us/qicore/StructureDefinition/qicore-procedure" ]
      },
      "extension": [ {
        "url": "http://hl7.org/fhir/us/qicore/StructureDefinition/qicore-recorded",
        "valueDateTime": "2014-04-05T13:35:00.000+00:00"
      } ],
      "status": "completed",
      "code": {
        "coding": [ {
          "system": "http://www.cms.gov/Medicare/Coding/ICD10",
          "code": "10D07Z3"
        } ]
      },
      "subject": {
        "reference": "Patient/9f006931-e0fe-43f3-9c93-373908837912"
      },
      "performedPeriod": {
        "start": "2026-06-08T08:10:00.000+00:00",
        "end": "2026-06-08T09:14:00.000+00:00"
      }
    },
    "request": {
      "method": "PUT",
      "url": "Procedure/8699de72-d122-4154-9a22-68934d56c509"
    }
  }, {
    "fullUrl": "https://madie.cms.gov/Condition/936f34a4-7d26-4942-9cb7-c1b4d6b5c10d",
    "resource": {
      "resourceType": "Condition",
      "id": "936f34a4-7d26-4942-9cb7-c1b4d6b5c10d",
      "meta": {
        "profile": [ "http://hl7.org/fhir/us/qicore/StructureDefinition/qicore-condition-encounter-diagnosis" ]
      },
      "category": [ {
        "coding": [ {
          "system": "http://terminology.hl7.org/CodeSystem/condition-category",
          "code": "encounter-diagnosis",
          "display": "Encounter Diagnosis"
        } ]
      } ],
      "code": {
        "coding": [ {
          "system": "http://snomed.info/sct",
          "version": "2022-09",
          "code": "169826009",
          "display": "Single live birth (finding)",
          "userSelected": true
        } ]
      },
      "subject": {
        "reference": "Patient/9f006931-e0fe-43f3-9c93-373908837912"
      },
      "encounter": {
        "reference": "Encounter/c94a173e-826b-4340-a246-46d3afc1a576"
      },
      "recordedDate": "2026-10-14T08:00:00.000+00:00"
    },
    "request": {
      "method": "PUT",
      "url": "Condition/936f34a4-7d26-4942-9cb7-c1b4d6b5c10d"
    }
  }, {
    "fullUrl": "https://madie.cms.gov/Coverage/ebf1d150-c563-421e-99de-2ec37373a903",
    "resource": {
      "resourceType": "Coverage",
      "id": "ebf1d150-c563-421e-99de-2ec37373a903",
      "meta": {
        "profile": [ "http://hl7.org/fhir/us/qicore/StructureDefinition/qicore-coverage" ]
      },
      "status": "active",
      "subscriberId": "523435",
      "beneficiary": {
        "reference": "Patient/9f006931-e0fe-43f3-9c93-373908837912"
      },
      "relationship": {
        "coding": [ {
          "system": "http://terminology.hl7.org/CodeSystem/subscriber-relationship",
          "code": "self"
        } ]
      },
      "payor": [ {
        "reference": "Organization/278bfca8-8eb5-48a7-bcd1-acf54c4c911b"
      } ]
    },
    "request": {
      "method": "PUT",
      "url": "Coverage/ebf1d150-c563-421e-99de-2ec37373a903"
    }
  }, {
    "fullUrl": "https://madie.cms.gov/Organization/278bfca8-8eb5-48a7-bcd1-acf54c4c911b",
    "resource": {
      "resourceType": "Organization",
      "id": "278bfca8-8eb5-48a7-bcd1-acf54c4c911b",
      "meta": {
        "profile": [ "http://hl7.org/fhir/us/qicore/StructureDefinition/qicore-organization" ]
      },
      "identifier": [ {
        "use": "temp",
        "system": "urn:oid:2.16.840.1.113883.4.4",
        "value": "21-3259825"
      } ],
      "active": true,
      "type": [ {
        "coding": [ {
          "system": "http://terminology.hl7.org/CodeSystem/organization-type",
          "code": "pay",
          "display": "Payer"
        } ]
      } ],
      "name": "Blue Cross Blue Shield of Texas",
      "telecom": [ {
        "system": "phone",
        "value": "(+1) 972-766-6900"
      } ],
      "address": [ {
        "use": "billing",
        "type": "postal",
        "line": [ "P.O. Box 660044" ],
        "city": "Dallas",
        "state": "TX",
        "postalCode": "75266-0044",
        "country": "USA"
      } ]
    },
    "request": {
      "method": "PUT",
      "url": "Organization/278bfca8-8eb5-48a7-bcd1-acf54c4c911b"
    }
  }, {
    "fullUrl": "https://madie.cms.gov/Practitioner/da222770-d4ef-43e1-a2aa-32dfc0f64be1",
    "resource": {
      "resourceType": "Practitioner",
      "id": "da222770-d4ef-43e1-a2aa-32dfc0f64be1",
      "meta": {
        "profile": [ "http://hl7.org/fhir/us/qicore/StructureDefinition/qicore-practitioner" ]
      },
      "identifier": [ {
        "system": "http://hl7.org/fhir/sid/us-npi",
        "value": "1234567890"
      } ],
      "name": [ {
        "family": "Evil",
        "prefix": [ "Dr" ]
      } ]
    },
    "request": {
      "method": "PUT",
      "url": "Practitioner/da222770-d4ef-43e1-a2aa-32dfc0f64be1"
    }
  }, {
    "fullUrl": "https://madie.cms.gov/Condition/e24f67e5-74a9-45fe-b05f-6f2c86addbb4",
    "resource": {
      "resourceType": "Condition",
      "id": "e24f67e5-74a9-45fe-b05f-6f2c86addbb4",
      "meta": {
        "profile": [ "http://hl7.org/fhir/us/qicore/StructureDefinition/qicore-condition" ]
      },
      "category": [ {
        "coding": [ {
          "system": "http://terminology.hl7.org/CodeSystem/condition-category",
          "code": "encounter-diagnosis",
          "display": "Encounter Diagnosis"
        } ]
      } ],
      "code": {
        "coding": [ {
          "system": "http://snomed.info/sct",
          "code": "169826009",
          "display": "Single live birth (finding)"
        } ]
      },
      "subject": {
        "reference": "Patient/9f006931-e0fe-43f3-9c93-373908837912"
      }
    },
    "request": {
      "method": "PUT",
      "url": "Condition/e24f67e5-74a9-45fe-b05f-6f2c86addbb4"
    }
  }, {
    "fullUrl": "https://madie.cms.gov/MeasureReport/54510730-82cf-43cb-b12a-6d10b70d4cd9",
    "resource": {
      "resourceType": "MeasureReport",
      "id": "54510730-82cf-43cb-b12a-6d10b70d4cd9",
      "meta": {
        "profile": [ "http://hl7.org/fhir/us/cqfmeasures/StructureDefinition/test-case-cqfm" ]
      },
      "contained": [ {
        "resourceType": "Parameters",
        "id": "139eb469-4519-49da-a765-c1f7355a996d-parameters",
        "parameter": [ {
          "name": "subject",
          "valueString": "9f006931-e0fe-43f3-9c93-373908837912"
        } ]
      } ],
      "extension": [ {
        "url": "http://hl7.org/fhir/StructureDefinition/cqf-inputParameters",
        "valueReference": {
          "reference": "#139eb469-4519-49da-a765-c1f7355a996d-parameters"
        }
      }, {
        "url": "http://hl7.org/fhir/us/cqfmeasures/StructureDefinition/cqfm-testCaseDescription",
        "valueMarkdown": "Passes: IP, Pt is 27 years of age,  encounter dx delivery of singleton, gravida=1 rel date/time less than 42 weeks prior to delivery, EGA @ 38 weeks\n"
      } ],
      "modifierExtension": [ {
        "url": "http://hl7.org/fhir/us/cqfmeasures/StructureDefinition/cqfm-isTestCase",
        "valueBoolean": true
      } ],
      "status": "complete",
      "type": "individual",
      "measure": "https://madie.cms.gov/Measure/CMS0334FHIRPCCesareanBirth",
      "period": {
        "start": "2026-01-01",
        "end": "2026-12-31"
      },
      "group": [ {
        "id": "Group_1",
        "population": [ {
          "id": "InitialPopulation_1",
          "code": {
            "coding": [ {
              "system": "http://terminology.hl7.org/CodeSystem/measure-population",
              "code": "initial-population",
              "display": "Initial Population"
            } ]
          },
          "count": 1
        }, {
          "id": "Denominator_1",
          "code": {
            "coding": [ {
              "system": "http://terminology.hl7.org/CodeSystem/measure-population",
              "code": "denominator",
              "display": "Denominator"
            } ]
          },
          "count": 1
        }, {
          "id": "DenominatorExclusion_1",
          "code": {
            "coding": [ {
              "system": "http://terminology.hl7.org/CodeSystem/measure-population",
              "code": "denominator-exclusion",
              "display": "Denominator Exclusion"
            } ]
          },
          "count": 0
        }, {
          "id": "Numerator_1",
          "code": {
            "coding": [ {
              "system": "http://terminology.hl7.org/CodeSystem/measure-population",
              "code": "numerator",
              "display": "Numerator"
            } ]
          },
          "count": 0
        } ],
        "measureScore": {
          "value": 0.0
        }
      } ],
      "evaluatedResource": [ {
        "reference": "Patient/9f006931-e0fe-43f3-9c93-373908837912"
      }, {
        "reference": "Observation/1e19fcd0-430e-460a-9028-3e49c4442757"
      }, {
        "reference": "Observation/a2377e49-240a-47c1-9463-65a8593b2b71"
      }, {
        "reference": "Observation/0d4254af-2b20-4191-8df9-58ba622592f6"
      }, {
        "reference": "Encounter/c94a173e-826b-4340-a246-46d3afc1a576"
      }, {
        "reference": "Procedure/8699de72-d122-4154-9a22-68934d56c509"
      }, {
        "reference": "Condition/936f34a4-7d26-4942-9cb7-c1b4d6b5c10d"
      }, {
        "reference": "Coverage/ebf1d150-c563-421e-99de-2ec37373a903"
      }, {
        "reference": "Organization/278bfca8-8eb5-48a7-bcd1-acf54c4c911b"
      }, {
        "reference": "Practitioner/da222770-d4ef-43e1-a2aa-32dfc0f64be1"
      }, {
        "reference": "Condition/e24f67e5-74a9-45fe-b05f-6f2c86addbb4"
      } ]
    },
    "request": {
      "method": "PUT",
      "url": "MeasureReport/54510730-82cf-43cb-b12a-6d10b70d4cd9"
    }
  } ]
}