{"resourceType":"Bundle","id":"tests-3cd86896-d4cb-4396-b4ad-96d3675b74e1-bundle","type":"transaction","entry":[{"resource":{"resourceType":"Patient","id":"3cd86896-d4cb-4396-b4ad-96d3675b74e1","meta":{"profile":["http://hl7.org/fhir/us/qicore/StructureDefinition/qicore-patient"]},"extension":[{"url":"http://hl7.org/fhir/us/core/StructureDefinition/us-core-race","extension":[{"url":"ombCategory","valueCoding":{"system":"urn:oid:2.16.840.1.113883.6.238","code":"1002-5","display":"American Indian or Alaska Native","userSelected":true}},{"url":"text","valueString":"American Indian or Alaska Native"}]},{"url":"http://hl7.org/fhir/us/core/StructureDefinition/us-core-ethnicity","extension":[{"url":"ombCategory","valueCoding":{"system":"urn:oid:2.16.840.1.113883.6.238","code":"2186-5","display":"Not Hispanic or Latino","userSelected":true}},{"url":"text","valueString":"Not Hispanic or Latino"}]}],"identifier":[{"type":{"coding":[{"system":"http://terminology.hl7.org/CodeSystem/v2-0203","code":"MR"}]},"system":"https://GoodHealthCare.com/","value":"6109658e98086b538055b9e4"}],"active":true,"name":[{"use":"usual","family":"IPPFail","given":["GlaucomaDxRefuted"]}],"gender":"male","birthDate":"1992-12-31"},"request":{"method":"PUT","url":"Patient/3cd86896-d4cb-4396-b4ad-96d3675b74e1"}},{"resource":{"resourceType":"Bundle","id":"6109658e98086b538055b9e4","type":"transaction","entry":[{"fullUrl":"https://madie.cms.gov/Patient/3cd86896-d4cb-4396-b4ad-96d3675b74e1","resource":{"resourceType":"Patient","id":"3cd86896-d4cb-4396-b4ad-96d3675b74e1","meta":{"profile":["http://hl7.org/fhir/us/qicore/StructureDefinition/qicore-patient"]},"extension":[{"url":"http://hl7.org/fhir/us/core/StructureDefinition/us-core-race","extension":[{"url":"ombCategory","valueCoding":{"system":"urn:oid:2.16.840.1.113883.6.238","code":"1002-5","display":"American Indian or Alaska Native","userSelected":true}},{"url":"text","valueString":"American Indian or Alaska Native"}]},{"url":"http://hl7.org/fhir/us/core/StructureDefinition/us-core-ethnicity","extension":[{"url":"ombCategory","valueCoding":{"system":"urn:oid:2.16.840.1.113883.6.238","code":"2186-5","display":"Not Hispanic or Latino","userSelected":true}},{"url":"text","valueString":"Not Hispanic or Latino"}]}],"identifier":[{"type":{"coding":[{"system":"http://terminology.hl7.org/CodeSystem/v2-0203","code":"MR"}]},"system":"https://GoodHealthCare.com/","value":"6109658e98086b538055b9e4"}],"active":true,"name":[{"use":"usual","family":"IPPFail","given":["GlaucomaDxRefuted"]}],"gender":"male","birthDate":"1992-12-31"},"request":{"method":"PUT","url":"Patient/3cd86896-d4cb-4396-b4ad-96d3675b74e1"}},{"fullUrl":"https://madie.cms.gov/Encounter/1d940dae-5da3-4082-8bec-0c1d84dc9d55","resource":{"resourceType":"Encounter","id":"1d940dae-5da3-4082-8bec-0c1d84dc9d55","meta":{"profile":["http://hl7.org/fhir/us/qicore/StructureDefinition/qicore-encounter"]},"status":"finished","class":{"system":"http://terminology.hl7.org/CodeSystem/v3-ActCode","code":"AMB","display":"ambulatory","userSelected":true},"type":[{"coding":[{"system":"http://snomed.info/sct","version":"http://snomed.info/sct/731000124108/version/202303","code":"37894004"},{"system":"http://www.ama-assn.org/go/cpt","version":"2023","code":"99213","userSelected":true}]}],"subject":{"reference":"Patient/3cd86896-d4cb-4396-b4ad-96d3675b74e1"},"period":{"start":"2026-03-05T08:00:00.000+00:00","end":"2026-03-05T08:30:00.000+00:00"}},"request":{"method":"PUT","url":"Encounter/1d940dae-5da3-4082-8bec-0c1d84dc9d55"}},{"fullUrl":"https://madie.cms.gov/Condition/ae55de9f-d0e5-44ae-af0e-bf70536ce6d6","resource":{"resourceType":"Condition","id":"ae55de9f-d0e5-44ae-af0e-bf70536ce6d6","meta":{"profile":["http://hl7.org/fhir/us/qicore/StructureDefinition/qicore-condition-problems-health-concerns"]},"clinicalStatus":{"coding":[{"system":"http://terminology.hl7.org/CodeSystem/condition-clinical","code":"inactive","display":"resolved"}]},"verificationStatus":{"coding":[{"system":"http://terminology.hl7.org/CodeSystem/condition-ver-status","code":"entered-in-error","display":"Entered in Error"}],"text":"Entered in Error"},"category":[{"coding":[{"system":"http://terminology.hl7.org/CodeSystem/condition-category","code":"problem-list-item","display":"problem-list-item","userSelected":true}]}],"code":{"coding":[{"system":"http://snomed.info/sct","version":"http://snomed.info/sct/731000124108/version/20230301","code":"15633281000119103","display":"Bilateral primary open angle glaucoma (disorder)"}]},"subject":{"reference":"Patient/3cd86896-d4cb-4396-b4ad-96d3675b74e1"},"onsetDateTime":"2025-01-01T08:00:00.000+00:00"},"request":{"method":"PUT","url":"Condition/ae55de9f-d0e5-44ae-af0e-bf70536ce6d6"}},{"fullUrl":"https://madie.cms.gov/MeasureReport/602542ac-0a21-4604-a2da-16cdfa696751","resource":{"resourceType":"MeasureReport","id":"602542ac-0a21-4604-a2da-16cdfa696751","meta":{"profile":["http://hl7.org/fhir/us/cqfmeasures/StructureDefinition/test-case-cqfm"]},"contained":[{"resourceType":"Parameters","id":"81f68c22-9e6b-4251-a34e-af60f1a93f24-parameters","parameter":[{"name":"subject","valueString":"3cd86896-d4cb-4396-b4ad-96d3675b74e1"}]}],"extension":[{"url":"http://hl7.org/fhir/StructureDefinition/cqf-inputParameters","valueReference":{"reference":"#81f68c22-9e6b-4251-a34e-af60f1a93f24-parameters"}},{"url":"http://hl7.org/fhir/us/cqfmeasures/StructureDefinition/cqfm-testCaseDescription","valueMarkdown":"Patient with Glaucoma diagnosis which has verification status of entered in error and does not meet initial population criteria therefore"}],"modifierExtension":[{"url":"http://hl7.org/fhir/us/cqfmeasures/StructureDefinition/cqfm-isTestCase","valueBoolean":true}],"status":"complete","type":"individual","measure":"https://madie.cms.gov/Measure/CMS143FHIRPOAGOpticNerveEvaluation","period":{"start":"2026-01-01","end":"2026-12-31"},"group":[{"id":"Group_1","population":[{"id":"InitialPopulation_1","code":{"coding":[{"system":"http://terminology.hl7.org/CodeSystem/measure-population","code":"initial-population","display":"Initial Population"}]},"count":0},{"id":"Denominator_1","code":{"coding":[{"system":"http://terminology.hl7.org/CodeSystem/measure-population","code":"denominator","display":"Denominator"}]},"count":0},{"id":"Numerator_1","code":{"coding":[{"system":"http://terminology.hl7.org/CodeSystem/measure-population","code":"numerator","display":"Numerator"}]},"count":0},{"id":"DenominatorException_1","code":{"coding":[{"system":"http://terminology.hl7.org/CodeSystem/measure-population","code":"denominator-exception","display":"Denominator Exception"}]},"count":0}],"measureScore":{"value":1.0}}],"evaluatedResource":[{"reference":"Patient/3cd86896-d4cb-4396-b4ad-96d3675b74e1"},{"reference":"Encounter/1d940dae-5da3-4082-8bec-0c1d84dc9d55"},{"reference":"Condition/ae55de9f-d0e5-44ae-af0e-bf70536ce6d6"}]},"request":{"method":"PUT","url":"MeasureReport/602542ac-0a21-4604-a2da-16cdfa696751"}}]},"request":{"method":"PUT","url":"Bundle/6109658e98086b538055b9e4"}},{"resource":{"resourceType":"Condition","id":"ae55de9f-d0e5-44ae-af0e-bf70536ce6d6","meta":{"profile":["http://hl7.org/fhir/us/qicore/StructureDefinition/qicore-condition-problems-health-concerns"]},"clinicalStatus":{"coding":[{"system":"http://terminology.hl7.org/CodeSystem/condition-clinical","code":"inactive","display":"resolved"}]},"verificationStatus":{"coding":[{"system":"http://terminology.hl7.org/CodeSystem/condition-ver-status","code":"entered-in-error","display":"Entered in Error"}],"text":"Entered in Error"},"category":[{"coding":[{"system":"http://terminology.hl7.org/CodeSystem/condition-category","code":"problem-list-item","display":"problem-list-item","userSelected":true}]}],"code":{"coding":[{"system":"http://snomed.info/sct","version":"http://snomed.info/sct/731000124108/version/20230301","code":"15633281000119103","display":"Bilateral primary open angle glaucoma (disorder)"}]},"subject":{"reference":"Patient/3cd86896-d4cb-4396-b4ad-96d3675b74e1"},"onsetDateTime":"2025-01-01T08:00:00.000+00:00"},"request":{"method":"PUT","url":"Condition/ae55de9f-d0e5-44ae-af0e-bf70536ce6d6"}},{"resource":{"resourceType":"Encounter","id":"1d940dae-5da3-4082-8bec-0c1d84dc9d55","meta":{"profile":["http://hl7.org/fhir/us/qicore/StructureDefinition/qicore-encounter"]},"status":"finished","class":{"system":"http://terminology.hl7.org/CodeSystem/v3-ActCode","code":"AMB","display":"ambulatory","userSelected":true},"type":[{"coding":[{"system":"http://snomed.info/sct","version":"http://snomed.info/sct/731000124108/version/202303","code":"37894004"},{"system":"http://www.ama-assn.org/go/cpt","version":"2023","code":"99213","userSelected":true}]}],"subject":{"reference":"Patient/3cd86896-d4cb-4396-b4ad-96d3675b74e1"},"period":{"start":"2026-03-05T08:00:00.000+00:00","end":"2026-03-05T08:30:00.000+00:00"}},"request":{"method":"PUT","url":"Encounter/1d940dae-5da3-4082-8bec-0c1d84dc9d55"}},{"resource":{"resourceType":"MeasureReport","id":"602542ac-0a21-4604-a2da-16cdfa696751","meta":{"profile":["http://hl7.org/fhir/us/cqfmeasures/StructureDefinition/test-case-cqfm"]},"contained":[{"resourceType":"Parameters","id":"81f68c22-9e6b-4251-a34e-af60f1a93f24-parameters","parameter":[{"name":"subject","valueString":"3cd86896-d4cb-4396-b4ad-96d3675b74e1"}]}],"extension":[{"url":"http://hl7.org/fhir/StructureDefinition/cqf-inputParameters","valueReference":{"reference":"#81f68c22-9e6b-4251-a34e-af60f1a93f24-parameters"}},{"url":"http://hl7.org/fhir/us/cqfmeasures/StructureDefinition/cqfm-testCaseDescription","valueMarkdown":"Patient with Glaucoma diagnosis which has verification status of entered in error and does not meet initial population criteria therefore"}],"modifierExtension":[{"url":"http://hl7.org/fhir/us/cqfmeasures/StructureDefinition/cqfm-isTestCase","valueBoolean":true}],"status":"complete","type":"individual","measure":"https://madie.cms.gov/Measure/CMS143FHIRPOAGOpticNerveEvaluation","period":{"start":"2026-01-01","end":"2026-12-31"},"group":[{"id":"Group_1","population":[{"id":"InitialPopulation_1","code":{"coding":[{"system":"http://terminology.hl7.org/CodeSystem/measure-population","code":"initial-population","display":"Initial Population"}]},"count":0},{"id":"Denominator_1","code":{"coding":[{"system":"http://terminology.hl7.org/CodeSystem/measure-population","code":"denominator","display":"Denominator"}]},"count":0},{"id":"Numerator_1","code":{"coding":[{"system":"http://terminology.hl7.org/CodeSystem/measure-population","code":"numerator","display":"Numerator"}]},"count":0},{"id":"DenominatorException_1","code":{"coding":[{"system":"http://terminology.hl7.org/CodeSystem/measure-population","code":"denominator-exception","display":"Denominator Exception"}]},"count":0}],"measureScore":{"value":1.0}}],"evaluatedResource":[{"reference":"Patient/3cd86896-d4cb-4396-b4ad-96d3675b74e1"},{"reference":"Encounter/1d940dae-5da3-4082-8bec-0c1d84dc9d55"},{"reference":"Condition/ae55de9f-d0e5-44ae-af0e-bf70536ce6d6"}]},"request":{"method":"PUT","url":"MeasureReport/602542ac-0a21-4604-a2da-16cdfa696751"}}]}