{"resourceType":"Bundle","id":"tests-8352db6f-c4c7-4eb1-8264-ea3db86f1c6e-bundle","type":"transaction","entry":[{"fullUrl":"Observation/82a44546-877e-484e-8737-7845ce791d2f","resource":{"resourceType":"Observation","id":"82a44546-877e-484e-8737-7845ce791d2f","meta":{"profile":["http://hl7.org/fhir/us/qicore/StructureDefinition/qicore-observation-clinical-result"]},"status":"final","category":[{"coding":[{"system":"http://terminology.hl7.org/CodeSystem/observation-category","code":"laboratory","display":"laboratory","userSelected":true}]}],"code":{"coding":[{"system":"http://loinc.org","version":"2.73","code":"71484-0"}]},"subject":{"reference":"Patient/8352db6f-c4c7-4eb1-8264-ea3db86f1c6e"},"effectiveDateTime":"2026-01-24T09:01:00.000+00:00","valueQuantity":{"value":0.7}},"request":{"method":"PUT","url":"Observation/82a44546-877e-484e-8737-7845ce791d2f"}},{"fullUrl":"Condition/39eaea32-485b-408e-8765-fe31fcdae8f5","resource":{"resourceType":"Condition","id":"39eaea32-485b-408e-8765-fe31fcdae8f5","meta":{"profile":["http://hl7.org/fhir/us/qicore/StructureDefinition/qicore-condition-problems-health-concerns"]},"clinicalStatus":{"coding":[{"system":"http://terminology.hl7.org/CodeSystem/condition-clinical","code":"active","display":"active","userSelected":true}]},"category":[{"coding":[{"system":"http://terminology.hl7.org/CodeSystem/condition-category","code":"problem-list-item","display":"problem-list-item","userSelected":true}]}],"code":{"coding":[{"system":"http://hl7.org/fhir/sid/icd-10-cm","code":"H40.10X0"}]},"subject":{"reference":"Patient/8352db6f-c4c7-4eb1-8264-ea3db86f1c6e"},"onsetDateTime":"2026-01-24T08:01:00+00:00"},"request":{"method":"PUT","url":"Condition/39eaea32-485b-408e-8765-fe31fcdae8f5"}},{"fullUrl":"Encounter/6b66f5d4-69a3-4d64-a2b4-4cd0526d04c8","resource":{"resourceType":"Encounter","id":"6b66f5d4-69a3-4d64-a2b4-4cd0526d04c8","meta":{"profile":["http://hl7.org/fhir/us/qicore/StructureDefinition/qicore-encounter"]},"status":"finished","class":{"system":"http://terminology.hl7.org/CodeSystem/v3-ActCode","code":"AMB","display":"ambulatory","userSelected":true},"type":[{"coding":[{"system":"http://www.ama-assn.org/go/cpt","version":"2023","code":"92012"}]}],"subject":{"reference":"Patient/8352db6f-c4c7-4eb1-8264-ea3db86f1c6e"},"period":{"start":"2026-01-24T08:00:00.000+00:00","end":"2026-01-24T08:00:00.000+00:00"},"length":{"value":0.0,"unit":"days"}},"request":{"method":"PUT","url":"Encounter/6b66f5d4-69a3-4d64-a2b4-4cd0526d04c8"}},{"fullUrl":"MeasureReport/a1e28efd-572e-4595-ab76-9e3f0dbe6343","resource":{"resourceType":"MeasureReport","id":"a1e28efd-572e-4595-ab76-9e3f0dbe6343","meta":{"profile":["http://hl7.org/fhir/us/cqfmeasures/StructureDefinition/test-case-cqfm"]},"contained":[{"resourceType":"Parameters","id":"96e6b4d6-d7ac-40e2-a8c6-903ebedab006-parameters","parameter":[{"name":"subject","valueString":"8352db6f-c4c7-4eb1-8264-ea3db86f1c6e"}]}],"extension":[{"url":"http://hl7.org/fhir/StructureDefinition/cqf-inputParameters","valueReference":{"reference":"#96e6b4d6-d7ac-40e2-a8c6-903ebedab006-parameters"}},{"url":"http://hl7.org/fhir/us/cqfmeasures/StructureDefinition/cqfm-testCaseDescription","valueMarkdown":"Glaucoma Diagnosis onset starts 1 minute after encounter and fails overlap interval"}],"modifierExtension":[{"url":"http://hl7.org/fhir/us/cqfmeasures/StructureDefinition/cqfm-isTestCase","valueBoolean":true}],"status":"complete","type":"individual","measure":"https://madie.cms.gov/Measure/CMS143FHIRPOAGOpticNerveEvaluation","period":{"start":"2026-01-01","end":"2026-12-31"},"group":[{"id":"Group_1","population":[{"id":"InitialPopulation_1","code":{"coding":[{"system":"http://terminology.hl7.org/CodeSystem/measure-population","code":"initial-population","display":"Initial Population"}]},"count":0},{"id":"Denominator_1","code":{"coding":[{"system":"http://terminology.hl7.org/CodeSystem/measure-population","code":"denominator","display":"Denominator"}]},"count":0},{"id":"Numerator_1","code":{"coding":[{"system":"http://terminology.hl7.org/CodeSystem/measure-population","code":"numerator","display":"Numerator"}]},"count":0},{"id":"DenominatorException_1","code":{"coding":[{"system":"http://terminology.hl7.org/CodeSystem/measure-population","code":"denominator-exception","display":"Denominator Exception"}]},"count":0}],"measureScore":{"value":1.0}}],"evaluatedResource":[{"reference":"Patient/8352db6f-c4c7-4eb1-8264-ea3db86f1c6e"},{"reference":"Condition/39eaea32-485b-408e-8765-fe31fcdae8f5"},{"reference":"Observation/eae44e5d-0a17-4a06-a8ff-4b3e572854c4"},{"reference":"Observation/82a44546-877e-484e-8737-7845ce791d2f"},{"reference":"Encounter/6b66f5d4-69a3-4d64-a2b4-4cd0526d04c8"}]},"request":{"method":"PUT","url":"MeasureReport/a1e28efd-572e-4595-ab76-9e3f0dbe6343"}},{"fullUrl":"Observation/eae44e5d-0a17-4a06-a8ff-4b3e572854c4","resource":{"resourceType":"Observation","id":"eae44e5d-0a17-4a06-a8ff-4b3e572854c4","meta":{"profile":["http://hl7.org/fhir/us/qicore/StructureDefinition/qicore-observation-clinical-result"]},"status":"final","category":[{"coding":[{"system":"http://terminology.hl7.org/CodeSystem/observation-category","code":"laboratory","display":"laboratory","userSelected":true}]}],"code":{"coding":[{"system":"http://loinc.org","version":"2.73","code":"71486-5"}]},"subject":{"reference":"Patient/8352db6f-c4c7-4eb1-8264-ea3db86f1c6e"},"effectiveDateTime":"2026-01-22T08:00:00.000+00:00","valueString":"Optic disc neural rim asymmetry of the two eyes consistent with loss of neural tissue"},"request":{"method":"PUT","url":"Observation/eae44e5d-0a17-4a06-a8ff-4b3e572854c4"}},{"fullUrl":"Patient/8352db6f-c4c7-4eb1-8264-ea3db86f1c6e","resource":{"resourceType":"Patient","id":"8352db6f-c4c7-4eb1-8264-ea3db86f1c6e","meta":{"profile":["http://hl7.org/fhir/us/qicore/StructureDefinition/qicore-patient"]},"extension":[{"url":"http://hl7.org/fhir/us/core/StructureDefinition/us-core-race","extension":[{"url":"ombCategory","valueCoding":{"system":"urn:oid:2.16.840.1.113883.6.238","code":"2054-5","display":"Black or African American","userSelected":true}},{"url":"text","valueString":"Black or African American"}]},{"url":"http://hl7.org/fhir/us/core/StructureDefinition/us-core-ethnicity","extension":[{"url":"ombCategory","valueCoding":{"system":"urn:oid:2.16.840.1.113883.6.238","code":"2135-2","display":"Hispanic or Latino","userSelected":true}},{"url":"text","valueString":"Hispanic or Latino"}]}],"identifier":[{"type":{"coding":[{"system":"http://terminology.hl7.org/CodeSystem/v2-0203","code":"MR"}]},"system":"https://bonnie-fhir.healthit.gov/","value":"6109658e98086b538055b9d0"}],"active":true,"name":[{"use":"usual","family":"IPPFail","given":["GlaucomaDXOGTEncStart"]}],"gender":"female","birthDate":"1948-09-18"},"request":{"method":"PUT","url":"Patient/8352db6f-c4c7-4eb1-8264-ea3db86f1c6e"}},{"fullUrl":"Bundle/6109658e98086b538055b9d0","resource":{"resourceType":"Bundle","id":"6109658e98086b538055b9d0","type":"transaction","entry":[{"fullUrl":"https://madie.cms.gov/Patient/8352db6f-c4c7-4eb1-8264-ea3db86f1c6e","resource":{"resourceType":"Patient","id":"8352db6f-c4c7-4eb1-8264-ea3db86f1c6e","meta":{"profile":["http://hl7.org/fhir/us/qicore/StructureDefinition/qicore-patient"]},"extension":[{"url":"http://hl7.org/fhir/us/core/StructureDefinition/us-core-race","extension":[{"url":"ombCategory","valueCoding":{"system":"urn:oid:2.16.840.1.113883.6.238","code":"2054-5","display":"Black or African American","userSelected":true}},{"url":"text","valueString":"Black or African American"}]},{"url":"http://hl7.org/fhir/us/core/StructureDefinition/us-core-ethnicity","extension":[{"url":"ombCategory","valueCoding":{"system":"urn:oid:2.16.840.1.113883.6.238","code":"2135-2","display":"Hispanic or Latino","userSelected":true}},{"url":"text","valueString":"Hispanic or Latino"}]}],"identifier":[{"type":{"coding":[{"system":"http://terminology.hl7.org/CodeSystem/v2-0203","code":"MR"}]},"system":"https://bonnie-fhir.healthit.gov/","value":"6109658e98086b538055b9d0"}],"active":true,"name":[{"use":"usual","family":"IPPFail","given":["GlaucomaDXOGTEncStart"]}],"gender":"female","birthDate":"1948-09-18"},"request":{"method":"PUT","url":"Patient/8352db6f-c4c7-4eb1-8264-ea3db86f1c6e"}},{"fullUrl":"https://madie.cms.gov/Condition/39eaea32-485b-408e-8765-fe31fcdae8f5","resource":{"resourceType":"Condition","id":"39eaea32-485b-408e-8765-fe31fcdae8f5","meta":{"profile":["http://hl7.org/fhir/us/qicore/StructureDefinition/qicore-condition-problems-health-concerns"]},"clinicalStatus":{"coding":[{"system":"http://terminology.hl7.org/CodeSystem/condition-clinical","code":"active","display":"active","userSelected":true}]},"category":[{"coding":[{"system":"http://terminology.hl7.org/CodeSystem/condition-category","code":"problem-list-item","display":"problem-list-item","userSelected":true}]}],"code":{"coding":[{"system":"http://hl7.org/fhir/sid/icd-10-cm","code":"H40.10X0"}]},"subject":{"reference":"Patient/8352db6f-c4c7-4eb1-8264-ea3db86f1c6e"},"onsetDateTime":"2026-01-24T08:01:00+00:00"},"request":{"method":"PUT","url":"Condition/39eaea32-485b-408e-8765-fe31fcdae8f5"}},{"fullUrl":"https://madie.cms.gov/Observation/eae44e5d-0a17-4a06-a8ff-4b3e572854c4","resource":{"resourceType":"Observation","id":"eae44e5d-0a17-4a06-a8ff-4b3e572854c4","meta":{"profile":["http://hl7.org/fhir/us/qicore/StructureDefinition/qicore-observation-clinical-result"]},"status":"final","category":[{"coding":[{"system":"http://terminology.hl7.org/CodeSystem/observation-category","code":"laboratory","display":"laboratory","userSelected":true}]}],"code":{"coding":[{"system":"http://loinc.org","version":"2.73","code":"71486-5"}]},"subject":{"reference":"Patient/8352db6f-c4c7-4eb1-8264-ea3db86f1c6e"},"effectiveDateTime":"2026-01-22T08:00:00.000+00:00","valueString":"Optic disc neural rim asymmetry of the two eyes consistent with loss of neural tissue"},"request":{"method":"PUT","url":"Observation/eae44e5d-0a17-4a06-a8ff-4b3e572854c4"}},{"fullUrl":"https://madie.cms.gov/Observation/82a44546-877e-484e-8737-7845ce791d2f","resource":{"resourceType":"Observation","id":"82a44546-877e-484e-8737-7845ce791d2f","meta":{"profile":["http://hl7.org/fhir/us/qicore/StructureDefinition/qicore-observation-clinical-result"]},"status":"final","category":[{"coding":[{"system":"http://terminology.hl7.org/CodeSystem/observation-category","code":"laboratory","display":"laboratory","userSelected":true}]}],"code":{"coding":[{"system":"http://loinc.org","version":"2.73","code":"71484-0"}]},"subject":{"reference":"Patient/8352db6f-c4c7-4eb1-8264-ea3db86f1c6e"},"effectiveDateTime":"2026-01-24T09:01:00.000+00:00","valueQuantity":{"value":0.7}},"request":{"method":"PUT","url":"Observation/82a44546-877e-484e-8737-7845ce791d2f"}},{"fullUrl":"https://madie.cms.gov/Encounter/6b66f5d4-69a3-4d64-a2b4-4cd0526d04c8","resource":{"resourceType":"Encounter","id":"6b66f5d4-69a3-4d64-a2b4-4cd0526d04c8","meta":{"profile":["http://hl7.org/fhir/us/qicore/StructureDefinition/qicore-encounter"]},"status":"finished","class":{"system":"http://terminology.hl7.org/CodeSystem/v3-ActCode","code":"AMB","display":"ambulatory","userSelected":true},"type":[{"coding":[{"system":"http://www.ama-assn.org/go/cpt","version":"2023","code":"92012"}]}],"subject":{"reference":"Patient/8352db6f-c4c7-4eb1-8264-ea3db86f1c6e"},"period":{"start":"2026-01-24T08:00:00.000+00:00","end":"2026-01-24T08:00:00.000+00:00"},"length":{"value":0.0,"unit":"days"}},"request":{"method":"PUT","url":"Encounter/6b66f5d4-69a3-4d64-a2b4-4cd0526d04c8"}},{"fullUrl":"https://madie.cms.gov/MeasureReport/a1e28efd-572e-4595-ab76-9e3f0dbe6343","resource":{"resourceType":"MeasureReport","id":"a1e28efd-572e-4595-ab76-9e3f0dbe6343","meta":{"profile":["http://hl7.org/fhir/us/cqfmeasures/StructureDefinition/test-case-cqfm"]},"contained":[{"resourceType":"Parameters","id":"96e6b4d6-d7ac-40e2-a8c6-903ebedab006-parameters","parameter":[{"name":"subject","valueString":"8352db6f-c4c7-4eb1-8264-ea3db86f1c6e"}]}],"extension":[{"url":"http://hl7.org/fhir/StructureDefinition/cqf-inputParameters","valueReference":{"reference":"#96e6b4d6-d7ac-40e2-a8c6-903ebedab006-parameters"}},{"url":"http://hl7.org/fhir/us/cqfmeasures/StructureDefinition/cqfm-testCaseDescription","valueMarkdown":"Glaucoma Diagnosis onset starts 1 minute after encounter and fails overlap interval"}],"modifierExtension":[{"url":"http://hl7.org/fhir/us/cqfmeasures/StructureDefinition/cqfm-isTestCase","valueBoolean":true}],"status":"complete","type":"individual","measure":"https://madie.cms.gov/Measure/CMS143FHIRPOAGOpticNerveEvaluation","period":{"start":"2026-01-01","end":"2026-12-31"},"group":[{"id":"Group_1","population":[{"id":"InitialPopulation_1","code":{"coding":[{"system":"http://terminology.hl7.org/CodeSystem/measure-population","code":"initial-population","display":"Initial Population"}]},"count":0},{"id":"Denominator_1","code":{"coding":[{"system":"http://terminology.hl7.org/CodeSystem/measure-population","code":"denominator","display":"Denominator"}]},"count":0},{"id":"Numerator_1","code":{"coding":[{"system":"http://terminology.hl7.org/CodeSystem/measure-population","code":"numerator","display":"Numerator"}]},"count":0},{"id":"DenominatorException_1","code":{"coding":[{"system":"http://terminology.hl7.org/CodeSystem/measure-population","code":"denominator-exception","display":"Denominator Exception"}]},"count":0}],"measureScore":{"value":1.0}}],"evaluatedResource":[{"reference":"Patient/8352db6f-c4c7-4eb1-8264-ea3db86f1c6e"},{"reference":"Condition/39eaea32-485b-408e-8765-fe31fcdae8f5"},{"reference":"Observation/eae44e5d-0a17-4a06-a8ff-4b3e572854c4"},{"reference":"Observation/82a44546-877e-484e-8737-7845ce791d2f"},{"reference":"Encounter/6b66f5d4-69a3-4d64-a2b4-4cd0526d04c8"}]},"request":{"method":"PUT","url":"MeasureReport/a1e28efd-572e-4595-ab76-9e3f0dbe6343"}}]},"request":{"method":"PUT","url":"Bundle/6109658e98086b538055b9d0"}}]}