{"resourceType":"Bundle","id":"tests-1821adaa-fc62-4a94-9ebc-388ef6ced017-bundle","type":"transaction","entry":[{"fullUrl":"Observation/1aa4ea01-10ec-4c99-aab5-1ec805d5204e","resource":{"resourceType":"Observation","id":"1aa4ea01-10ec-4c99-aab5-1ec805d5204e","meta":{"profile":["http://hl7.org/fhir/us/qicore/StructureDefinition/qicore-observationcancelled"]},"extension":[{"url":"http://hl7.org/fhir/us/qicore/StructureDefinition/qicore-notDoneReason","valueCodeableConcept":{"coding":[{"system":"http://snomed.info/sct","version":"http://snomed.info/sct/731000124108/version/202303","code":"410536001","display":"Contraindicated (qualifier value)"}]}}],"status":"cancelled","category":[{"coding":[{"system":"http://snomed.info/sct","version":"http://snomed.info/sct/731000124108/version/202303","code":"428119001","display":"Procedure not indicated (situation)","userSelected":true}]}],"code":{"coding":[{"system":"http://loinc.org","version":"2.73","code":"71487-3"}]},"subject":{"reference":"Patient/1821adaa-fc62-4a94-9ebc-388ef6ced017"},"effectiveDateTime":"2026-05-29T09:00:00.000+00:00","issued":"2026-05-29T09:00:00.000+00:00"},"request":{"method":"PUT","url":"Observation/1aa4ea01-10ec-4c99-aab5-1ec805d5204e"}},{"fullUrl":"Observation/d9f24d9f-29d8-4cc1-9016-2ed3973cd7f7","resource":{"resourceType":"Observation","id":"d9f24d9f-29d8-4cc1-9016-2ed3973cd7f7","meta":{"profile":["http://hl7.org/fhir/us/qicore/StructureDefinition/qicore-observationcancelled"]},"extension":[{"url":"http://hl7.org/fhir/us/qicore/StructureDefinition/qicore-notDoneReason","valueCodeableConcept":{"coding":[{"system":"http://snomed.info/sct","version":"http://snomed.info/sct/731000124108/version/202303","code":"410536001","display":"Contraindicated (qualifier value)"}]}}],"status":"cancelled","category":[{"coding":[{"system":"http://snomed.info/sct","version":"http://snomed.info/sct/731000124108/version/202303","code":"35688006","display":"Complication of medical care (disorder)","userSelected":true}]}],"code":{"coding":[{"system":"http://loinc.org","version":"2.73","code":"71484-0"}]},"subject":{"reference":"Patient/1821adaa-fc62-4a94-9ebc-388ef6ced017"},"encounter":{"reference":"Encounter/5366aed3-a7b2-4095-a118-28eedc6ca5dd"},"effectiveDateTime":"2026-05-29T09:00:00.000+00:00","issued":"2026-05-29T09:00:00.000+00:00"},"request":{"method":"PUT","url":"Observation/d9f24d9f-29d8-4cc1-9016-2ed3973cd7f7"}},{"fullUrl":"Patient/1821adaa-fc62-4a94-9ebc-388ef6ced017","resource":{"resourceType":"Patient","id":"1821adaa-fc62-4a94-9ebc-388ef6ced017","meta":{"profile":["http://hl7.org/fhir/us/qicore/StructureDefinition/qicore-patient"]},"extension":[{"url":"http://hl7.org/fhir/us/core/StructureDefinition/us-core-race","extension":[{"url":"ombCategory","valueCoding":{"system":"urn:oid:2.16.840.1.113883.6.238","code":"1002-5","display":"American Indian or Alaska Native","userSelected":true}},{"url":"text","valueString":"American Indian or Alaska Native"}]},{"url":"http://hl7.org/fhir/us/core/StructureDefinition/us-core-ethnicity","extension":[{"url":"ombCategory","valueCoding":{"system":"urn:oid:2.16.840.1.113883.6.238","code":"2135-2","display":"Hispanic or Latino","userSelected":true}},{"url":"text","valueString":"Hispanic or Latino"}]}],"identifier":[{"type":{"coding":[{"system":"http://terminology.hl7.org/CodeSystem/v2-0203","code":"MR"}]},"system":"https://bonnie-fhir.healthit.gov/","value":"6109658e98086b538055b9d3"}],"active":true,"name":[{"use":"usual","family":"DENEXCEPPass","given":["TwoDiscExamNotDoneForMR"]}],"gender":"male","birthDate":"1929-11-18"},"request":{"method":"PUT","url":"Patient/1821adaa-fc62-4a94-9ebc-388ef6ced017"}},{"fullUrl":"MeasureReport/91d88a9e-4b26-4f41-a10e-4a020e3f2ed3","resource":{"resourceType":"MeasureReport","id":"91d88a9e-4b26-4f41-a10e-4a020e3f2ed3","meta":{"profile":["http://hl7.org/fhir/us/cqfmeasures/StructureDefinition/test-case-cqfm"]},"contained":[{"resourceType":"Parameters","id":"7fe500ce-9107-491d-8109-ffe366c882d7-parameters","parameter":[{"name":"subject","valueString":"1821adaa-fc62-4a94-9ebc-388ef6ced017"}]}],"extension":[{"url":"http://hl7.org/fhir/StructureDefinition/cqf-inputParameters","valueReference":{"reference":"#7fe500ce-9107-491d-8109-ffe366c882d7-parameters"}},{"url":"http://hl7.org/fhir/us/cqfmeasures/StructureDefinition/cqfm-testCaseDescription","valueMarkdown":"Patient with glaucoma, nursing home visit, cup to disc ratio and optic disc exam not performed for medical reason. "}],"modifierExtension":[{"url":"http://hl7.org/fhir/us/cqfmeasures/StructureDefinition/cqfm-isTestCase","valueBoolean":true}],"status":"complete","type":"individual","measure":"https://madie.cms.gov/Measure/CMS143FHIRPOAGOpticNerveEvaluation","period":{"start":"2026-01-01","end":"2026-12-31"},"group":[{"id":"Group_1","population":[{"id":"InitialPopulation_1","code":{"coding":[{"system":"http://terminology.hl7.org/CodeSystem/measure-population","code":"initial-population","display":"Initial Population"}]},"count":1},{"id":"Denominator_1","code":{"coding":[{"system":"http://terminology.hl7.org/CodeSystem/measure-population","code":"denominator","display":"Denominator"}]},"count":1},{"id":"Numerator_1","code":{"coding":[{"system":"http://terminology.hl7.org/CodeSystem/measure-population","code":"numerator","display":"Numerator"}]},"count":0},{"id":"DenominatorException_1","code":{"coding":[{"system":"http://terminology.hl7.org/CodeSystem/measure-population","code":"denominator-exception","display":"Denominator Exception"}]},"count":1}],"measureScore":{"value":1.0}}],"evaluatedResource":[{"reference":"Patient/1821adaa-fc62-4a94-9ebc-388ef6ced017"},{"reference":"Condition/59e79673-24b3-4275-a8e8-da29ada45b47"},{"reference":"Observation/1aa4ea01-10ec-4c99-aab5-1ec805d5204e"},{"reference":"Observation/d9f24d9f-29d8-4cc1-9016-2ed3973cd7f7"},{"reference":"Encounter/5366aed3-a7b2-4095-a118-28eedc6ca5dd"}]},"request":{"method":"PUT","url":"MeasureReport/91d88a9e-4b26-4f41-a10e-4a020e3f2ed3"}},{"fullUrl":"Encounter/5366aed3-a7b2-4095-a118-28eedc6ca5dd","resource":{"resourceType":"Encounter","id":"5366aed3-a7b2-4095-a118-28eedc6ca5dd","meta":{"profile":["http://hl7.org/fhir/us/qicore/StructureDefinition/qicore-encounter"]},"status":"finished","class":{"system":"http://terminology.hl7.org/CodeSystem/v3-ActCode","code":"AMB","display":"ambulatory","userSelected":true},"type":[{"coding":[{"system":"http://www.ama-assn.org/go/cpt","version":"2023","code":"99307"}]}],"subject":{"reference":"Patient/1821adaa-fc62-4a94-9ebc-388ef6ced017"},"period":{"start":"2026-05-29T08:45:00.000+00:00","end":"2026-05-29T09:45:00.000+00:00"},"length":{"value":0.0,"unit":"days"}},"request":{"method":"PUT","url":"Encounter/5366aed3-a7b2-4095-a118-28eedc6ca5dd"}},{"fullUrl":"Condition/59e79673-24b3-4275-a8e8-da29ada45b47","resource":{"resourceType":"Condition","id":"59e79673-24b3-4275-a8e8-da29ada45b47","meta":{"profile":["http://hl7.org/fhir/us/qicore/StructureDefinition/qicore-condition-problems-health-concerns"]},"clinicalStatus":{"coding":[{"system":"http://terminology.hl7.org/CodeSystem/condition-clinical","code":"active","display":"active","userSelected":true}]},"category":[{"coding":[{"system":"http://terminology.hl7.org/CodeSystem/condition-category","code":"problem-list-item","display":"problem-list-item","userSelected":true}]}],"code":{"coding":[{"system":"http://hl7.org/fhir/sid/icd-10-cm","version":"2023","code":"H40.153"}]},"subject":{"reference":"Patient/1821adaa-fc62-4a94-9ebc-388ef6ced017"},"onsetDateTime":"2013-03-09T08:45:00+00:00"},"request":{"method":"PUT","url":"Condition/59e79673-24b3-4275-a8e8-da29ada45b47"}},{"fullUrl":"Bundle/6109658e98086b538055b9d3","resource":{"resourceType":"Bundle","id":"6109658e98086b538055b9d3","type":"transaction","entry":[{"fullUrl":"https://madie.cms.gov/Patient/1821adaa-fc62-4a94-9ebc-388ef6ced017","resource":{"resourceType":"Patient","id":"1821adaa-fc62-4a94-9ebc-388ef6ced017","meta":{"profile":["http://hl7.org/fhir/us/qicore/StructureDefinition/qicore-patient"]},"extension":[{"url":"http://hl7.org/fhir/us/core/StructureDefinition/us-core-race","extension":[{"url":"ombCategory","valueCoding":{"system":"urn:oid:2.16.840.1.113883.6.238","code":"1002-5","display":"American Indian or Alaska Native","userSelected":true}},{"url":"text","valueString":"American Indian or Alaska Native"}]},{"url":"http://hl7.org/fhir/us/core/StructureDefinition/us-core-ethnicity","extension":[{"url":"ombCategory","valueCoding":{"system":"urn:oid:2.16.840.1.113883.6.238","code":"2135-2","display":"Hispanic or Latino","userSelected":true}},{"url":"text","valueString":"Hispanic or Latino"}]}],"identifier":[{"type":{"coding":[{"system":"http://terminology.hl7.org/CodeSystem/v2-0203","code":"MR"}]},"system":"https://bonnie-fhir.healthit.gov/","value":"6109658e98086b538055b9d3"}],"active":true,"name":[{"use":"usual","family":"DENEXCEPPass","given":["TwoDiscExamNotDoneForMR"]}],"gender":"male","birthDate":"1929-11-18"},"request":{"method":"PUT","url":"Patient/1821adaa-fc62-4a94-9ebc-388ef6ced017"}},{"fullUrl":"https://madie.cms.gov/Condition/59e79673-24b3-4275-a8e8-da29ada45b47","resource":{"resourceType":"Condition","id":"59e79673-24b3-4275-a8e8-da29ada45b47","meta":{"profile":["http://hl7.org/fhir/us/qicore/StructureDefinition/qicore-condition-problems-health-concerns"]},"clinicalStatus":{"coding":[{"system":"http://terminology.hl7.org/CodeSystem/condition-clinical","code":"active","display":"active","userSelected":true}]},"category":[{"coding":[{"system":"http://terminology.hl7.org/CodeSystem/condition-category","code":"problem-list-item","display":"problem-list-item","userSelected":true}]}],"code":{"coding":[{"system":"http://hl7.org/fhir/sid/icd-10-cm","version":"2023","code":"H40.153"}]},"subject":{"reference":"Patient/1821adaa-fc62-4a94-9ebc-388ef6ced017"},"onsetDateTime":"2013-03-09T08:45:00+00:00"},"request":{"method":"PUT","url":"Condition/59e79673-24b3-4275-a8e8-da29ada45b47"}},{"fullUrl":"https://madie.cms.gov/Observation/1aa4ea01-10ec-4c99-aab5-1ec805d5204e","resource":{"resourceType":"Observation","id":"1aa4ea01-10ec-4c99-aab5-1ec805d5204e","meta":{"profile":["http://hl7.org/fhir/us/qicore/StructureDefinition/qicore-observationcancelled"]},"extension":[{"url":"http://hl7.org/fhir/us/qicore/StructureDefinition/qicore-notDoneReason","valueCodeableConcept":{"coding":[{"system":"http://snomed.info/sct","version":"http://snomed.info/sct/731000124108/version/202303","code":"410536001","display":"Contraindicated (qualifier value)"}]}}],"status":"cancelled","category":[{"coding":[{"system":"http://snomed.info/sct","version":"http://snomed.info/sct/731000124108/version/202303","code":"428119001","display":"Procedure not indicated (situation)","userSelected":true}]}],"code":{"coding":[{"system":"http://loinc.org","version":"2.73","code":"71487-3"}]},"subject":{"reference":"Patient/1821adaa-fc62-4a94-9ebc-388ef6ced017"},"effectiveDateTime":"2026-05-29T09:00:00.000+00:00","issued":"2026-05-29T09:00:00.000+00:00"},"request":{"method":"PUT","url":"Observation/1aa4ea01-10ec-4c99-aab5-1ec805d5204e"}},{"fullUrl":"https://madie.cms.gov/Observation/d9f24d9f-29d8-4cc1-9016-2ed3973cd7f7","resource":{"resourceType":"Observation","id":"d9f24d9f-29d8-4cc1-9016-2ed3973cd7f7","meta":{"profile":["http://hl7.org/fhir/us/qicore/StructureDefinition/qicore-observationcancelled"]},"extension":[{"url":"http://hl7.org/fhir/us/qicore/StructureDefinition/qicore-notDoneReason","valueCodeableConcept":{"coding":[{"system":"http://snomed.info/sct","version":"http://snomed.info/sct/731000124108/version/202303","code":"410536001","display":"Contraindicated (qualifier value)"}]}}],"status":"cancelled","category":[{"coding":[{"system":"http://snomed.info/sct","version":"http://snomed.info/sct/731000124108/version/202303","code":"35688006","display":"Complication of medical care (disorder)","userSelected":true}]}],"code":{"coding":[{"system":"http://loinc.org","version":"2.73","code":"71484-0"}]},"subject":{"reference":"Patient/1821adaa-fc62-4a94-9ebc-388ef6ced017"},"encounter":{"reference":"Encounter/5366aed3-a7b2-4095-a118-28eedc6ca5dd"},"effectiveDateTime":"2026-05-29T09:00:00.000+00:00","issued":"2026-05-29T09:00:00.000+00:00"},"request":{"method":"PUT","url":"Observation/d9f24d9f-29d8-4cc1-9016-2ed3973cd7f7"}},{"fullUrl":"https://madie.cms.gov/Encounter/5366aed3-a7b2-4095-a118-28eedc6ca5dd","resource":{"resourceType":"Encounter","id":"5366aed3-a7b2-4095-a118-28eedc6ca5dd","meta":{"profile":["http://hl7.org/fhir/us/qicore/StructureDefinition/qicore-encounter"]},"status":"finished","class":{"system":"http://terminology.hl7.org/CodeSystem/v3-ActCode","code":"AMB","display":"ambulatory","userSelected":true},"type":[{"coding":[{"system":"http://www.ama-assn.org/go/cpt","version":"2023","code":"99307"}]}],"subject":{"reference":"Patient/1821adaa-fc62-4a94-9ebc-388ef6ced017"},"period":{"start":"2026-05-29T08:45:00.000+00:00","end":"2026-05-29T09:45:00.000+00:00"},"length":{"value":0.0,"unit":"days"}},"request":{"method":"PUT","url":"Encounter/5366aed3-a7b2-4095-a118-28eedc6ca5dd"}},{"fullUrl":"https://madie.cms.gov/MeasureReport/91d88a9e-4b26-4f41-a10e-4a020e3f2ed3","resource":{"resourceType":"MeasureReport","id":"91d88a9e-4b26-4f41-a10e-4a020e3f2ed3","meta":{"profile":["http://hl7.org/fhir/us/cqfmeasures/StructureDefinition/test-case-cqfm"]},"contained":[{"resourceType":"Parameters","id":"7fe500ce-9107-491d-8109-ffe366c882d7-parameters","parameter":[{"name":"subject","valueString":"1821adaa-fc62-4a94-9ebc-388ef6ced017"}]}],"extension":[{"url":"http://hl7.org/fhir/StructureDefinition/cqf-inputParameters","valueReference":{"reference":"#7fe500ce-9107-491d-8109-ffe366c882d7-parameters"}},{"url":"http://hl7.org/fhir/us/cqfmeasures/StructureDefinition/cqfm-testCaseDescription","valueMarkdown":"Patient with glaucoma, nursing home visit, cup to disc ratio and optic disc exam not performed for medical reason. "}],"modifierExtension":[{"url":"http://hl7.org/fhir/us/cqfmeasures/StructureDefinition/cqfm-isTestCase","valueBoolean":true}],"status":"complete","type":"individual","measure":"https://madie.cms.gov/Measure/CMS143FHIRPOAGOpticNerveEvaluation","period":{"start":"2026-01-01","end":"2026-12-31"},"group":[{"id":"Group_1","population":[{"id":"InitialPopulation_1","code":{"coding":[{"system":"http://terminology.hl7.org/CodeSystem/measure-population","code":"initial-population","display":"Initial Population"}]},"count":1},{"id":"Denominator_1","code":{"coding":[{"system":"http://terminology.hl7.org/CodeSystem/measure-population","code":"denominator","display":"Denominator"}]},"count":1},{"id":"Numerator_1","code":{"coding":[{"system":"http://terminology.hl7.org/CodeSystem/measure-population","code":"numerator","display":"Numerator"}]},"count":0},{"id":"DenominatorException_1","code":{"coding":[{"system":"http://terminology.hl7.org/CodeSystem/measure-population","code":"denominator-exception","display":"Denominator Exception"}]},"count":1}],"measureScore":{"value":1.0}}],"evaluatedResource":[{"reference":"Patient/1821adaa-fc62-4a94-9ebc-388ef6ced017"},{"reference":"Condition/59e79673-24b3-4275-a8e8-da29ada45b47"},{"reference":"Observation/1aa4ea01-10ec-4c99-aab5-1ec805d5204e"},{"reference":"Observation/d9f24d9f-29d8-4cc1-9016-2ed3973cd7f7"},{"reference":"Encounter/5366aed3-a7b2-4095-a118-28eedc6ca5dd"}]},"request":{"method":"PUT","url":"MeasureReport/91d88a9e-4b26-4f41-a10e-4a020e3f2ed3"}}]},"request":{"method":"PUT","url":"Bundle/6109658e98086b538055b9d3"}}]}