{"resourceType":"Bundle","id":"tests-006665cc-fce7-4e0a-9c13-b394fb41aee2-bundle","type":"transaction","entry":[{"resource":{"resourceType":"MeasureReport","id":"ef79b673-a4a2-497d-a225-fbacb74e4516","meta":{"profile":["http://hl7.org/fhir/us/cqfmeasures/StructureDefinition/test-case-cqfm"]},"contained":[{"resourceType":"Parameters","id":"1b3538a4-206b-4ca7-a42b-eb53ec21ed27-parameters","parameter":[{"name":"subject","valueString":"006665cc-fce7-4e0a-9c13-b394fb41aee2"}]}],"extension":[{"url":"http://hl7.org/fhir/StructureDefinition/cqf-inputParameters","valueReference":{"reference":"#1b3538a4-206b-4ca7-a42b-eb53ec21ed27-parameters"}},{"url":"http://hl7.org/fhir/us/cqfmeasures/StructureDefinition/cqfm-testCaseDescription","valueMarkdown":"Patient is missing glaucoma (POAG) diagnosis "}],"modifierExtension":[{"url":"http://hl7.org/fhir/us/cqfmeasures/StructureDefinition/cqfm-isTestCase","valueBoolean":true}],"status":"complete","type":"individual","measure":"https://madie.cms.gov/Measure/CMS143FHIRPOAGOpticNerveEvaluation","period":{"start":"2026-01-01","end":"2026-12-31"},"group":[{"id":"Group_1","population":[{"id":"InitialPopulation_1","code":{"coding":[{"system":"http://terminology.hl7.org/CodeSystem/measure-population","code":"initial-population","display":"Initial Population"}]},"count":0},{"id":"Denominator_1","code":{"coding":[{"system":"http://terminology.hl7.org/CodeSystem/measure-population","code":"denominator","display":"Denominator"}]},"count":0},{"id":"Numerator_1","code":{"coding":[{"system":"http://terminology.hl7.org/CodeSystem/measure-population","code":"numerator","display":"Numerator"}]},"count":0},{"id":"DenominatorException_1","code":{"coding":[{"system":"http://terminology.hl7.org/CodeSystem/measure-population","code":"denominator-exception","display":"Denominator Exception"}]},"count":0}],"measureScore":{"value":1.0}}],"evaluatedResource":[{"reference":"Patient/006665cc-fce7-4e0a-9c13-b394fb41aee2"},{"reference":"Encounter/2c002b3f-4437-465f-aa82-d6c279a0b74d"}]},"request":{"method":"PUT","url":"MeasureReport/ef79b673-a4a2-497d-a225-fbacb74e4516"}},{"resource":{"resourceType":"Patient","id":"006665cc-fce7-4e0a-9c13-b394fb41aee2","meta":{"profile":["http://hl7.org/fhir/us/qicore/StructureDefinition/qicore-patient"]},"extension":[{"url":"http://hl7.org/fhir/us/core/StructureDefinition/us-core-race","extension":[{"url":"ombCategory","valueCoding":{"system":"urn:oid:2.16.840.1.113883.6.238","code":"2106-3","display":"White","userSelected":true}},{"url":"text","valueString":"White"}]},{"url":"http://hl7.org/fhir/us/core/StructureDefinition/us-core-ethnicity","extension":[{"url":"ombCategory","valueCoding":{"system":"urn:oid:2.16.840.1.113883.6.238","code":"2186-5","display":"Not Hispanic or Latino","userSelected":true}},{"url":"text","valueString":"Not Hispanic or Latino"}]}],"identifier":[{"type":{"coding":[{"system":"http://terminology.hl7.org/CodeSystem/v2-0203","code":"MR"}]},"system":"https://GoodHealthCare.healthit.com/","value":"6109658e98086b538055b9e4"}],"active":true,"name":[{"use":"usual","family":"IPPFail","given":["NoGlaucomaDx"]}],"gender":"male","birthDate":"2007-12-31"},"request":{"method":"PUT","url":"Patient/006665cc-fce7-4e0a-9c13-b394fb41aee2"}},{"resource":{"resourceType":"Encounter","id":"2c002b3f-4437-465f-aa82-d6c279a0b74d","meta":{"profile":["http://hl7.org/fhir/us/qicore/StructureDefinition/qicore-encounter"]},"status":"finished","class":{"system":"http://terminology.hl7.org/CodeSystem/v3-ActCode","code":"AMB","display":"ambulatory","userSelected":true},"type":[{"coding":[{"system":"http://snomed.info/sct","code":"37894004"},{"system":"http://www.ama-assn.org/go/cpt","code":"99213","userSelected":true}]}],"subject":{"reference":"Patient/006665cc-fce7-4e0a-9c13-b394fb41aee2"},"period":{"start":"2026-03-05T08:00:00.000+00:00","end":"2026-03-05T08:30:00.000+00:00"}},"request":{"method":"PUT","url":"Encounter/2c002b3f-4437-465f-aa82-d6c279a0b74d"}},{"resource":{"resourceType":"Bundle","id":"6109658e98086b538055b9e4","type":"transaction","entry":[{"fullUrl":"https://madie.cms.gov/Patient/006665cc-fce7-4e0a-9c13-b394fb41aee2","resource":{"resourceType":"Patient","id":"006665cc-fce7-4e0a-9c13-b394fb41aee2","meta":{"profile":["http://hl7.org/fhir/us/qicore/StructureDefinition/qicore-patient"]},"extension":[{"url":"http://hl7.org/fhir/us/core/StructureDefinition/us-core-race","extension":[{"url":"ombCategory","valueCoding":{"system":"urn:oid:2.16.840.1.113883.6.238","code":"2106-3","display":"White","userSelected":true}},{"url":"text","valueString":"White"}]},{"url":"http://hl7.org/fhir/us/core/StructureDefinition/us-core-ethnicity","extension":[{"url":"ombCategory","valueCoding":{"system":"urn:oid:2.16.840.1.113883.6.238","code":"2186-5","display":"Not Hispanic or Latino","userSelected":true}},{"url":"text","valueString":"Not Hispanic or Latino"}]}],"identifier":[{"type":{"coding":[{"system":"http://terminology.hl7.org/CodeSystem/v2-0203","code":"MR"}]},"system":"https://GoodHealthCare.healthit.com/","value":"6109658e98086b538055b9e4"}],"active":true,"name":[{"use":"usual","family":"IPPFail","given":["NoGlaucomaDx"]}],"gender":"male","birthDate":"2007-12-31"},"request":{"method":"PUT","url":"Patient/006665cc-fce7-4e0a-9c13-b394fb41aee2"}},{"fullUrl":"https://madie.cms.gov/Encounter/2c002b3f-4437-465f-aa82-d6c279a0b74d","resource":{"resourceType":"Encounter","id":"2c002b3f-4437-465f-aa82-d6c279a0b74d","meta":{"profile":["http://hl7.org/fhir/us/qicore/StructureDefinition/qicore-encounter"]},"status":"finished","class":{"system":"http://terminology.hl7.org/CodeSystem/v3-ActCode","code":"AMB","display":"ambulatory","userSelected":true},"type":[{"coding":[{"system":"http://snomed.info/sct","code":"37894004"},{"system":"http://www.ama-assn.org/go/cpt","code":"99213","userSelected":true}]}],"subject":{"reference":"Patient/006665cc-fce7-4e0a-9c13-b394fb41aee2"},"period":{"start":"2026-03-05T08:00:00.000+00:00","end":"2026-03-05T08:30:00.000+00:00"}},"request":{"method":"PUT","url":"Encounter/2c002b3f-4437-465f-aa82-d6c279a0b74d"}},{"fullUrl":"https://madie.cms.gov/MeasureReport/ef79b673-a4a2-497d-a225-fbacb74e4516","resource":{"resourceType":"MeasureReport","id":"ef79b673-a4a2-497d-a225-fbacb74e4516","meta":{"profile":["http://hl7.org/fhir/us/cqfmeasures/StructureDefinition/test-case-cqfm"]},"contained":[{"resourceType":"Parameters","id":"1b3538a4-206b-4ca7-a42b-eb53ec21ed27-parameters","parameter":[{"name":"subject","valueString":"006665cc-fce7-4e0a-9c13-b394fb41aee2"}]}],"extension":[{"url":"http://hl7.org/fhir/StructureDefinition/cqf-inputParameters","valueReference":{"reference":"#1b3538a4-206b-4ca7-a42b-eb53ec21ed27-parameters"}},{"url":"http://hl7.org/fhir/us/cqfmeasures/StructureDefinition/cqfm-testCaseDescription","valueMarkdown":"Patient is missing glaucoma (POAG) diagnosis "}],"modifierExtension":[{"url":"http://hl7.org/fhir/us/cqfmeasures/StructureDefinition/cqfm-isTestCase","valueBoolean":true}],"status":"complete","type":"individual","measure":"https://madie.cms.gov/Measure/CMS143FHIRPOAGOpticNerveEvaluation","period":{"start":"2026-01-01","end":"2026-12-31"},"group":[{"id":"Group_1","population":[{"id":"InitialPopulation_1","code":{"coding":[{"system":"http://terminology.hl7.org/CodeSystem/measure-population","code":"initial-population","display":"Initial Population"}]},"count":0},{"id":"Denominator_1","code":{"coding":[{"system":"http://terminology.hl7.org/CodeSystem/measure-population","code":"denominator","display":"Denominator"}]},"count":0},{"id":"Numerator_1","code":{"coding":[{"system":"http://terminology.hl7.org/CodeSystem/measure-population","code":"numerator","display":"Numerator"}]},"count":0},{"id":"DenominatorException_1","code":{"coding":[{"system":"http://terminology.hl7.org/CodeSystem/measure-population","code":"denominator-exception","display":"Denominator Exception"}]},"count":0}],"measureScore":{"value":1.0}}],"evaluatedResource":[{"reference":"Patient/006665cc-fce7-4e0a-9c13-b394fb41aee2"},{"reference":"Encounter/2c002b3f-4437-465f-aa82-d6c279a0b74d"}]},"request":{"method":"PUT","url":"MeasureReport/ef79b673-a4a2-497d-a225-fbacb74e4516"}}]},"request":{"method":"PUT","url":"Bundle/6109658e98086b538055b9e4"}}]}