{"resourceType":"Bundle","id":"tests-e320fffc-78f7-4fb3-9cce-cc3608809c53-bundle","type":"transaction","entry":[{"resource":{"resourceType":"Patient","id":"e320fffc-78f7-4fb3-9cce-cc3608809c53","meta":{"profile":["http://hl7.org/fhir/us/qicore/StructureDefinition/qicore-patient"]},"extension":[{"url":"http://hl7.org/fhir/us/core/StructureDefinition/us-core-race","extension":[{"url":"ombCategory","valueCoding":{"system":"urn:oid:2.16.840.1.113883.6.238","code":"1002-5","display":"American Indian or Alaska Native","userSelected":true}},{"url":"text","valueString":"American Indian or Alaska Native"}]},{"url":"http://hl7.org/fhir/us/core/StructureDefinition/us-core-ethnicity","extension":[{"url":"ombCategory","valueCoding":{"system":"urn:oid:2.16.840.1.113883.6.238","code":"2186-5","display":"Not Hispanic or Latino","userSelected":true}},{"url":"text","valueString":"Not Hispanic or Latino"}]}],"identifier":[{"type":{"coding":[{"system":"http://terminology.hl7.org/CodeSystem/v2-0203","code":"MR"}]},"system":"https://GoodHealthCare.com/","value":"6109658e98086b538055b9e4"}],"active":true,"name":[{"use":"usual","family":"IPPFail","given":["GlaucomaDxRefuted"]}],"gender":"male","birthDate":"1992-12-31"},"request":{"method":"PUT","url":"Patient/e320fffc-78f7-4fb3-9cce-cc3608809c53"}},{"resource":{"resourceType":"Condition","id":"8f089d9f-2c31-47a4-813d-ae09c5ee8e96","meta":{"profile":["http://hl7.org/fhir/us/qicore/StructureDefinition/qicore-condition-problems-health-concerns"]},"clinicalStatus":{"coding":[{"system":"http://terminology.hl7.org/CodeSystem/condition-clinical","code":"inactive","display":"resolved"}]},"verificationStatus":{"coding":[{"system":"http://terminology.hl7.org/CodeSystem/condition-ver-status","code":"refuted","display":"Refuted"}],"text":"Refuted"},"category":[{"coding":[{"system":"http://terminology.hl7.org/CodeSystem/condition-category","code":"problem-list-item","display":"problem-list-item","userSelected":true}]}],"code":{"coding":[{"system":"http://snomed.info/sct","version":"http://snomed.info/sct/731000124108/version/20230301","code":"15633281000119103","display":"Bilateral primary open angle glaucoma (disorder)"}]},"subject":{"reference":"Patient/e320fffc-78f7-4fb3-9cce-cc3608809c53"},"onsetDateTime":"2025-01-01T08:00:00.000+00:00"},"request":{"method":"PUT","url":"Condition/8f089d9f-2c31-47a4-813d-ae09c5ee8e96"}},{"resource":{"resourceType":"Encounter","id":"8a257446-27ef-46d8-99f4-eca202972e1e","meta":{"profile":["http://hl7.org/fhir/us/qicore/StructureDefinition/qicore-encounter"]},"status":"finished","class":{"system":"http://terminology.hl7.org/CodeSystem/v3-ActCode","code":"AMB","display":"ambulatory","userSelected":true},"type":[{"coding":[{"system":"http://snomed.info/sct","version":"http://snomed.info/sct/731000124108/version/202303","code":"37894004"},{"system":"http://www.ama-assn.org/go/cpt","version":"2023","code":"99213","userSelected":true}]}],"subject":{"reference":"Patient/e320fffc-78f7-4fb3-9cce-cc3608809c53"},"period":{"start":"2026-03-05T08:00:00.000+00:00","end":"2026-03-05T08:30:00.000+00:00"}},"request":{"method":"PUT","url":"Encounter/8a257446-27ef-46d8-99f4-eca202972e1e"}},{"resource":{"resourceType":"Bundle","id":"6109658e98086b538055b9e4","type":"transaction","entry":[{"fullUrl":"https://madie.cms.gov/Patient/e320fffc-78f7-4fb3-9cce-cc3608809c53","resource":{"resourceType":"Patient","id":"e320fffc-78f7-4fb3-9cce-cc3608809c53","meta":{"profile":["http://hl7.org/fhir/us/qicore/StructureDefinition/qicore-patient"]},"extension":[{"url":"http://hl7.org/fhir/us/core/StructureDefinition/us-core-race","extension":[{"url":"ombCategory","valueCoding":{"system":"urn:oid:2.16.840.1.113883.6.238","code":"1002-5","display":"American Indian or Alaska Native","userSelected":true}},{"url":"text","valueString":"American Indian or Alaska Native"}]},{"url":"http://hl7.org/fhir/us/core/StructureDefinition/us-core-ethnicity","extension":[{"url":"ombCategory","valueCoding":{"system":"urn:oid:2.16.840.1.113883.6.238","code":"2186-5","display":"Not Hispanic or Latino","userSelected":true}},{"url":"text","valueString":"Not Hispanic or Latino"}]}],"identifier":[{"type":{"coding":[{"system":"http://terminology.hl7.org/CodeSystem/v2-0203","code":"MR"}]},"system":"https://GoodHealthCare.com/","value":"6109658e98086b538055b9e4"}],"active":true,"name":[{"use":"usual","family":"IPPFail","given":["GlaucomaDxRefuted"]}],"gender":"male","birthDate":"1992-12-31"},"request":{"method":"PUT","url":"Patient/e320fffc-78f7-4fb3-9cce-cc3608809c53"}},{"fullUrl":"https://madie.cms.gov/Encounter/8a257446-27ef-46d8-99f4-eca202972e1e","resource":{"resourceType":"Encounter","id":"8a257446-27ef-46d8-99f4-eca202972e1e","meta":{"profile":["http://hl7.org/fhir/us/qicore/StructureDefinition/qicore-encounter"]},"status":"finished","class":{"system":"http://terminology.hl7.org/CodeSystem/v3-ActCode","code":"AMB","display":"ambulatory","userSelected":true},"type":[{"coding":[{"system":"http://snomed.info/sct","version":"http://snomed.info/sct/731000124108/version/202303","code":"37894004"},{"system":"http://www.ama-assn.org/go/cpt","version":"2023","code":"99213","userSelected":true}]}],"subject":{"reference":"Patient/e320fffc-78f7-4fb3-9cce-cc3608809c53"},"period":{"start":"2026-03-05T08:00:00.000+00:00","end":"2026-03-05T08:30:00.000+00:00"}},"request":{"method":"PUT","url":"Encounter/8a257446-27ef-46d8-99f4-eca202972e1e"}},{"fullUrl":"https://madie.cms.gov/Condition/8f089d9f-2c31-47a4-813d-ae09c5ee8e96","resource":{"resourceType":"Condition","id":"8f089d9f-2c31-47a4-813d-ae09c5ee8e96","meta":{"profile":["http://hl7.org/fhir/us/qicore/StructureDefinition/qicore-condition-problems-health-concerns"]},"clinicalStatus":{"coding":[{"system":"http://terminology.hl7.org/CodeSystem/condition-clinical","code":"inactive","display":"resolved"}]},"verificationStatus":{"coding":[{"system":"http://terminology.hl7.org/CodeSystem/condition-ver-status","code":"refuted","display":"Refuted"}],"text":"Refuted"},"category":[{"coding":[{"system":"http://terminology.hl7.org/CodeSystem/condition-category","code":"problem-list-item","display":"problem-list-item","userSelected":true}]}],"code":{"coding":[{"system":"http://snomed.info/sct","version":"http://snomed.info/sct/731000124108/version/20230301","code":"15633281000119103","display":"Bilateral primary open angle glaucoma (disorder)"}]},"subject":{"reference":"Patient/e320fffc-78f7-4fb3-9cce-cc3608809c53"},"onsetDateTime":"2025-01-01T08:00:00.000+00:00"},"request":{"method":"PUT","url":"Condition/8f089d9f-2c31-47a4-813d-ae09c5ee8e96"}},{"fullUrl":"https://madie.cms.gov/MeasureReport/e18840af-5f0b-463b-a7d6-bd38c763755a","resource":{"resourceType":"MeasureReport","id":"e18840af-5f0b-463b-a7d6-bd38c763755a","meta":{"profile":["http://hl7.org/fhir/us/cqfmeasures/StructureDefinition/test-case-cqfm"]},"contained":[{"resourceType":"Parameters","id":"3a0139a0-f693-4113-81b2-a1eebc014eda-parameters","parameter":[{"name":"subject","valueString":"e320fffc-78f7-4fb3-9cce-cc3608809c53"}]}],"extension":[{"url":"http://hl7.org/fhir/StructureDefinition/cqf-inputParameters","valueReference":{"reference":"#3a0139a0-f693-4113-81b2-a1eebc014eda-parameters"}},{"url":"http://hl7.org/fhir/us/cqfmeasures/StructureDefinition/cqfm-testCaseDescription","valueMarkdown":"Patient with Glaucoma diagnosis which has verification status of refuted and does not meet initial population criteria therefore"}],"modifierExtension":[{"url":"http://hl7.org/fhir/us/cqfmeasures/StructureDefinition/cqfm-isTestCase","valueBoolean":true}],"status":"complete","type":"individual","measure":"https://madie.cms.gov/Measure/CMS143FHIRPOAGOpticNerveEvaluation","period":{"start":"2026-01-01","end":"2026-12-31"},"group":[{"id":"Group_1","population":[{"id":"InitialPopulation_1","code":{"coding":[{"system":"http://terminology.hl7.org/CodeSystem/measure-population","code":"initial-population","display":"Initial Population"}]},"count":0},{"id":"Denominator_1","code":{"coding":[{"system":"http://terminology.hl7.org/CodeSystem/measure-population","code":"denominator","display":"Denominator"}]},"count":0},{"id":"Numerator_1","code":{"coding":[{"system":"http://terminology.hl7.org/CodeSystem/measure-population","code":"numerator","display":"Numerator"}]},"count":0},{"id":"DenominatorException_1","code":{"coding":[{"system":"http://terminology.hl7.org/CodeSystem/measure-population","code":"denominator-exception","display":"Denominator Exception"}]},"count":0}],"measureScore":{"value":1.0}}],"evaluatedResource":[{"reference":"Patient/e320fffc-78f7-4fb3-9cce-cc3608809c53"},{"reference":"Encounter/8a257446-27ef-46d8-99f4-eca202972e1e"},{"reference":"Condition/8f089d9f-2c31-47a4-813d-ae09c5ee8e96"}]},"request":{"method":"PUT","url":"MeasureReport/e18840af-5f0b-463b-a7d6-bd38c763755a"}}]},"request":{"method":"PUT","url":"Bundle/6109658e98086b538055b9e4"}},{"resource":{"resourceType":"MeasureReport","id":"e18840af-5f0b-463b-a7d6-bd38c763755a","meta":{"profile":["http://hl7.org/fhir/us/cqfmeasures/StructureDefinition/test-case-cqfm"]},"contained":[{"resourceType":"Parameters","id":"3a0139a0-f693-4113-81b2-a1eebc014eda-parameters","parameter":[{"name":"subject","valueString":"e320fffc-78f7-4fb3-9cce-cc3608809c53"}]}],"extension":[{"url":"http://hl7.org/fhir/StructureDefinition/cqf-inputParameters","valueReference":{"reference":"#3a0139a0-f693-4113-81b2-a1eebc014eda-parameters"}},{"url":"http://hl7.org/fhir/us/cqfmeasures/StructureDefinition/cqfm-testCaseDescription","valueMarkdown":"Patient with Glaucoma diagnosis which has verification status of refuted and does not meet initial population criteria therefore"}],"modifierExtension":[{"url":"http://hl7.org/fhir/us/cqfmeasures/StructureDefinition/cqfm-isTestCase","valueBoolean":true}],"status":"complete","type":"individual","measure":"https://madie.cms.gov/Measure/CMS143FHIRPOAGOpticNerveEvaluation","period":{"start":"2026-01-01","end":"2026-12-31"},"group":[{"id":"Group_1","population":[{"id":"InitialPopulation_1","code":{"coding":[{"system":"http://terminology.hl7.org/CodeSystem/measure-population","code":"initial-population","display":"Initial Population"}]},"count":0},{"id":"Denominator_1","code":{"coding":[{"system":"http://terminology.hl7.org/CodeSystem/measure-population","code":"denominator","display":"Denominator"}]},"count":0},{"id":"Numerator_1","code":{"coding":[{"system":"http://terminology.hl7.org/CodeSystem/measure-population","code":"numerator","display":"Numerator"}]},"count":0},{"id":"DenominatorException_1","code":{"coding":[{"system":"http://terminology.hl7.org/CodeSystem/measure-population","code":"denominator-exception","display":"Denominator Exception"}]},"count":0}],"measureScore":{"value":1.0}}],"evaluatedResource":[{"reference":"Patient/e320fffc-78f7-4fb3-9cce-cc3608809c53"},{"reference":"Encounter/8a257446-27ef-46d8-99f4-eca202972e1e"},{"reference":"Condition/8f089d9f-2c31-47a4-813d-ae09c5ee8e96"}]},"request":{"method":"PUT","url":"MeasureReport/e18840af-5f0b-463b-a7d6-bd38c763755a"}}]}