{"resourceType":"Bundle","id":"tests-e4efaf8d-368e-4aff-9b5c-bbc074489b67-bundle","type":"transaction","entry":[{"fullUrl":"Organization/62eb10ca-b388-4f09-896d-dbe173afdc8e","resource":{"resourceType":"Organization","id":"62eb10ca-b388-4f09-896d-dbe173afdc8e","meta":{"profile":["http://hl7.org/fhir/us/qicore/StructureDefinition/qicore-organization"]},"identifier":[{"use":"temp","system":"http://terminology.hl7.org/NamingSystem/USEIN","value":"48915164351354"}],"active":true,"type":[{"coding":[{"system":"http://terminology.hl7.org/CodeSystem/organization-type","code":"team","display":"Organizational team"}]}],"name":"Good Healthcare, LLC","telecom":[{"system":"phone","value":"(+1) 901-683-7777"},{"system":"fax","value":"(+1) 901-683-6622"},{"system":"email","value":"BetterYourHealth@GoodHealthcare.com"}],"address":[{"line":["3651 Wentrow Blvd, Suite 227"],"city":"Germantown","state":"TN","postalCode":"38138","country":"USA"}]},"request":{"method":"PUT","url":"Organization/62eb10ca-b388-4f09-896d-dbe173afdc8e"}},{"fullUrl":"MeasureReport/bce23869-2641-40f1-93e5-ab9dab9cae09","resource":{"resourceType":"MeasureReport","id":"bce23869-2641-40f1-93e5-ab9dab9cae09","meta":{"profile":["http://hl7.org/fhir/us/cqfmeasures/StructureDefinition/test-case-cqfm"]},"contained":[{"resourceType":"Parameters","id":"d102af0d-d3b2-47de-9b91-4afc82cf54f8-parameters","parameter":[{"name":"subject","valueString":"e4efaf8d-368e-4aff-9b5c-bbc074489b67"}]}],"extension":[{"url":"http://hl7.org/fhir/StructureDefinition/cqf-inputParameters","valueReference":{"reference":"#d102af0d-d3b2-47de-9b91-4afc82cf54f8-parameters"}},{"url":"http://hl7.org/fhir/us/cqfmeasures/StructureDefinition/cqfm-testCaseDescription","valueMarkdown":"Patient with glaucoma, office visit with both exams performed"}],"modifierExtension":[{"url":"http://hl7.org/fhir/us/cqfmeasures/StructureDefinition/cqfm-isTestCase","valueBoolean":true}],"status":"complete","type":"individual","measure":"https://madie.cms.gov/Measure/CMS143FHIRPOAGOpticNerveEvaluation","period":{"start":"2026-01-01","end":"2026-12-31"},"group":[{"id":"Group_1","population":[{"id":"InitialPopulation_1","code":{"coding":[{"system":"http://terminology.hl7.org/CodeSystem/measure-population","code":"initial-population","display":"Initial Population"}]},"count":1},{"id":"Denominator_1","code":{"coding":[{"system":"http://terminology.hl7.org/CodeSystem/measure-population","code":"denominator","display":"Denominator"}]},"count":1},{"id":"Numerator_1","code":{"coding":[{"system":"http://terminology.hl7.org/CodeSystem/measure-population","code":"numerator","display":"Numerator"}]},"count":1},{"id":"DenominatorException_1","code":{"coding":[{"system":"http://terminology.hl7.org/CodeSystem/measure-population","code":"denominator-exception","display":"Denominator Exception"}]},"count":0}],"measureScore":{"value":1.0}}],"evaluatedResource":[{"reference":"Patient/e4efaf8d-368e-4aff-9b5c-bbc074489b67"},{"reference":"Condition/cfb1754d-1d4d-41c8-afce-81adb4d9306e"},{"reference":"Observation/a94a66d2-7f85-4fa7-a41b-c505c6527446"},{"reference":"Observation/2443907a-b03e-4e69-9e52-888a3e67038c"},{"reference":"Encounter/3d44efff-da53-49dd-8e52-2fd9a9e60ae4"},{"reference":"Coverage/f864599c-c7be-498b-bbd1-1256f759b7d4"},{"reference":"Organization/62eb10ca-b388-4f09-896d-dbe173afdc8e"}]},"request":{"method":"PUT","url":"MeasureReport/bce23869-2641-40f1-93e5-ab9dab9cae09"}},{"fullUrl":"Patient/e4efaf8d-368e-4aff-9b5c-bbc074489b67","resource":{"resourceType":"Patient","id":"e4efaf8d-368e-4aff-9b5c-bbc074489b67","meta":{"profile":["http://hl7.org/fhir/us/qicore/StructureDefinition/qicore-patient"]},"extension":[{"url":"http://hl7.org/fhir/us/core/StructureDefinition/us-core-race","extension":[{"url":"ombCategory","valueCoding":{"system":"urn:oid:2.16.840.1.113883.6.238","code":"2028-9","display":"Asian","userSelected":true}},{"url":"text","valueString":"Asian"}]},{"url":"http://hl7.org/fhir/us/core/StructureDefinition/us-core-ethnicity","extension":[{"url":"ombCategory","valueCoding":{"system":"urn:oid:2.16.840.1.113883.6.238","code":"2186-5","display":"Not Hispanic or Latino","userSelected":true}},{"url":"text","valueString":"Not Hispanic or Latino"}]}],"identifier":[{"type":{"coding":[{"system":"http://terminology.hl7.org/CodeSystem/v2-0203","code":"MR"}]},"system":"https://bonnie-fhir.healthit.gov/","value":"6109658e98086b538055b9e2"}],"active":true,"name":[{"use":"usual","family":"NUMERPass","given":["DiscExamswithResultsOV"]}],"gender":"male","birthDate":"1964-08-16"},"request":{"method":"PUT","url":"Patient/e4efaf8d-368e-4aff-9b5c-bbc074489b67"}},{"fullUrl":"Encounter/3d44efff-da53-49dd-8e52-2fd9a9e60ae4","resource":{"resourceType":"Encounter","id":"3d44efff-da53-49dd-8e52-2fd9a9e60ae4","meta":{"profile":["http://hl7.org/fhir/us/qicore/StructureDefinition/qicore-encounter"]},"status":"finished","class":{"system":"http://terminology.hl7.org/CodeSystem/v3-ActCode","code":"AMB","display":"ambulatory","userSelected":true},"type":[{"coding":[{"system":"http://www.ama-assn.org/go/cpt","version":"2023","code":"99213"}]}],"subject":{"reference":"Patient/e4efaf8d-368e-4aff-9b5c-bbc074489b67"},"period":{"start":"2026-03-09T12:40:00.000+00:00","end":"2026-03-09T13:40:00.000+00:00"},"length":{"value":0.0,"unit":"days"}},"request":{"method":"PUT","url":"Encounter/3d44efff-da53-49dd-8e52-2fd9a9e60ae4"}},{"fullUrl":"Condition/cfb1754d-1d4d-41c8-afce-81adb4d9306e","resource":{"resourceType":"Condition","id":"cfb1754d-1d4d-41c8-afce-81adb4d9306e","meta":{"profile":["http://hl7.org/fhir/us/qicore/StructureDefinition/qicore-condition-problems-health-concerns"]},"clinicalStatus":{"coding":[{"system":"http://terminology.hl7.org/CodeSystem/condition-clinical","code":"active","display":"active","userSelected":true}]},"category":[{"coding":[{"system":"http://terminology.hl7.org/CodeSystem/condition-category","code":"problem-list-item","display":"problem-list-item","userSelected":true}]}],"code":{"coding":[{"system":"http://hl7.org/fhir/sid/icd-10-cm","version":"2023","code":"H40.10X0"}]},"subject":{"reference":"Patient/e4efaf8d-368e-4aff-9b5c-bbc074489b67"},"onsetDateTime":"2014-09-27T12:45:00+00:00"},"request":{"method":"PUT","url":"Condition/cfb1754d-1d4d-41c8-afce-81adb4d9306e"}},{"fullUrl":"Coverage/f864599c-c7be-498b-bbd1-1256f759b7d4","resource":{"resourceType":"Coverage","id":"f864599c-c7be-498b-bbd1-1256f759b7d4","meta":{"profile":["http://hl7.org/fhir/us/qicore/StructureDefinition/qicore-coverage"]},"identifier":[{"system":"http://benefitsinc.com/certificate","value":"12345"}],"status":"active","type":{"coding":[{"system":"https://nahdo.org/sopt","version":"9.2","code":"59","display":"Other Private Insurance"}]},"beneficiary":{"reference":"Patient/e4efaf8d-368e-4aff-9b5c-bbc074489b67"},"dependent":"0","relationship":{"coding":[{"system":"http://terminology.hl7.org/CodeSystem/subscriber-relationship","code":"self"}]},"period":{"start":"2017-05-23","end":"2027-05-23"},"payor":[{"reference":"Organization/62eb10ca-b388-4f09-896d-dbe173afdc8e"}],"order":9},"request":{"method":"PUT","url":"Coverage/f864599c-c7be-498b-bbd1-1256f759b7d4"}},{"fullUrl":"Bundle/6109658e98086b538055b9e2","resource":{"resourceType":"Bundle","id":"6109658e98086b538055b9e2","type":"transaction","entry":[{"fullUrl":"https://madie.cms.gov/Patient/e4efaf8d-368e-4aff-9b5c-bbc074489b67","resource":{"resourceType":"Patient","id":"e4efaf8d-368e-4aff-9b5c-bbc074489b67","meta":{"profile":["http://hl7.org/fhir/us/qicore/StructureDefinition/qicore-patient"]},"extension":[{"url":"http://hl7.org/fhir/us/core/StructureDefinition/us-core-race","extension":[{"url":"ombCategory","valueCoding":{"system":"urn:oid:2.16.840.1.113883.6.238","code":"2028-9","display":"Asian","userSelected":true}},{"url":"text","valueString":"Asian"}]},{"url":"http://hl7.org/fhir/us/core/StructureDefinition/us-core-ethnicity","extension":[{"url":"ombCategory","valueCoding":{"system":"urn:oid:2.16.840.1.113883.6.238","code":"2186-5","display":"Not Hispanic or Latino","userSelected":true}},{"url":"text","valueString":"Not Hispanic or Latino"}]}],"identifier":[{"type":{"coding":[{"system":"http://terminology.hl7.org/CodeSystem/v2-0203","code":"MR"}]},"system":"https://bonnie-fhir.healthit.gov/","value":"6109658e98086b538055b9e2"}],"active":true,"name":[{"use":"usual","family":"NUMERPass","given":["DiscExamswithResultsOV"]}],"gender":"male","birthDate":"1964-08-16"},"request":{"method":"PUT","url":"Patient/e4efaf8d-368e-4aff-9b5c-bbc074489b67"}},{"fullUrl":"https://madie.cms.gov/Condition/cfb1754d-1d4d-41c8-afce-81adb4d9306e","resource":{"resourceType":"Condition","id":"cfb1754d-1d4d-41c8-afce-81adb4d9306e","meta":{"profile":["http://hl7.org/fhir/us/qicore/StructureDefinition/qicore-condition-problems-health-concerns"]},"clinicalStatus":{"coding":[{"system":"http://terminology.hl7.org/CodeSystem/condition-clinical","code":"active","display":"active","userSelected":true}]},"category":[{"coding":[{"system":"http://terminology.hl7.org/CodeSystem/condition-category","code":"problem-list-item","display":"problem-list-item","userSelected":true}]}],"code":{"coding":[{"system":"http://hl7.org/fhir/sid/icd-10-cm","version":"2023","code":"H40.10X0"}]},"subject":{"reference":"Patient/e4efaf8d-368e-4aff-9b5c-bbc074489b67"},"onsetDateTime":"2014-09-27T12:45:00+00:00"},"request":{"method":"PUT","url":"Condition/cfb1754d-1d4d-41c8-afce-81adb4d9306e"}},{"fullUrl":"https://madie.cms.gov/Observation/a94a66d2-7f85-4fa7-a41b-c505c6527446","resource":{"resourceType":"Observation","id":"a94a66d2-7f85-4fa7-a41b-c505c6527446","meta":{"profile":["http://hl7.org/fhir/us/qicore/StructureDefinition/qicore-observation-clinical-result"]},"status":"final","category":[{"coding":[{"system":"http://terminology.hl7.org/CodeSystem/observation-category","code":"laboratory","display":"laboratory","userSelected":true}]}],"code":{"coding":[{"system":"http://loinc.org","code":"71484-0"}]},"subject":{"reference":"Patient/e4efaf8d-368e-4aff-9b5c-bbc074489b67"},"effectivePeriod":{"start":"2026-03-09T12:40:00.000+00:00","end":"2026-03-09T13:40:00.000+00:00"},"valueQuantity":{"value":0.7}},"request":{"method":"PUT","url":"Observation/a94a66d2-7f85-4fa7-a41b-c505c6527446"}},{"fullUrl":"https://madie.cms.gov/Observation/2443907a-b03e-4e69-9e52-888a3e67038c","resource":{"resourceType":"Observation","id":"2443907a-b03e-4e69-9e52-888a3e67038c","meta":{"profile":["http://hl7.org/fhir/us/qicore/StructureDefinition/qicore-observation-clinical-result"]},"status":"final","category":[{"coding":[{"system":"http://terminology.hl7.org/CodeSystem/observation-category","code":"laboratory","display":"laboratory","userSelected":true}]}],"code":{"coding":[{"system":"http://loinc.org","version":"2.73","code":"71486-5"}]},"subject":{"reference":"Patient/e4efaf8d-368e-4aff-9b5c-bbc074489b67"},"effectivePeriod":{"start":"2026-03-09T12:40:00.000+00:00","end":"2026-03-09T13:40:00.000+00:00"},"valueCodeableConcept":{"coding":[{"system":"http://loinc.org","code":"71486-5","display":"Optic Disc Exam for Structural Abnormalities"}]}},"request":{"method":"PUT","url":"Observation/2443907a-b03e-4e69-9e52-888a3e67038c"}},{"fullUrl":"https://madie.cms.gov/Encounter/3d44efff-da53-49dd-8e52-2fd9a9e60ae4","resource":{"resourceType":"Encounter","id":"3d44efff-da53-49dd-8e52-2fd9a9e60ae4","meta":{"profile":["http://hl7.org/fhir/us/qicore/StructureDefinition/qicore-encounter"]},"status":"finished","class":{"system":"http://terminology.hl7.org/CodeSystem/v3-ActCode","code":"AMB","display":"ambulatory","userSelected":true},"type":[{"coding":[{"system":"http://www.ama-assn.org/go/cpt","version":"2023","code":"99213"}]}],"subject":{"reference":"Patient/e4efaf8d-368e-4aff-9b5c-bbc074489b67"},"period":{"start":"2026-03-09T12:40:00.000+00:00","end":"2026-03-09T13:40:00.000+00:00"},"length":{"value":0.0,"unit":"days"}},"request":{"method":"PUT","url":"Encounter/3d44efff-da53-49dd-8e52-2fd9a9e60ae4"}},{"fullUrl":"https://madie.cms.gov/Coverage/f864599c-c7be-498b-bbd1-1256f759b7d4","resource":{"resourceType":"Coverage","id":"f864599c-c7be-498b-bbd1-1256f759b7d4","meta":{"profile":["http://hl7.org/fhir/us/qicore/StructureDefinition/qicore-coverage"]},"identifier":[{"system":"http://benefitsinc.com/certificate","value":"12345"}],"status":"active","type":{"coding":[{"system":"https://nahdo.org/sopt","version":"9.2","code":"59","display":"Other Private Insurance"}]},"beneficiary":{"reference":"Patient/e4efaf8d-368e-4aff-9b5c-bbc074489b67"},"dependent":"0","relationship":{"coding":[{"system":"http://terminology.hl7.org/CodeSystem/subscriber-relationship","code":"self"}]},"period":{"start":"2017-05-23","end":"2027-05-23"},"payor":[{"reference":"Organization/62eb10ca-b388-4f09-896d-dbe173afdc8e"}],"order":9},"request":{"method":"PUT","url":"Coverage/f864599c-c7be-498b-bbd1-1256f759b7d4"}},{"fullUrl":"https://madie.cms.gov/Organization/62eb10ca-b388-4f09-896d-dbe173afdc8e","resource":{"resourceType":"Organization","id":"62eb10ca-b388-4f09-896d-dbe173afdc8e","meta":{"profile":["http://hl7.org/fhir/us/qicore/StructureDefinition/qicore-organization"]},"identifier":[{"use":"temp","system":"http://terminology.hl7.org/NamingSystem/USEIN","value":"48915164351354"}],"active":true,"type":[{"coding":[{"system":"http://terminology.hl7.org/CodeSystem/organization-type","code":"team","display":"Organizational team"}]}],"name":"Good Healthcare, LLC","telecom":[{"system":"phone","value":"(+1) 901-683-7777"},{"system":"fax","value":"(+1) 901-683-6622"},{"system":"email","value":"BetterYourHealth@GoodHealthcare.com"}],"address":[{"line":["3651 Wentrow Blvd, Suite 227"],"city":"Germantown","state":"TN","postalCode":"38138","country":"USA"}]},"request":{"method":"PUT","url":"Organization/62eb10ca-b388-4f09-896d-dbe173afdc8e"}},{"fullUrl":"https://madie.cms.gov/MeasureReport/bce23869-2641-40f1-93e5-ab9dab9cae09","resource":{"resourceType":"MeasureReport","id":"bce23869-2641-40f1-93e5-ab9dab9cae09","meta":{"profile":["http://hl7.org/fhir/us/cqfmeasures/StructureDefinition/test-case-cqfm"]},"contained":[{"resourceType":"Parameters","id":"d102af0d-d3b2-47de-9b91-4afc82cf54f8-parameters","parameter":[{"name":"subject","valueString":"e4efaf8d-368e-4aff-9b5c-bbc074489b67"}]}],"extension":[{"url":"http://hl7.org/fhir/StructureDefinition/cqf-inputParameters","valueReference":{"reference":"#d102af0d-d3b2-47de-9b91-4afc82cf54f8-parameters"}},{"url":"http://hl7.org/fhir/us/cqfmeasures/StructureDefinition/cqfm-testCaseDescription","valueMarkdown":"Patient with glaucoma, office visit with both exams performed"}],"modifierExtension":[{"url":"http://hl7.org/fhir/us/cqfmeasures/StructureDefinition/cqfm-isTestCase","valueBoolean":true}],"status":"complete","type":"individual","measure":"https://madie.cms.gov/Measure/CMS143FHIRPOAGOpticNerveEvaluation","period":{"start":"2026-01-01","end":"2026-12-31"},"group":[{"id":"Group_1","population":[{"id":"InitialPopulation_1","code":{"coding":[{"system":"http://terminology.hl7.org/CodeSystem/measure-population","code":"initial-population","display":"Initial Population"}]},"count":1},{"id":"Denominator_1","code":{"coding":[{"system":"http://terminology.hl7.org/CodeSystem/measure-population","code":"denominator","display":"Denominator"}]},"count":1},{"id":"Numerator_1","code":{"coding":[{"system":"http://terminology.hl7.org/CodeSystem/measure-population","code":"numerator","display":"Numerator"}]},"count":1},{"id":"DenominatorException_1","code":{"coding":[{"system":"http://terminology.hl7.org/CodeSystem/measure-population","code":"denominator-exception","display":"Denominator Exception"}]},"count":0}],"measureScore":{"value":1.0}}],"evaluatedResource":[{"reference":"Patient/e4efaf8d-368e-4aff-9b5c-bbc074489b67"},{"reference":"Condition/cfb1754d-1d4d-41c8-afce-81adb4d9306e"},{"reference":"Observation/a94a66d2-7f85-4fa7-a41b-c505c6527446"},{"reference":"Observation/2443907a-b03e-4e69-9e52-888a3e67038c"},{"reference":"Encounter/3d44efff-da53-49dd-8e52-2fd9a9e60ae4"},{"reference":"Coverage/f864599c-c7be-498b-bbd1-1256f759b7d4"},{"reference":"Organization/62eb10ca-b388-4f09-896d-dbe173afdc8e"}]},"request":{"method":"PUT","url":"MeasureReport/bce23869-2641-40f1-93e5-ab9dab9cae09"}}]},"request":{"method":"PUT","url":"Bundle/6109658e98086b538055b9e2"}},{"fullUrl":"Observation/a94a66d2-7f85-4fa7-a41b-c505c6527446","resource":{"resourceType":"Observation","id":"a94a66d2-7f85-4fa7-a41b-c505c6527446","meta":{"profile":["http://hl7.org/fhir/us/qicore/StructureDefinition/qicore-observation-clinical-result"]},"status":"final","category":[{"coding":[{"system":"http://terminology.hl7.org/CodeSystem/observation-category","code":"laboratory","display":"laboratory","userSelected":true}]}],"code":{"coding":[{"system":"http://loinc.org","code":"71484-0"}]},"subject":{"reference":"Patient/e4efaf8d-368e-4aff-9b5c-bbc074489b67"},"effectivePeriod":{"start":"2026-03-09T12:40:00.000+00:00","end":"2026-03-09T13:40:00.000+00:00"},"valueQuantity":{"value":0.7}},"request":{"method":"PUT","url":"Observation/a94a66d2-7f85-4fa7-a41b-c505c6527446"}},{"fullUrl":"Observation/2443907a-b03e-4e69-9e52-888a3e67038c","resource":{"resourceType":"Observation","id":"2443907a-b03e-4e69-9e52-888a3e67038c","meta":{"profile":["http://hl7.org/fhir/us/qicore/StructureDefinition/qicore-observation-clinical-result"]},"status":"final","category":[{"coding":[{"system":"http://terminology.hl7.org/CodeSystem/observation-category","code":"laboratory","display":"laboratory","userSelected":true}]}],"code":{"coding":[{"system":"http://loinc.org","version":"2.73","code":"71486-5"}]},"subject":{"reference":"Patient/e4efaf8d-368e-4aff-9b5c-bbc074489b67"},"effectivePeriod":{"start":"2026-03-09T12:40:00.000+00:00","end":"2026-03-09T13:40:00.000+00:00"},"valueCodeableConcept":{"coding":[{"system":"http://loinc.org","code":"71486-5","display":"Optic Disc Exam for Structural Abnormalities"}]}},"request":{"method":"PUT","url":"Observation/2443907a-b03e-4e69-9e52-888a3e67038c"}}]}