{"resourceType":"Bundle","id":"tests-2e8da2d1-f38b-4c84-af43-51378f5af1c5-bundle","type":"transaction","entry":[{"fullUrl":"Observation/e8a6baed-201f-4f08-8848-4148c3036ffc","resource":{"resourceType":"Observation","id":"e8a6baed-201f-4f08-8848-4148c3036ffc","meta":{"profile":["http://hl7.org/fhir/us/qicore/StructureDefinition/qicore-observationcancelled"]},"extension":[{"url":"http://hl7.org/fhir/us/qicore/StructureDefinition/qicore-notDoneReason","valueCodeableConcept":{"coding":[{"system":"http://snomed.info/sct","version":"http://snomed.info/sct/731000124108/version/202303","code":"410536001","display":"Contraindicated (qualifier value)"}]}}],"status":"cancelled","category":[{"coding":[{"system":"http://snomed.info/sct","version":"http://snomed.info/sct/731000124108/version/202303","code":"428119001","display":"Procedure not indicated (situation)","userSelected":true}]}],"code":{"coding":[{"system":"http://loinc.org","version":"2.73","code":"71487-3"}]},"subject":{"reference":"Patient/2e8da2d1-f38b-4c84-af43-51378f5af1c5"},"effectiveDateTime":"2026-05-05T04:59:00.000+00:00","issued":"2026-05-05T04:59:00.000+00:00"},"request":{"method":"PUT","url":"Observation/e8a6baed-201f-4f08-8848-4148c3036ffc"}},{"fullUrl":"Condition/bb1f363e-0cb0-4c1f-a83f-5af97f436f42","resource":{"resourceType":"Condition","id":"bb1f363e-0cb0-4c1f-a83f-5af97f436f42","meta":{"profile":["http://hl7.org/fhir/us/qicore/StructureDefinition/qicore-condition-problems-health-concerns"]},"clinicalStatus":{"coding":[{"system":"http://terminology.hl7.org/CodeSystem/condition-clinical","code":"active","display":"active","userSelected":true}]},"category":[{"coding":[{"system":"http://terminology.hl7.org/CodeSystem/condition-category","code":"encounter-diagnosis","display":"Encounter Diagnosis","userSelected":true}]}],"code":{"coding":[{"system":"http://snomed.info/sct","version":"http://snomed.info/sct/731000124108/version/20230301","code":"50485007","display":"Low tension glaucoma (disorder)"}]},"subject":{"reference":"Patient/2e8da2d1-f38b-4c84-af43-51378f5af1c5"},"onsetDateTime":"2021-01-02T08:00:00+00:00"},"request":{"method":"PUT","url":"Condition/bb1f363e-0cb0-4c1f-a83f-5af97f436f42"}},{"fullUrl":"Patient/2e8da2d1-f38b-4c84-af43-51378f5af1c5","resource":{"resourceType":"Patient","id":"2e8da2d1-f38b-4c84-af43-51378f5af1c5","meta":{"profile":["http://hl7.org/fhir/us/qicore/StructureDefinition/qicore-patient"]},"extension":[{"url":"http://hl7.org/fhir/us/core/StructureDefinition/us-core-race","extension":[{"url":"ombCategory","valueCoding":{"system":"urn:oid:2.16.840.1.113883.6.238","code":"2054-5","display":"Black or African American","userSelected":true}},{"url":"text","valueString":"Black or African American"}]},{"url":"http://hl7.org/fhir/us/core/StructureDefinition/us-core-ethnicity","extension":[{"url":"ombCategory","valueCoding":{"system":"urn:oid:2.16.840.1.113883.6.238","code":"2186-5","display":"Not Hispanic or Latino","userSelected":true}},{"url":"text","valueString":"Not Hispanic or Latino"}]}],"identifier":[{"type":{"coding":[{"system":"http://terminology.hl7.org/CodeSystem/v2-0203","code":"MR"}]},"system":"https://GoodHealthCare.com","value":"6109658e98086b538055b9db"}],"active":true,"name":[{"use":"usual","family":"DENEXCEPFail","given":["OpticExamMRB4EncEdge"]}],"gender":"male","birthDate":"1984-08-12"},"request":{"method":"PUT","url":"Patient/2e8da2d1-f38b-4c84-af43-51378f5af1c5"}},{"fullUrl":"Bundle/6109658e98086b538055b9db","resource":{"resourceType":"Bundle","id":"6109658e98086b538055b9db","type":"transaction","entry":[{"fullUrl":"https://madie.cms.gov/Patient/2e8da2d1-f38b-4c84-af43-51378f5af1c5","resource":{"resourceType":"Patient","id":"2e8da2d1-f38b-4c84-af43-51378f5af1c5","meta":{"profile":["http://hl7.org/fhir/us/qicore/StructureDefinition/qicore-patient"]},"extension":[{"url":"http://hl7.org/fhir/us/core/StructureDefinition/us-core-race","extension":[{"url":"ombCategory","valueCoding":{"system":"urn:oid:2.16.840.1.113883.6.238","code":"2054-5","display":"Black or African American","userSelected":true}},{"url":"text","valueString":"Black or African American"}]},{"url":"http://hl7.org/fhir/us/core/StructureDefinition/us-core-ethnicity","extension":[{"url":"ombCategory","valueCoding":{"system":"urn:oid:2.16.840.1.113883.6.238","code":"2186-5","display":"Not Hispanic or Latino","userSelected":true}},{"url":"text","valueString":"Not Hispanic or Latino"}]}],"identifier":[{"type":{"coding":[{"system":"http://terminology.hl7.org/CodeSystem/v2-0203","code":"MR"}]},"system":"https://GoodHealthCare.com","value":"6109658e98086b538055b9db"}],"active":true,"name":[{"use":"usual","family":"DENEXCEPFail","given":["OpticExamMRB4EncEdge"]}],"gender":"male","birthDate":"1984-08-12"},"request":{"method":"PUT","url":"Patient/2e8da2d1-f38b-4c84-af43-51378f5af1c5"}},{"fullUrl":"https://madie.cms.gov/Condition/bb1f363e-0cb0-4c1f-a83f-5af97f436f42","resource":{"resourceType":"Condition","id":"bb1f363e-0cb0-4c1f-a83f-5af97f436f42","meta":{"profile":["http://hl7.org/fhir/us/qicore/StructureDefinition/qicore-condition-problems-health-concerns"]},"clinicalStatus":{"coding":[{"system":"http://terminology.hl7.org/CodeSystem/condition-clinical","code":"active","display":"active","userSelected":true}]},"category":[{"coding":[{"system":"http://terminology.hl7.org/CodeSystem/condition-category","code":"encounter-diagnosis","display":"Encounter Diagnosis","userSelected":true}]}],"code":{"coding":[{"system":"http://snomed.info/sct","version":"http://snomed.info/sct/731000124108/version/20230301","code":"50485007","display":"Low tension glaucoma (disorder)"}]},"subject":{"reference":"Patient/2e8da2d1-f38b-4c84-af43-51378f5af1c5"},"onsetDateTime":"2021-01-02T08:00:00+00:00"},"request":{"method":"PUT","url":"Condition/bb1f363e-0cb0-4c1f-a83f-5af97f436f42"}},{"fullUrl":"https://madie.cms.gov/Observation/c99b8b5e-064d-4559-855e-b154e61231d9","resource":{"resourceType":"Observation","id":"c99b8b5e-064d-4559-855e-b154e61231d9","meta":{"profile":["http://hl7.org/fhir/us/qicore/StructureDefinition/qicore-observation-clinical-result"]},"status":"final","category":[{"coding":[{"system":"http://terminology.hl7.org/CodeSystem/observation-category","code":"laboratory","display":"Laboratory","userSelected":true}]}],"code":{"coding":[{"system":"http://loinc.org","code":"71487-3"}]},"subject":{"reference":"Patient/2e8da2d1-f38b-4c84-af43-51378f5af1c5"},"effectivePeriod":{"start":"2026-08-27T13:00:00.000+00:00","end":"2026-08-27T13:15:00.000+00:00"},"valueString":"Documented, progressive thinning of the neuroretinal rim with an associated increase in cupping of the optic disc"},"request":{"method":"PUT","url":"Observation/c99b8b5e-064d-4559-855e-b154e61231d9"}},{"fullUrl":"https://madie.cms.gov/Observation/e8a6baed-201f-4f08-8848-4148c3036ffc","resource":{"resourceType":"Observation","id":"e8a6baed-201f-4f08-8848-4148c3036ffc","meta":{"profile":["http://hl7.org/fhir/us/qicore/StructureDefinition/qicore-observationcancelled"]},"extension":[{"url":"http://hl7.org/fhir/us/qicore/StructureDefinition/qicore-notDoneReason","valueCodeableConcept":{"coding":[{"system":"http://snomed.info/sct","version":"http://snomed.info/sct/731000124108/version/202303","code":"410536001","display":"Contraindicated (qualifier value)"}]}}],"status":"cancelled","category":[{"coding":[{"system":"http://snomed.info/sct","version":"http://snomed.info/sct/731000124108/version/202303","code":"428119001","display":"Procedure not indicated (situation)","userSelected":true}]}],"code":{"coding":[{"system":"http://loinc.org","version":"2.73","code":"71487-3"}]},"subject":{"reference":"Patient/2e8da2d1-f38b-4c84-af43-51378f5af1c5"},"effectiveDateTime":"2026-05-05T04:59:00.000+00:00","issued":"2026-05-05T04:59:00.000+00:00"},"request":{"method":"PUT","url":"Observation/e8a6baed-201f-4f08-8848-4148c3036ffc"}},{"fullUrl":"https://madie.cms.gov/Encounter/e08610c4-cc64-435c-9be3-e5407b52db2e","resource":{"resourceType":"Encounter","id":"e08610c4-cc64-435c-9be3-e5407b52db2e","meta":{"profile":["http://hl7.org/fhir/us/qicore/StructureDefinition/qicore-encounter"]},"status":"finished","class":{"system":"http://terminology.hl7.org/CodeSystem/v3-ActCode","code":"AMB","display":"ambulatory","userSelected":true},"type":[{"coding":[{"system":"http://www.ama-assn.org/go/cpt","code":"92002"}]}],"subject":{"reference":"Patient/2e8da2d1-f38b-4c84-af43-51378f5af1c5"},"period":{"start":"2026-05-05T05:00:00.000+00:00","end":"2026-05-05T05:45:00.000+00:00"},"length":{"value":0,"unit":"days"}},"request":{"method":"PUT","url":"Encounter/e08610c4-cc64-435c-9be3-e5407b52db2e"}},{"fullUrl":"https://madie.cms.gov/MeasureReport/d9e615e5-2cbc-4e88-ae73-2097a426bd93","resource":{"resourceType":"MeasureReport","id":"d9e615e5-2cbc-4e88-ae73-2097a426bd93","meta":{"profile":["http://hl7.org/fhir/us/cqfmeasures/StructureDefinition/test-case-cqfm"]},"contained":[{"resourceType":"Parameters","id":"f56f8aa3-1266-464c-beb3-d458d510c37a-parameters","parameter":[{"name":"subject","valueString":"2e8da2d1-f38b-4c84-af43-51378f5af1c5"}]}],"extension":[{"url":"http://hl7.org/fhir/StructureDefinition/cqf-inputParameters","valueReference":{"reference":"#f56f8aa3-1266-464c-beb3-d458d510c37a-parameters"}},{"url":"http://hl7.org/fhir/us/cqfmeasures/StructureDefinition/cqfm-testCaseDescription","valueMarkdown":"Medical Reason for not performing required Optic Exam is 1 minute before Encounter"}],"modifierExtension":[{"url":"http://hl7.org/fhir/us/cqfmeasures/StructureDefinition/cqfm-isTestCase","valueBoolean":true}],"status":"complete","type":"individual","measure":"https://madie.cms.gov/Measure/CMS143FHIRPOAGOpticNerveEvaluation","period":{"start":"2026-01-01","end":"2026-12-31"},"group":[{"id":"Group_1","population":[{"id":"InitialPopulation_1","code":{"coding":[{"system":"http://terminology.hl7.org/CodeSystem/measure-population","code":"initial-population","display":"Initial Population"}]},"count":1},{"id":"Denominator_1","code":{"coding":[{"system":"http://terminology.hl7.org/CodeSystem/measure-population","code":"denominator","display":"Denominator"}]},"count":1},{"id":"Numerator_1","code":{"coding":[{"system":"http://terminology.hl7.org/CodeSystem/measure-population","code":"numerator","display":"Numerator"}]},"count":0},{"id":"DenominatorException_1","code":{"coding":[{"system":"http://terminology.hl7.org/CodeSystem/measure-population","code":"denominator-exception","display":"Denominator Exception"}]},"count":1}],"measureScore":{"value":1.0}}],"evaluatedResource":[{"reference":"Patient/2e8da2d1-f38b-4c84-af43-51378f5af1c5"},{"reference":"Condition/bb1f363e-0cb0-4c1f-a83f-5af97f436f42"},{"reference":"Observation/c99b8b5e-064d-4559-855e-b154e61231d9"},{"reference":"Observation/e8a6baed-201f-4f08-8848-4148c3036ffc"},{"reference":"Encounter/e08610c4-cc64-435c-9be3-e5407b52db2e"}]},"request":{"method":"PUT","url":"MeasureReport/d9e615e5-2cbc-4e88-ae73-2097a426bd93"}}]},"request":{"method":"PUT","url":"Bundle/6109658e98086b538055b9db"}},{"fullUrl":"MeasureReport/d9e615e5-2cbc-4e88-ae73-2097a426bd93","resource":{"resourceType":"MeasureReport","id":"d9e615e5-2cbc-4e88-ae73-2097a426bd93","meta":{"profile":["http://hl7.org/fhir/us/cqfmeasures/StructureDefinition/test-case-cqfm"]},"contained":[{"resourceType":"Parameters","id":"f56f8aa3-1266-464c-beb3-d458d510c37a-parameters","parameter":[{"name":"subject","valueString":"2e8da2d1-f38b-4c84-af43-51378f5af1c5"}]}],"extension":[{"url":"http://hl7.org/fhir/StructureDefinition/cqf-inputParameters","valueReference":{"reference":"#f56f8aa3-1266-464c-beb3-d458d510c37a-parameters"}},{"url":"http://hl7.org/fhir/us/cqfmeasures/StructureDefinition/cqfm-testCaseDescription","valueMarkdown":"Medical Reason for not performing required Optic Exam is 1 minute before Encounter"}],"modifierExtension":[{"url":"http://hl7.org/fhir/us/cqfmeasures/StructureDefinition/cqfm-isTestCase","valueBoolean":true}],"status":"complete","type":"individual","measure":"https://madie.cms.gov/Measure/CMS143FHIRPOAGOpticNerveEvaluation","period":{"start":"2026-01-01","end":"2026-12-31"},"group":[{"id":"Group_1","population":[{"id":"InitialPopulation_1","code":{"coding":[{"system":"http://terminology.hl7.org/CodeSystem/measure-population","code":"initial-population","display":"Initial Population"}]},"count":1},{"id":"Denominator_1","code":{"coding":[{"system":"http://terminology.hl7.org/CodeSystem/measure-population","code":"denominator","display":"Denominator"}]},"count":1},{"id":"Numerator_1","code":{"coding":[{"system":"http://terminology.hl7.org/CodeSystem/measure-population","code":"numerator","display":"Numerator"}]},"count":0},{"id":"DenominatorException_1","code":{"coding":[{"system":"http://terminology.hl7.org/CodeSystem/measure-population","code":"denominator-exception","display":"Denominator Exception"}]},"count":1}],"measureScore":{"value":1.0}}],"evaluatedResource":[{"reference":"Patient/2e8da2d1-f38b-4c84-af43-51378f5af1c5"},{"reference":"Condition/bb1f363e-0cb0-4c1f-a83f-5af97f436f42"},{"reference":"Observation/c99b8b5e-064d-4559-855e-b154e61231d9"},{"reference":"Observation/e8a6baed-201f-4f08-8848-4148c3036ffc"},{"reference":"Encounter/e08610c4-cc64-435c-9be3-e5407b52db2e"}]},"request":{"method":"PUT","url":"MeasureReport/d9e615e5-2cbc-4e88-ae73-2097a426bd93"}},{"fullUrl":"Observation/c99b8b5e-064d-4559-855e-b154e61231d9","resource":{"resourceType":"Observation","id":"c99b8b5e-064d-4559-855e-b154e61231d9","meta":{"profile":["http://hl7.org/fhir/us/qicore/StructureDefinition/qicore-observation-clinical-result"]},"status":"final","category":[{"coding":[{"system":"http://terminology.hl7.org/CodeSystem/observation-category","code":"laboratory","display":"Laboratory","userSelected":true}]}],"code":{"coding":[{"system":"http://loinc.org","code":"71487-3"}]},"subject":{"reference":"Patient/2e8da2d1-f38b-4c84-af43-51378f5af1c5"},"effectivePeriod":{"start":"2026-08-27T13:00:00.000+00:00","end":"2026-08-27T13:15:00.000+00:00"},"valueString":"Documented, progressive thinning of the neuroretinal rim with an associated increase in cupping of the optic disc"},"request":{"method":"PUT","url":"Observation/c99b8b5e-064d-4559-855e-b154e61231d9"}},{"fullUrl":"Encounter/e08610c4-cc64-435c-9be3-e5407b52db2e","resource":{"resourceType":"Encounter","id":"e08610c4-cc64-435c-9be3-e5407b52db2e","meta":{"profile":["http://hl7.org/fhir/us/qicore/StructureDefinition/qicore-encounter"]},"status":"finished","class":{"system":"http://terminology.hl7.org/CodeSystem/v3-ActCode","code":"AMB","display":"ambulatory","userSelected":true},"type":[{"coding":[{"system":"http://www.ama-assn.org/go/cpt","code":"92002"}]}],"subject":{"reference":"Patient/2e8da2d1-f38b-4c84-af43-51378f5af1c5"},"period":{"start":"2026-05-05T05:00:00.000+00:00","end":"2026-05-05T05:45:00.000+00:00"},"length":{"value":0,"unit":"days"}},"request":{"method":"PUT","url":"Encounter/e08610c4-cc64-435c-9be3-e5407b52db2e"}}]}