{"resourceType":"Bundle","id":"tests-13d6df48-7288-49e6-9ad4-aa230744746b-bundle","type":"transaction","entry":[{"fullUrl":"Bundle/6109658e98086b538055b9e4","resource":{"resourceType":"Bundle","id":"6109658e98086b538055b9e4","type":"transaction","entry":[{"fullUrl":"https://madie.cms.gov/Patient/13d6df48-7288-49e6-9ad4-aa230744746b","resource":{"resourceType":"Patient","id":"13d6df48-7288-49e6-9ad4-aa230744746b","meta":{"profile":["http://hl7.org/fhir/us/qicore/StructureDefinition/qicore-patient"]},"extension":[{"url":"http://hl7.org/fhir/us/core/StructureDefinition/us-core-race","extension":[{"url":"ombCategory","valueCoding":{"system":"urn:oid:2.16.840.1.113883.6.238","code":"2028-9","display":"Asian","userSelected":true}},{"url":"text","valueString":"Asian"}]},{"url":"http://hl7.org/fhir/us/core/StructureDefinition/us-core-ethnicity","extension":[{"url":"ombCategory","valueCoding":{"system":"urn:oid:2.16.840.1.113883.6.238","code":"2186-5","display":"Not Hispanic or Latino","userSelected":true}},{"url":"text","valueString":"Not Hispanic or Latino"}]},{"url":"http://hl7.org/fhir/us/core/StructureDefinition/us-core-sex","valueCode":"248153007"}],"identifier":[{"type":{"coding":[{"system":"http://terminology.hl7.org/CodeSystem/v2-0203","code":"MR"}]},"system":"https://bonnie-fhir.healthit.gov/","value":"6109658e98086b538055b9e4"}],"active":true,"name":[{"use":"usual","family":"IPPFail","given":["QualifyingEncHasNoStartDate"]}],"gender":"male","birthDate":"2006-02-01"},"request":{"method":"PUT","url":"Patient/13d6df48-7288-49e6-9ad4-aa230744746b"}},{"fullUrl":"https://madie.cms.gov/Encounter/c542fdc6-2e8a-4e79-b591-1d8f60b3017e","resource":{"resourceType":"Encounter","id":"c542fdc6-2e8a-4e79-b591-1d8f60b3017e","meta":{"profile":["http://hl7.org/fhir/us/qicore/StructureDefinition/qicore-encounter"]},"status":"finished","class":{"system":"http://terminology.hl7.org/CodeSystem/v3-ActCode","code":"AMB","display":"ambulatory","userSelected":true},"type":[{"coding":[{"system":"http://snomed.info/sct","version":"http://snomed.info/sct/731000124108/version/202303","code":"37894004"},{"system":"http://www.ama-assn.org/go/cpt","version":"2023","code":"99213","userSelected":true}]}],"subject":{"reference":"Patient/13d6df48-7288-49e6-9ad4-aa230744746b"},"period":{"end":"2026-01-02T03:45:00.000+00:00"}},"request":{"method":"PUT","url":"Encounter/c542fdc6-2e8a-4e79-b591-1d8f60b3017e"}},{"fullUrl":"https://madie.cms.gov/Condition/a8f73afa-414a-42e8-b9b2-5e1dcd554060","resource":{"resourceType":"Condition","id":"a8f73afa-414a-42e8-b9b2-5e1dcd554060","meta":{"profile":["http://hl7.org/fhir/us/qicore/StructureDefinition/qicore-condition-problems-health-concerns"]},"clinicalStatus":{"coding":[{"system":"http://terminology.hl7.org/CodeSystem/condition-clinical","code":"active","display":"active","userSelected":true}]},"category":[{"coding":[{"system":"http://terminology.hl7.org/CodeSystem/condition-category","code":"problem-list-item","display":"problem-list-item","userSelected":true}]}],"code":{"coding":[{"system":"http://hl7.org/fhir/sid/icd-10-cm","version":"2023","code":"H40.10X0"}]},"subject":{"reference":"Patient/13d6df48-7288-49e6-9ad4-aa230744746b"},"onsetDateTime":"2025-09-14T08:00:00.000+00:00"},"request":{"method":"PUT","url":"Condition/a8f73afa-414a-42e8-b9b2-5e1dcd554060"}},{"fullUrl":"https://madie.cms.gov/MeasureReport/0ef58365-02cf-4057-9b46-78df6e774e2a","resource":{"resourceType":"MeasureReport","id":"0ef58365-02cf-4057-9b46-78df6e774e2a","meta":{"profile":["http://hl7.org/fhir/us/cqfmeasures/StructureDefinition/test-case-cqfm"]},"contained":[{"resourceType":"Parameters","id":"70da0ec4-0dcf-4bd6-bef2-504030cccef9-parameters","parameter":[{"name":"subject","valueString":"13d6df48-7288-49e6-9ad4-aa230744746b"}]}],"extension":[{"url":"http://hl7.org/fhir/StructureDefinition/cqf-inputParameters","valueReference":{"reference":"#70da0ec4-0dcf-4bd6-bef2-504030cccef9-parameters"}},{"url":"http://hl7.org/fhir/us/cqfmeasures/StructureDefinition/cqfm-testCaseDescription","valueMarkdown":"Qualifying Encounter without a start dateTime in Encounter period should fail Initial Population."}],"modifierExtension":[{"url":"http://hl7.org/fhir/us/cqfmeasures/StructureDefinition/cqfm-isTestCase","valueBoolean":true}],"status":"complete","type":"individual","measure":"https://madie.cms.gov/Measure/CMS143FHIRPOAGOpticNerveEvaluation","period":{"start":"2026-01-01","end":"2026-12-31"},"group":[{"id":"Group_1","population":[{"id":"InitialPopulation_1","code":{"coding":[{"system":"http://terminology.hl7.org/CodeSystem/measure-population","code":"initial-population","display":"Initial Population"}]},"count":0},{"id":"Denominator_1","code":{"coding":[{"system":"http://terminology.hl7.org/CodeSystem/measure-population","code":"denominator","display":"Denominator"}]},"count":0},{"id":"Numerator_1","code":{"coding":[{"system":"http://terminology.hl7.org/CodeSystem/measure-population","code":"numerator","display":"Numerator"}]},"count":0},{"id":"DenominatorException_1","code":{"coding":[{"system":"http://terminology.hl7.org/CodeSystem/measure-population","code":"denominator-exception","display":"Denominator Exception"}]},"count":0}],"measureScore":{"value":1.0}}],"evaluatedResource":[{"reference":"Patient/13d6df48-7288-49e6-9ad4-aa230744746b"},{"reference":"Encounter/c542fdc6-2e8a-4e79-b591-1d8f60b3017e"},{"reference":"Condition/a8f73afa-414a-42e8-b9b2-5e1dcd554060"}]},"request":{"method":"PUT","url":"MeasureReport/0ef58365-02cf-4057-9b46-78df6e774e2a"}}]},"request":{"method":"PUT","url":"Bundle/6109658e98086b538055b9e4"}},{"fullUrl":"Patient/13d6df48-7288-49e6-9ad4-aa230744746b","resource":{"resourceType":"Patient","id":"13d6df48-7288-49e6-9ad4-aa230744746b","meta":{"profile":["http://hl7.org/fhir/us/qicore/StructureDefinition/qicore-patient"]},"extension":[{"url":"http://hl7.org/fhir/us/core/StructureDefinition/us-core-race","extension":[{"url":"ombCategory","valueCoding":{"system":"urn:oid:2.16.840.1.113883.6.238","code":"2028-9","display":"Asian","userSelected":true}},{"url":"text","valueString":"Asian"}]},{"url":"http://hl7.org/fhir/us/core/StructureDefinition/us-core-ethnicity","extension":[{"url":"ombCategory","valueCoding":{"system":"urn:oid:2.16.840.1.113883.6.238","code":"2186-5","display":"Not Hispanic or Latino","userSelected":true}},{"url":"text","valueString":"Not Hispanic or Latino"}]},{"url":"http://hl7.org/fhir/us/core/StructureDefinition/us-core-sex","valueCode":"248153007"}],"identifier":[{"type":{"coding":[{"system":"http://terminology.hl7.org/CodeSystem/v2-0203","code":"MR"}]},"system":"https://bonnie-fhir.healthit.gov/","value":"6109658e98086b538055b9e4"}],"active":true,"name":[{"use":"usual","family":"IPPFail","given":["QualifyingEncHasNoStartDate"]}],"gender":"male","birthDate":"2006-02-01"},"request":{"method":"PUT","url":"Patient/13d6df48-7288-49e6-9ad4-aa230744746b"}},{"fullUrl":"MeasureReport/0ef58365-02cf-4057-9b46-78df6e774e2a","resource":{"resourceType":"MeasureReport","id":"0ef58365-02cf-4057-9b46-78df6e774e2a","meta":{"profile":["http://hl7.org/fhir/us/cqfmeasures/StructureDefinition/test-case-cqfm"]},"contained":[{"resourceType":"Parameters","id":"70da0ec4-0dcf-4bd6-bef2-504030cccef9-parameters","parameter":[{"name":"subject","valueString":"13d6df48-7288-49e6-9ad4-aa230744746b"}]}],"extension":[{"url":"http://hl7.org/fhir/StructureDefinition/cqf-inputParameters","valueReference":{"reference":"#70da0ec4-0dcf-4bd6-bef2-504030cccef9-parameters"}},{"url":"http://hl7.org/fhir/us/cqfmeasures/StructureDefinition/cqfm-testCaseDescription","valueMarkdown":"Qualifying Encounter without a start dateTime in Encounter period should fail Initial Population."}],"modifierExtension":[{"url":"http://hl7.org/fhir/us/cqfmeasures/StructureDefinition/cqfm-isTestCase","valueBoolean":true}],"status":"complete","type":"individual","measure":"https://madie.cms.gov/Measure/CMS143FHIRPOAGOpticNerveEvaluation","period":{"start":"2026-01-01","end":"2026-12-31"},"group":[{"id":"Group_1","population":[{"id":"InitialPopulation_1","code":{"coding":[{"system":"http://terminology.hl7.org/CodeSystem/measure-population","code":"initial-population","display":"Initial Population"}]},"count":0},{"id":"Denominator_1","code":{"coding":[{"system":"http://terminology.hl7.org/CodeSystem/measure-population","code":"denominator","display":"Denominator"}]},"count":0},{"id":"Numerator_1","code":{"coding":[{"system":"http://terminology.hl7.org/CodeSystem/measure-population","code":"numerator","display":"Numerator"}]},"count":0},{"id":"DenominatorException_1","code":{"coding":[{"system":"http://terminology.hl7.org/CodeSystem/measure-population","code":"denominator-exception","display":"Denominator Exception"}]},"count":0}],"measureScore":{"value":1.0}}],"evaluatedResource":[{"reference":"Patient/13d6df48-7288-49e6-9ad4-aa230744746b"},{"reference":"Encounter/c542fdc6-2e8a-4e79-b591-1d8f60b3017e"},{"reference":"Condition/a8f73afa-414a-42e8-b9b2-5e1dcd554060"}]},"request":{"method":"PUT","url":"MeasureReport/0ef58365-02cf-4057-9b46-78df6e774e2a"}},{"fullUrl":"Condition/a8f73afa-414a-42e8-b9b2-5e1dcd554060","resource":{"resourceType":"Condition","id":"a8f73afa-414a-42e8-b9b2-5e1dcd554060","meta":{"profile":["http://hl7.org/fhir/us/qicore/StructureDefinition/qicore-condition-problems-health-concerns"]},"clinicalStatus":{"coding":[{"system":"http://terminology.hl7.org/CodeSystem/condition-clinical","code":"active","display":"active","userSelected":true}]},"category":[{"coding":[{"system":"http://terminology.hl7.org/CodeSystem/condition-category","code":"problem-list-item","display":"problem-list-item","userSelected":true}]}],"code":{"coding":[{"system":"http://hl7.org/fhir/sid/icd-10-cm","version":"2023","code":"H40.10X0"}]},"subject":{"reference":"Patient/13d6df48-7288-49e6-9ad4-aa230744746b"},"onsetDateTime":"2025-09-14T08:00:00.000+00:00"},"request":{"method":"PUT","url":"Condition/a8f73afa-414a-42e8-b9b2-5e1dcd554060"}},{"fullUrl":"Encounter/c542fdc6-2e8a-4e79-b591-1d8f60b3017e","resource":{"resourceType":"Encounter","id":"c542fdc6-2e8a-4e79-b591-1d8f60b3017e","meta":{"profile":["http://hl7.org/fhir/us/qicore/StructureDefinition/qicore-encounter"]},"status":"finished","class":{"system":"http://terminology.hl7.org/CodeSystem/v3-ActCode","code":"AMB","display":"ambulatory","userSelected":true},"type":[{"coding":[{"system":"http://snomed.info/sct","version":"http://snomed.info/sct/731000124108/version/202303","code":"37894004"},{"system":"http://www.ama-assn.org/go/cpt","version":"2023","code":"99213","userSelected":true}]}],"subject":{"reference":"Patient/13d6df48-7288-49e6-9ad4-aa230744746b"},"period":{"end":"2026-01-02T03:45:00.000+00:00"}},"request":{"method":"PUT","url":"Encounter/c542fdc6-2e8a-4e79-b591-1d8f60b3017e"}}]}