{"resourceType":"Bundle","id":"tests-9d5d6b94-a5a2-4544-be69-831ea5359943-bundle","type":"transaction","entry":[{"fullUrl":"Encounter/4a2d0721-785c-422f-b2c7-3f1059290058","resource":{"resourceType":"Encounter","id":"4a2d0721-785c-422f-b2c7-3f1059290058","meta":{"profile":["http://hl7.org/fhir/us/qicore/StructureDefinition/qicore-encounter"]},"status":"finished","class":{"system":"http://terminology.hl7.org/CodeSystem/v3-ActCode","code":"AMB","display":"ambulatory","userSelected":true},"type":[{"coding":[{"system":"http://snomed.info/sct","version":"http://snomed.info/sct/731000124108/version/202303","code":"37894004"},{"system":"http://www.ama-assn.org/go/cpt","version":"2023","code":"99213","userSelected":true}]}],"subject":{"reference":"Patient/9d5d6b94-a5a2-4544-be69-831ea5359943"},"period":{"start":"2026-12-31T23:45:00.000+00:00"}},"request":{"method":"PUT","url":"Encounter/4a2d0721-785c-422f-b2c7-3f1059290058"}},{"fullUrl":"Bundle/6109658e98086b538055b9e4","resource":{"resourceType":"Bundle","id":"6109658e98086b538055b9e4","type":"transaction","entry":[{"fullUrl":"https://madie.cms.gov/Patient/9d5d6b94-a5a2-4544-be69-831ea5359943","resource":{"resourceType":"Patient","id":"9d5d6b94-a5a2-4544-be69-831ea5359943","meta":{"profile":["http://hl7.org/fhir/us/qicore/StructureDefinition/qicore-patient"]},"extension":[{"url":"http://hl7.org/fhir/us/core/StructureDefinition/us-core-race","extension":[{"url":"ombCategory","valueCoding":{"system":"urn:oid:2.16.840.1.113883.6.238","code":"2106-3","display":"White","userSelected":true}},{"url":"text","valueString":"White"}]},{"url":"http://hl7.org/fhir/us/core/StructureDefinition/us-core-ethnicity","extension":[{"url":"ombCategory","valueCoding":{"system":"urn:oid:2.16.840.1.113883.6.238","code":"2186-5","display":"Not Hispanic or Latino","userSelected":true}},{"url":"text","valueString":"Not Hispanic or Latino"}]}],"identifier":[{"type":{"coding":[{"system":"http://terminology.hl7.org/CodeSystem/v2-0203","code":"MR"}]},"system":"https://bonnie-fhir.healthit.gov/","value":"6109658e98086b538055b9e4"}],"active":true,"name":[{"use":"usual","family":"IPPFail","given":["QualifyingEncHasNoEndDate"]}],"gender":"male","birthDate":"2006-02-01"},"request":{"method":"PUT","url":"Patient/9d5d6b94-a5a2-4544-be69-831ea5359943"}},{"fullUrl":"https://madie.cms.gov/Encounter/4a2d0721-785c-422f-b2c7-3f1059290058","resource":{"resourceType":"Encounter","id":"4a2d0721-785c-422f-b2c7-3f1059290058","meta":{"profile":["http://hl7.org/fhir/us/qicore/StructureDefinition/qicore-encounter"]},"status":"finished","class":{"system":"http://terminology.hl7.org/CodeSystem/v3-ActCode","code":"AMB","display":"ambulatory","userSelected":true},"type":[{"coding":[{"system":"http://snomed.info/sct","version":"http://snomed.info/sct/731000124108/version/202303","code":"37894004"},{"system":"http://www.ama-assn.org/go/cpt","version":"2023","code":"99213","userSelected":true}]}],"subject":{"reference":"Patient/9d5d6b94-a5a2-4544-be69-831ea5359943"},"period":{"start":"2026-12-31T23:45:00.000+00:00"}},"request":{"method":"PUT","url":"Encounter/4a2d0721-785c-422f-b2c7-3f1059290058"}},{"fullUrl":"https://madie.cms.gov/Condition/289a37c0-0999-490e-9ce6-a27d9bd42176","resource":{"resourceType":"Condition","id":"289a37c0-0999-490e-9ce6-a27d9bd42176","meta":{"profile":["http://hl7.org/fhir/us/qicore/StructureDefinition/qicore-condition-problems-health-concerns"]},"clinicalStatus":{"coding":[{"system":"http://terminology.hl7.org/CodeSystem/condition-clinical","code":"active","display":"active","userSelected":true}]},"category":[{"coding":[{"system":"http://terminology.hl7.org/CodeSystem/condition-category","code":"problem-list-item","display":"problem-list-item","userSelected":true}]}],"code":{"coding":[{"system":"http://hl7.org/fhir/sid/icd-10-cm","version":"2023","code":"H40.10X0"}]},"subject":{"reference":"Patient/9d5d6b94-a5a2-4544-be69-831ea5359943"},"onsetDateTime":"2025-09-14T08:00:00.000+00:00"},"request":{"method":"PUT","url":"Condition/289a37c0-0999-490e-9ce6-a27d9bd42176"}},{"fullUrl":"https://madie.cms.gov/MeasureReport/8bc0398e-e9dd-4cbd-bb43-2edb697a7fdb","resource":{"resourceType":"MeasureReport","id":"8bc0398e-e9dd-4cbd-bb43-2edb697a7fdb","meta":{"profile":["http://hl7.org/fhir/us/cqfmeasures/StructureDefinition/test-case-cqfm"]},"contained":[{"resourceType":"Parameters","id":"36048691-7894-45b5-a788-8c4a5e2f5f58-parameters","parameter":[{"name":"subject","valueString":"9d5d6b94-a5a2-4544-be69-831ea5359943"}]}],"extension":[{"url":"http://hl7.org/fhir/StructureDefinition/cqf-inputParameters","valueReference":{"reference":"#36048691-7894-45b5-a788-8c4a5e2f5f58-parameters"}},{"url":"http://hl7.org/fhir/us/cqfmeasures/StructureDefinition/cqfm-testCaseDescription","valueMarkdown":"Patient has qualifying encounter with null ending date in period meaning the encounter is still open and should fail IPP criteria"}],"modifierExtension":[{"url":"http://hl7.org/fhir/us/cqfmeasures/StructureDefinition/cqfm-isTestCase","valueBoolean":true}],"status":"complete","type":"individual","measure":"https://madie.cms.gov/Measure/CMS143FHIRPOAGOpticNerveEvaluation","period":{"start":"2026-01-01","end":"2026-12-31"},"group":[{"id":"Group_1","population":[{"id":"InitialPopulation_1","code":{"coding":[{"system":"http://terminology.hl7.org/CodeSystem/measure-population","code":"initial-population","display":"Initial Population"}]},"count":0},{"id":"Denominator_1","code":{"coding":[{"system":"http://terminology.hl7.org/CodeSystem/measure-population","code":"denominator","display":"Denominator"}]},"count":0},{"id":"Numerator_1","code":{"coding":[{"system":"http://terminology.hl7.org/CodeSystem/measure-population","code":"numerator","display":"Numerator"}]},"count":0},{"id":"DenominatorException_1","code":{"coding":[{"system":"http://terminology.hl7.org/CodeSystem/measure-population","code":"denominator-exception","display":"Denominator Exception"}]},"count":0}],"measureScore":{"value":1.0}}],"evaluatedResource":[{"reference":"Patient/9d5d6b94-a5a2-4544-be69-831ea5359943"},{"reference":"Encounter/4a2d0721-785c-422f-b2c7-3f1059290058"},{"reference":"Condition/289a37c0-0999-490e-9ce6-a27d9bd42176"}]},"request":{"method":"PUT","url":"MeasureReport/8bc0398e-e9dd-4cbd-bb43-2edb697a7fdb"}}]},"request":{"method":"PUT","url":"Bundle/6109658e98086b538055b9e4"}},{"fullUrl":"Condition/289a37c0-0999-490e-9ce6-a27d9bd42176","resource":{"resourceType":"Condition","id":"289a37c0-0999-490e-9ce6-a27d9bd42176","meta":{"profile":["http://hl7.org/fhir/us/qicore/StructureDefinition/qicore-condition-problems-health-concerns"]},"clinicalStatus":{"coding":[{"system":"http://terminology.hl7.org/CodeSystem/condition-clinical","code":"active","display":"active","userSelected":true}]},"category":[{"coding":[{"system":"http://terminology.hl7.org/CodeSystem/condition-category","code":"problem-list-item","display":"problem-list-item","userSelected":true}]}],"code":{"coding":[{"system":"http://hl7.org/fhir/sid/icd-10-cm","version":"2023","code":"H40.10X0"}]},"subject":{"reference":"Patient/9d5d6b94-a5a2-4544-be69-831ea5359943"},"onsetDateTime":"2025-09-14T08:00:00.000+00:00"},"request":{"method":"PUT","url":"Condition/289a37c0-0999-490e-9ce6-a27d9bd42176"}},{"fullUrl":"Patient/9d5d6b94-a5a2-4544-be69-831ea5359943","resource":{"resourceType":"Patient","id":"9d5d6b94-a5a2-4544-be69-831ea5359943","meta":{"profile":["http://hl7.org/fhir/us/qicore/StructureDefinition/qicore-patient"]},"extension":[{"url":"http://hl7.org/fhir/us/core/StructureDefinition/us-core-race","extension":[{"url":"ombCategory","valueCoding":{"system":"urn:oid:2.16.840.1.113883.6.238","code":"2106-3","display":"White","userSelected":true}},{"url":"text","valueString":"White"}]},{"url":"http://hl7.org/fhir/us/core/StructureDefinition/us-core-ethnicity","extension":[{"url":"ombCategory","valueCoding":{"system":"urn:oid:2.16.840.1.113883.6.238","code":"2186-5","display":"Not Hispanic or Latino","userSelected":true}},{"url":"text","valueString":"Not Hispanic or Latino"}]}],"identifier":[{"type":{"coding":[{"system":"http://terminology.hl7.org/CodeSystem/v2-0203","code":"MR"}]},"system":"https://bonnie-fhir.healthit.gov/","value":"6109658e98086b538055b9e4"}],"active":true,"name":[{"use":"usual","family":"IPPFail","given":["QualifyingEncHasNoEndDate"]}],"gender":"male","birthDate":"2006-02-01"},"request":{"method":"PUT","url":"Patient/9d5d6b94-a5a2-4544-be69-831ea5359943"}},{"fullUrl":"MeasureReport/8bc0398e-e9dd-4cbd-bb43-2edb697a7fdb","resource":{"resourceType":"MeasureReport","id":"8bc0398e-e9dd-4cbd-bb43-2edb697a7fdb","meta":{"profile":["http://hl7.org/fhir/us/cqfmeasures/StructureDefinition/test-case-cqfm"]},"contained":[{"resourceType":"Parameters","id":"36048691-7894-45b5-a788-8c4a5e2f5f58-parameters","parameter":[{"name":"subject","valueString":"9d5d6b94-a5a2-4544-be69-831ea5359943"}]}],"extension":[{"url":"http://hl7.org/fhir/StructureDefinition/cqf-inputParameters","valueReference":{"reference":"#36048691-7894-45b5-a788-8c4a5e2f5f58-parameters"}},{"url":"http://hl7.org/fhir/us/cqfmeasures/StructureDefinition/cqfm-testCaseDescription","valueMarkdown":"Patient has qualifying encounter with null ending date in period meaning the encounter is still open and should fail IPP criteria"}],"modifierExtension":[{"url":"http://hl7.org/fhir/us/cqfmeasures/StructureDefinition/cqfm-isTestCase","valueBoolean":true}],"status":"complete","type":"individual","measure":"https://madie.cms.gov/Measure/CMS143FHIRPOAGOpticNerveEvaluation","period":{"start":"2026-01-01","end":"2026-12-31"},"group":[{"id":"Group_1","population":[{"id":"InitialPopulation_1","code":{"coding":[{"system":"http://terminology.hl7.org/CodeSystem/measure-population","code":"initial-population","display":"Initial Population"}]},"count":0},{"id":"Denominator_1","code":{"coding":[{"system":"http://terminology.hl7.org/CodeSystem/measure-population","code":"denominator","display":"Denominator"}]},"count":0},{"id":"Numerator_1","code":{"coding":[{"system":"http://terminology.hl7.org/CodeSystem/measure-population","code":"numerator","display":"Numerator"}]},"count":0},{"id":"DenominatorException_1","code":{"coding":[{"system":"http://terminology.hl7.org/CodeSystem/measure-population","code":"denominator-exception","display":"Denominator Exception"}]},"count":0}],"measureScore":{"value":1.0}}],"evaluatedResource":[{"reference":"Patient/9d5d6b94-a5a2-4544-be69-831ea5359943"},{"reference":"Encounter/4a2d0721-785c-422f-b2c7-3f1059290058"},{"reference":"Condition/289a37c0-0999-490e-9ce6-a27d9bd42176"}]},"request":{"method":"PUT","url":"MeasureReport/8bc0398e-e9dd-4cbd-bb43-2edb697a7fdb"}}]}