{"resourceType":"Bundle","id":"tests-901324d3-abcb-44c1-97af-7fb226ea1985-bundle","type":"transaction","entry":[{"resource":{"resourceType":"Patient","id":"901324d3-abcb-44c1-97af-7fb226ea1985","meta":{"profile":["http://hl7.org/fhir/us/qicore/StructureDefinition/qicore-patient"]},"extension":[{"url":"http://hl7.org/fhir/us/core/StructureDefinition/us-core-race","extension":[{"url":"ombCategory","valueCoding":{"system":"urn:oid:2.16.840.1.113883.6.238","code":"2028-9","display":"Asian","userSelected":true}},{"url":"text","valueString":"Asian"}]},{"url":"http://hl7.org/fhir/us/core/StructureDefinition/us-core-ethnicity","extension":[{"url":"ombCategory","valueCoding":{"system":"urn:oid:2.16.840.1.113883.6.238","code":"2186-5","display":"Not Hispanic or Latino","userSelected":true}},{"url":"text","valueString":"Not Hispanic or Latino"}]}],"identifier":[{"type":{"coding":[{"system":"http://terminology.hl7.org/CodeSystem/v2-0203","code":"MR"}]},"system":"https://bonnie-fhir.healthit.gov/","value":"6109658e98086b538055b9e4"}],"active":true,"name":[{"use":"usual","family":"IPPPass","given":["GlaucomaDxOverlapsEncEdge"]}],"gender":"female","birthDate":"1985-03-31"},"request":{"method":"PUT","url":"Patient/901324d3-abcb-44c1-97af-7fb226ea1985"}},{"resource":{"resourceType":"MeasureReport","id":"1ea904e2-a42d-4229-9c37-38f863ae5343","meta":{"profile":["http://hl7.org/fhir/us/cqfmeasures/StructureDefinition/test-case-cqfm"]},"contained":[{"resourceType":"Parameters","id":"38aba266-efce-4070-a4aa-e76f6b97850f-parameters","parameter":[{"name":"subject","valueString":"901324d3-abcb-44c1-97af-7fb226ea1985"}]}],"extension":[{"url":"http://hl7.org/fhir/StructureDefinition/cqf-inputParameters","valueReference":{"reference":"#38aba266-efce-4070-a4aa-e76f6b97850f-parameters"}},{"url":"http://hl7.org/fhir/us/cqfmeasures/StructureDefinition/cqfm-testCaseDescription","valueMarkdown":"POAG diagnosis overlaps Encounter one minute before start of Qualifying Encounter period"}],"modifierExtension":[{"url":"http://hl7.org/fhir/us/cqfmeasures/StructureDefinition/cqfm-isTestCase","valueBoolean":true}],"status":"complete","type":"individual","measure":"https://madie.cms.gov/Measure/CMS143FHIRPOAGOpticNerveEvaluation","period":{"start":"2026-01-01","end":"2026-12-31"},"group":[{"id":"Group_1","population":[{"id":"InitialPopulation_1","code":{"coding":[{"system":"http://terminology.hl7.org/CodeSystem/measure-population","code":"initial-population","display":"Initial Population"}]},"count":1},{"id":"Denominator_1","code":{"coding":[{"system":"http://terminology.hl7.org/CodeSystem/measure-population","code":"denominator","display":"Denominator"}]},"count":1},{"id":"Numerator_1","code":{"coding":[{"system":"http://terminology.hl7.org/CodeSystem/measure-population","code":"numerator","display":"Numerator"}]},"count":0},{"id":"DenominatorException_1","code":{"coding":[{"system":"http://terminology.hl7.org/CodeSystem/measure-population","code":"denominator-exception","display":"Denominator Exception"}]},"count":0}],"measureScore":{"value":1.0}}],"evaluatedResource":[{"reference":"Patient/901324d3-abcb-44c1-97af-7fb226ea1985"},{"reference":"Encounter/838d4234-3664-4f8e-af95-e7377ff9b7b1"},{"reference":"Condition/664fbf8d-efb7-42ae-bcb7-b34a10e8c38b"}]},"request":{"method":"PUT","url":"MeasureReport/1ea904e2-a42d-4229-9c37-38f863ae5343"}},{"resource":{"resourceType":"Condition","id":"664fbf8d-efb7-42ae-bcb7-b34a10e8c38b","meta":{"profile":["http://hl7.org/fhir/us/qicore/StructureDefinition/qicore-condition-problems-health-concerns"]},"clinicalStatus":{"coding":[{"system":"http://terminology.hl7.org/CodeSystem/condition-clinical","code":"active"}]},"category":[{"coding":[{"system":"http://terminology.hl7.org/CodeSystem/condition-category","code":"problem-list-item","display":"problem-list-item","userSelected":true}]}],"code":{"coding":[{"system":"http://hl7.org/fhir/sid/icd-10-cm","version":"2023","code":"H40.10X0"}]},"subject":{"reference":"Patient/901324d3-abcb-44c1-97af-7fb226ea1985"},"onsetDateTime":"2026-03-05T07:59:00.000+00:00"},"request":{"method":"PUT","url":"Condition/664fbf8d-efb7-42ae-bcb7-b34a10e8c38b"}},{"resource":{"resourceType":"Bundle","id":"6109658e98086b538055b9e4","type":"transaction","entry":[{"fullUrl":"https://madie.cms.gov/Patient/901324d3-abcb-44c1-97af-7fb226ea1985","resource":{"resourceType":"Patient","id":"901324d3-abcb-44c1-97af-7fb226ea1985","meta":{"profile":["http://hl7.org/fhir/us/qicore/StructureDefinition/qicore-patient"]},"extension":[{"url":"http://hl7.org/fhir/us/core/StructureDefinition/us-core-race","extension":[{"url":"ombCategory","valueCoding":{"system":"urn:oid:2.16.840.1.113883.6.238","code":"2028-9","display":"Asian","userSelected":true}},{"url":"text","valueString":"Asian"}]},{"url":"http://hl7.org/fhir/us/core/StructureDefinition/us-core-ethnicity","extension":[{"url":"ombCategory","valueCoding":{"system":"urn:oid:2.16.840.1.113883.6.238","code":"2186-5","display":"Not Hispanic or Latino","userSelected":true}},{"url":"text","valueString":"Not Hispanic or Latino"}]}],"identifier":[{"type":{"coding":[{"system":"http://terminology.hl7.org/CodeSystem/v2-0203","code":"MR"}]},"system":"https://bonnie-fhir.healthit.gov/","value":"6109658e98086b538055b9e4"}],"active":true,"name":[{"use":"usual","family":"IPPPass","given":["GlaucomaDxOverlapsEncEdge"]}],"gender":"female","birthDate":"1985-03-31"},"request":{"method":"PUT","url":"Patient/901324d3-abcb-44c1-97af-7fb226ea1985"}},{"fullUrl":"https://madie.cms.gov/Encounter/838d4234-3664-4f8e-af95-e7377ff9b7b1","resource":{"resourceType":"Encounter","id":"838d4234-3664-4f8e-af95-e7377ff9b7b1","meta":{"profile":["http://hl7.org/fhir/us/qicore/StructureDefinition/qicore-encounter"]},"status":"finished","class":{"system":"http://terminology.hl7.org/CodeSystem/v3-ActCode","code":"AMB","display":"ambulatory","userSelected":true},"type":[{"coding":[{"system":"http://www.ama-assn.org/go/cpt","version":"2023","code":"99316","userSelected":true}]}],"subject":{"reference":"Patient/901324d3-abcb-44c1-97af-7fb226ea1985"},"period":{"start":"2026-03-05T08:00:00.000+00:00","end":"2026-03-05T08:30:00.000+00:00"}},"request":{"method":"PUT","url":"Encounter/838d4234-3664-4f8e-af95-e7377ff9b7b1"}},{"fullUrl":"https://madie.cms.gov/Condition/664fbf8d-efb7-42ae-bcb7-b34a10e8c38b","resource":{"resourceType":"Condition","id":"664fbf8d-efb7-42ae-bcb7-b34a10e8c38b","meta":{"profile":["http://hl7.org/fhir/us/qicore/StructureDefinition/qicore-condition-problems-health-concerns"]},"clinicalStatus":{"coding":[{"system":"http://terminology.hl7.org/CodeSystem/condition-clinical","code":"active"}]},"category":[{"coding":[{"system":"http://terminology.hl7.org/CodeSystem/condition-category","code":"problem-list-item","display":"problem-list-item","userSelected":true}]}],"code":{"coding":[{"system":"http://hl7.org/fhir/sid/icd-10-cm","version":"2023","code":"H40.10X0"}]},"subject":{"reference":"Patient/901324d3-abcb-44c1-97af-7fb226ea1985"},"onsetDateTime":"2026-03-05T07:59:00.000+00:00"},"request":{"method":"PUT","url":"Condition/664fbf8d-efb7-42ae-bcb7-b34a10e8c38b"}},{"fullUrl":"https://madie.cms.gov/MeasureReport/1ea904e2-a42d-4229-9c37-38f863ae5343","resource":{"resourceType":"MeasureReport","id":"1ea904e2-a42d-4229-9c37-38f863ae5343","meta":{"profile":["http://hl7.org/fhir/us/cqfmeasures/StructureDefinition/test-case-cqfm"]},"contained":[{"resourceType":"Parameters","id":"38aba266-efce-4070-a4aa-e76f6b97850f-parameters","parameter":[{"name":"subject","valueString":"901324d3-abcb-44c1-97af-7fb226ea1985"}]}],"extension":[{"url":"http://hl7.org/fhir/StructureDefinition/cqf-inputParameters","valueReference":{"reference":"#38aba266-efce-4070-a4aa-e76f6b97850f-parameters"}},{"url":"http://hl7.org/fhir/us/cqfmeasures/StructureDefinition/cqfm-testCaseDescription","valueMarkdown":"POAG diagnosis overlaps Encounter one minute before start of Qualifying Encounter period"}],"modifierExtension":[{"url":"http://hl7.org/fhir/us/cqfmeasures/StructureDefinition/cqfm-isTestCase","valueBoolean":true}],"status":"complete","type":"individual","measure":"https://madie.cms.gov/Measure/CMS143FHIRPOAGOpticNerveEvaluation","period":{"start":"2026-01-01","end":"2026-12-31"},"group":[{"id":"Group_1","population":[{"id":"InitialPopulation_1","code":{"coding":[{"system":"http://terminology.hl7.org/CodeSystem/measure-population","code":"initial-population","display":"Initial Population"}]},"count":1},{"id":"Denominator_1","code":{"coding":[{"system":"http://terminology.hl7.org/CodeSystem/measure-population","code":"denominator","display":"Denominator"}]},"count":1},{"id":"Numerator_1","code":{"coding":[{"system":"http://terminology.hl7.org/CodeSystem/measure-population","code":"numerator","display":"Numerator"}]},"count":0},{"id":"DenominatorException_1","code":{"coding":[{"system":"http://terminology.hl7.org/CodeSystem/measure-population","code":"denominator-exception","display":"Denominator Exception"}]},"count":0}],"measureScore":{"value":1.0}}],"evaluatedResource":[{"reference":"Patient/901324d3-abcb-44c1-97af-7fb226ea1985"},{"reference":"Encounter/838d4234-3664-4f8e-af95-e7377ff9b7b1"},{"reference":"Condition/664fbf8d-efb7-42ae-bcb7-b34a10e8c38b"}]},"request":{"method":"PUT","url":"MeasureReport/1ea904e2-a42d-4229-9c37-38f863ae5343"}}]},"request":{"method":"PUT","url":"Bundle/6109658e98086b538055b9e4"}},{"resource":{"resourceType":"Encounter","id":"838d4234-3664-4f8e-af95-e7377ff9b7b1","meta":{"profile":["http://hl7.org/fhir/us/qicore/StructureDefinition/qicore-encounter"]},"status":"finished","class":{"system":"http://terminology.hl7.org/CodeSystem/v3-ActCode","code":"AMB","display":"ambulatory","userSelected":true},"type":[{"coding":[{"system":"http://www.ama-assn.org/go/cpt","version":"2023","code":"99316","userSelected":true}]}],"subject":{"reference":"Patient/901324d3-abcb-44c1-97af-7fb226ea1985"},"period":{"start":"2026-03-05T08:00:00.000+00:00","end":"2026-03-05T08:30:00.000+00:00"}},"request":{"method":"PUT","url":"Encounter/838d4234-3664-4f8e-af95-e7377ff9b7b1"}}]}