{"resourceType":"Bundle","id":"tests-523eeca6-d45d-4326-a397-627bea696810-bundle","type":"transaction","entry":[{"fullUrl":"Encounter/0d3a4a38-fec1-4c2f-8327-9ede91f84306","resource":{"resourceType":"Encounter","id":"0d3a4a38-fec1-4c2f-8327-9ede91f84306","meta":{"profile":["http://hl7.org/fhir/us/qicore/StructureDefinition/qicore-encounter"]},"status":"finished","class":{"system":"http://terminology.hl7.org/CodeSystem/v3-ActCode","code":"AMB","display":"ambulatory","userSelected":true},"type":[{"coding":[{"system":"http://snomed.info/sct","version":"http://snomed.info/sct/731000124108/version/202303","code":"359960003","display":"Ophthalmologic examination and evaluation under general anesthesia, limited (procedure)","userSelected":true},{"system":"http://www.ama-assn.org/go/cpt","version":"2023","code":"92004","userSelected":true}]}],"subject":{"reference":"Patient/523eeca6-d45d-4326-a397-627bea696810"},"period":{"start":"2026-03-15T08:00:00.000+00:00","end":"2026-03-15T08:30:00.000+00:00"}},"request":{"method":"PUT","url":"Encounter/0d3a4a38-fec1-4c2f-8327-9ede91f84306"}},{"fullUrl":"Observation/27832e24-db3d-43fe-bc4a-f23be7e10d1f","resource":{"resourceType":"Observation","id":"27832e24-db3d-43fe-bc4a-f23be7e10d1f","meta":{"profile":["http://hl7.org/fhir/us/qicore/StructureDefinition/qicore-observation-clinical-result"]},"status":"cancelled","category":[{"coding":[{"system":"http://terminology.hl7.org/CodeSystem/observation-category","code":"laboratory","display":"laboratory","userSelected":true}]}],"code":{"coding":[{"system":"http://loinc.org","version":"2.73","code":"71486-5","display":"Left eye Optic disc or retinal nerve fiber layer structural abnormalities by Ophthalmoscopy","userSelected":true}]},"subject":{"reference":"Patient/523eeca6-d45d-4326-a397-627bea696810"},"effectiveDateTime":"2026-03-15T08:15:00.000+00:00"},"request":{"method":"PUT","url":"Observation/27832e24-db3d-43fe-bc4a-f23be7e10d1f"}},{"fullUrl":"Bundle/6109658e98086b538055b9df","resource":{"resourceType":"Bundle","id":"6109658e98086b538055b9df","type":"transaction","entry":[{"fullUrl":"https://madie.cms.gov/Patient/523eeca6-d45d-4326-a397-627bea696810","resource":{"resourceType":"Patient","id":"523eeca6-d45d-4326-a397-627bea696810","meta":{"profile":["http://hl7.org/fhir/us/qicore/StructureDefinition/qicore-patient"]},"extension":[{"url":"http://hl7.org/fhir/us/core/StructureDefinition/us-core-race","extension":[{"url":"ombCategory","valueCoding":{"system":"urn:oid:2.16.840.1.113883.6.238","code":"1002-5","display":"American Indian or Alaska Native","userSelected":true}},{"url":"text","valueString":"American Indian or Alaska Native"}]},{"url":"http://hl7.org/fhir/us/core/StructureDefinition/us-core-ethnicity","extension":[{"url":"ombCategory","valueCoding":{"system":"urn:oid:2.16.840.1.113883.6.238","code":"2135-2","display":"Hispanic or Latino","userSelected":true}},{"url":"text","valueString":"Hispanic or Latino"}]}],"identifier":[{"type":{"coding":[{"system":"http://terminology.hl7.org/CodeSystem/v2-0203","code":"MR"}]},"system":"https://bonnie-fhir.healthit.gov/","value":"6109658e98086b538055b9df"}],"active":true,"name":[{"use":"usual","family":"DENEXCEPFail","given":["DiscExamNotDoneNoMR"]}],"gender":"male","birthDate":"1968-06-14"},"request":{"method":"PUT","url":"Patient/523eeca6-d45d-4326-a397-627bea696810"}},{"fullUrl":"https://madie.cms.gov/Condition/b0b83483-c9eb-4d2e-8192-6a9f8e112ffb","resource":{"resourceType":"Condition","id":"b0b83483-c9eb-4d2e-8192-6a9f8e112ffb","meta":{"profile":["http://hl7.org/fhir/us/qicore/StructureDefinition/qicore-condition-problems-health-concerns"]},"clinicalStatus":{"coding":[{"system":"http://terminology.hl7.org/CodeSystem/condition-clinical","code":"active","display":"active","userSelected":true}]},"category":[{"coding":[{"system":"http://terminology.hl7.org/CodeSystem/condition-category","code":"problem-list-item","display":"problem-list-item","userSelected":true}]}],"code":{"coding":[{"system":"http://snomed.info/sct","version":"http://snomed.info/sct/731000124108/version/202303","code":"111513000","display":"Advanced open-angle glaucoma (disorder)","userSelected":true},{"system":"http://hl7.org/fhir/sid/icd-10-cm","code":"H40.10X0","userSelected":true}]},"subject":{"reference":"Patient/523eeca6-d45d-4326-a397-627bea696810"},"onsetDateTime":"2014-04-11T08:00:00.000+00:00","recordedDate":"2014-04-11T12:40:00.000+00:00"},"request":{"method":"PUT","url":"Condition/b0b83483-c9eb-4d2e-8192-6a9f8e112ffb"}},{"fullUrl":"https://madie.cms.gov/Encounter/0d3a4a38-fec1-4c2f-8327-9ede91f84306","resource":{"resourceType":"Encounter","id":"0d3a4a38-fec1-4c2f-8327-9ede91f84306","meta":{"profile":["http://hl7.org/fhir/us/qicore/StructureDefinition/qicore-encounter"]},"status":"finished","class":{"system":"http://terminology.hl7.org/CodeSystem/v3-ActCode","code":"AMB","display":"ambulatory","userSelected":true},"type":[{"coding":[{"system":"http://snomed.info/sct","version":"http://snomed.info/sct/731000124108/version/202303","code":"359960003","display":"Ophthalmologic examination and evaluation under general anesthesia, limited (procedure)","userSelected":true},{"system":"http://www.ama-assn.org/go/cpt","version":"2023","code":"92004","userSelected":true}]}],"subject":{"reference":"Patient/523eeca6-d45d-4326-a397-627bea696810"},"period":{"start":"2026-03-15T08:00:00.000+00:00","end":"2026-03-15T08:30:00.000+00:00"}},"request":{"method":"PUT","url":"Encounter/0d3a4a38-fec1-4c2f-8327-9ede91f84306"}},{"fullUrl":"https://madie.cms.gov/Observation/27832e24-db3d-43fe-bc4a-f23be7e10d1f","resource":{"resourceType":"Observation","id":"27832e24-db3d-43fe-bc4a-f23be7e10d1f","meta":{"profile":["http://hl7.org/fhir/us/qicore/StructureDefinition/qicore-observation-clinical-result"]},"status":"cancelled","category":[{"coding":[{"system":"http://terminology.hl7.org/CodeSystem/observation-category","code":"laboratory","display":"laboratory","userSelected":true}]}],"code":{"coding":[{"system":"http://loinc.org","version":"2.73","code":"71486-5","display":"Left eye Optic disc or retinal nerve fiber layer structural abnormalities by Ophthalmoscopy","userSelected":true}]},"subject":{"reference":"Patient/523eeca6-d45d-4326-a397-627bea696810"},"effectiveDateTime":"2026-03-15T08:15:00.000+00:00"},"request":{"method":"PUT","url":"Observation/27832e24-db3d-43fe-bc4a-f23be7e10d1f"}},{"fullUrl":"https://madie.cms.gov/MeasureReport/99e0f118-6719-470f-b170-f65a77e64a84","resource":{"resourceType":"MeasureReport","id":"99e0f118-6719-470f-b170-f65a77e64a84","meta":{"profile":["http://hl7.org/fhir/us/cqfmeasures/StructureDefinition/test-case-cqfm"]},"contained":[{"resourceType":"Parameters","id":"6974d060-4484-4298-8550-b88f7865095c-parameters","parameter":[{"name":"subject","valueString":"523eeca6-d45d-4326-a397-627bea696810"}]}],"extension":[{"url":"http://hl7.org/fhir/StructureDefinition/cqf-inputParameters","valueReference":{"reference":"#6974d060-4484-4298-8550-b88f7865095c-parameters"}},{"url":"http://hl7.org/fhir/us/cqfmeasures/StructureDefinition/cqfm-testCaseDescription","valueMarkdown":"Patient with Diagnosis: Primary Open-Angle Glaucoma.   Diagnostic Study Performed: Optic Disc Exam for Structural Abnormalities result not recorded, but no medical reason noted"}],"modifierExtension":[{"url":"http://hl7.org/fhir/us/cqfmeasures/StructureDefinition/cqfm-isTestCase","valueBoolean":true}],"status":"complete","type":"individual","measure":"https://madie.cms.gov/Measure/CMS143FHIRPOAGOpticNerveEvaluation","period":{"start":"2026-01-01","end":"2026-12-31"},"group":[{"id":"Group_1","population":[{"id":"InitialPopulation_1","code":{"coding":[{"system":"http://terminology.hl7.org/CodeSystem/measure-population","code":"initial-population","display":"Initial Population"}]},"count":1},{"id":"Denominator_1","code":{"coding":[{"system":"http://terminology.hl7.org/CodeSystem/measure-population","code":"denominator","display":"Denominator"}]},"count":1},{"id":"Numerator_1","code":{"coding":[{"system":"http://terminology.hl7.org/CodeSystem/measure-population","code":"numerator","display":"Numerator"}]},"count":0},{"id":"DenominatorException_1","code":{"coding":[{"system":"http://terminology.hl7.org/CodeSystem/measure-population","code":"denominator-exception","display":"Denominator Exception"}]},"count":0}],"measureScore":{"value":1.0}}],"evaluatedResource":[{"reference":"Patient/523eeca6-d45d-4326-a397-627bea696810"},{"reference":"Condition/b0b83483-c9eb-4d2e-8192-6a9f8e112ffb"},{"reference":"Encounter/0d3a4a38-fec1-4c2f-8327-9ede91f84306"},{"reference":"Observation/27832e24-db3d-43fe-bc4a-f23be7e10d1f"}]},"request":{"method":"PUT","url":"MeasureReport/99e0f118-6719-470f-b170-f65a77e64a84"}}]},"request":{"method":"PUT","url":"Bundle/6109658e98086b538055b9df"}},{"fullUrl":"MeasureReport/99e0f118-6719-470f-b170-f65a77e64a84","resource":{"resourceType":"MeasureReport","id":"99e0f118-6719-470f-b170-f65a77e64a84","meta":{"profile":["http://hl7.org/fhir/us/cqfmeasures/StructureDefinition/test-case-cqfm"]},"contained":[{"resourceType":"Parameters","id":"6974d060-4484-4298-8550-b88f7865095c-parameters","parameter":[{"name":"subject","valueString":"523eeca6-d45d-4326-a397-627bea696810"}]}],"extension":[{"url":"http://hl7.org/fhir/StructureDefinition/cqf-inputParameters","valueReference":{"reference":"#6974d060-4484-4298-8550-b88f7865095c-parameters"}},{"url":"http://hl7.org/fhir/us/cqfmeasures/StructureDefinition/cqfm-testCaseDescription","valueMarkdown":"Patient with Diagnosis: Primary Open-Angle Glaucoma.   Diagnostic Study Performed: Optic Disc Exam for Structural Abnormalities result not recorded, but no medical reason noted"}],"modifierExtension":[{"url":"http://hl7.org/fhir/us/cqfmeasures/StructureDefinition/cqfm-isTestCase","valueBoolean":true}],"status":"complete","type":"individual","measure":"https://madie.cms.gov/Measure/CMS143FHIRPOAGOpticNerveEvaluation","period":{"start":"2026-01-01","end":"2026-12-31"},"group":[{"id":"Group_1","population":[{"id":"InitialPopulation_1","code":{"coding":[{"system":"http://terminology.hl7.org/CodeSystem/measure-population","code":"initial-population","display":"Initial Population"}]},"count":1},{"id":"Denominator_1","code":{"coding":[{"system":"http://terminology.hl7.org/CodeSystem/measure-population","code":"denominator","display":"Denominator"}]},"count":1},{"id":"Numerator_1","code":{"coding":[{"system":"http://terminology.hl7.org/CodeSystem/measure-population","code":"numerator","display":"Numerator"}]},"count":0},{"id":"DenominatorException_1","code":{"coding":[{"system":"http://terminology.hl7.org/CodeSystem/measure-population","code":"denominator-exception","display":"Denominator Exception"}]},"count":0}],"measureScore":{"value":1.0}}],"evaluatedResource":[{"reference":"Patient/523eeca6-d45d-4326-a397-627bea696810"},{"reference":"Condition/b0b83483-c9eb-4d2e-8192-6a9f8e112ffb"},{"reference":"Encounter/0d3a4a38-fec1-4c2f-8327-9ede91f84306"},{"reference":"Observation/27832e24-db3d-43fe-bc4a-f23be7e10d1f"}]},"request":{"method":"PUT","url":"MeasureReport/99e0f118-6719-470f-b170-f65a77e64a84"}},{"fullUrl":"Condition/b0b83483-c9eb-4d2e-8192-6a9f8e112ffb","resource":{"resourceType":"Condition","id":"b0b83483-c9eb-4d2e-8192-6a9f8e112ffb","meta":{"profile":["http://hl7.org/fhir/us/qicore/StructureDefinition/qicore-condition-problems-health-concerns"]},"clinicalStatus":{"coding":[{"system":"http://terminology.hl7.org/CodeSystem/condition-clinical","code":"active","display":"active","userSelected":true}]},"category":[{"coding":[{"system":"http://terminology.hl7.org/CodeSystem/condition-category","code":"problem-list-item","display":"problem-list-item","userSelected":true}]}],"code":{"coding":[{"system":"http://snomed.info/sct","version":"http://snomed.info/sct/731000124108/version/202303","code":"111513000","display":"Advanced open-angle glaucoma (disorder)","userSelected":true},{"system":"http://hl7.org/fhir/sid/icd-10-cm","code":"H40.10X0","userSelected":true}]},"subject":{"reference":"Patient/523eeca6-d45d-4326-a397-627bea696810"},"onsetDateTime":"2014-04-11T08:00:00.000+00:00","recordedDate":"2014-04-11T12:40:00.000+00:00"},"request":{"method":"PUT","url":"Condition/b0b83483-c9eb-4d2e-8192-6a9f8e112ffb"}},{"fullUrl":"Patient/523eeca6-d45d-4326-a397-627bea696810","resource":{"resourceType":"Patient","id":"523eeca6-d45d-4326-a397-627bea696810","meta":{"profile":["http://hl7.org/fhir/us/qicore/StructureDefinition/qicore-patient"]},"extension":[{"url":"http://hl7.org/fhir/us/core/StructureDefinition/us-core-race","extension":[{"url":"ombCategory","valueCoding":{"system":"urn:oid:2.16.840.1.113883.6.238","code":"1002-5","display":"American Indian or Alaska Native","userSelected":true}},{"url":"text","valueString":"American Indian or Alaska Native"}]},{"url":"http://hl7.org/fhir/us/core/StructureDefinition/us-core-ethnicity","extension":[{"url":"ombCategory","valueCoding":{"system":"urn:oid:2.16.840.1.113883.6.238","code":"2135-2","display":"Hispanic or Latino","userSelected":true}},{"url":"text","valueString":"Hispanic or Latino"}]}],"identifier":[{"type":{"coding":[{"system":"http://terminology.hl7.org/CodeSystem/v2-0203","code":"MR"}]},"system":"https://bonnie-fhir.healthit.gov/","value":"6109658e98086b538055b9df"}],"active":true,"name":[{"use":"usual","family":"DENEXCEPFail","given":["DiscExamNotDoneNoMR"]}],"gender":"male","birthDate":"1968-06-14"},"request":{"method":"PUT","url":"Patient/523eeca6-d45d-4326-a397-627bea696810"}}]}