{"resourceType":"Bundle","id":"tests-2b101fed-53d1-44c8-b11a-792edd52228d-bundle","type":"transaction","entry":[{"resource":{"resourceType":"Bundle","id":"6109658e98086b538055b9e4","type":"transaction","entry":[{"fullUrl":"https://madie.cms.gov/Patient/2b101fed-53d1-44c8-b11a-792edd52228d","resource":{"resourceType":"Patient","id":"2b101fed-53d1-44c8-b11a-792edd52228d","meta":{"profile":["http://hl7.org/fhir/us/qicore/StructureDefinition/qicore-patient"]},"extension":[{"url":"http://hl7.org/fhir/us/core/StructureDefinition/us-core-race","extension":[{"url":"ombCategory","valueCoding":{"system":"urn:oid:2.16.840.1.113883.6.238","code":"2106-3","display":"White","userSelected":true}},{"url":"text","valueString":"White"}]},{"url":"http://hl7.org/fhir/us/core/StructureDefinition/us-core-ethnicity","extension":[{"url":"ombCategory","valueCoding":{"system":"urn:oid:2.16.840.1.113883.6.238","code":"2186-5","display":"Not Hispanic or Latino","userSelected":true}},{"url":"text","valueString":"Not Hispanic or Latino"}]}],"identifier":[{"type":{"coding":[{"system":"http://terminology.hl7.org/CodeSystem/v2-0203","code":"MR"}]},"system":"https://bonnie-fhir.healthit.gov/","value":"6109658e98086b538055b9e4"}],"active":true,"name":[{"use":"usual","family":"IPPass","given":["Age18DayBeforeMPEdge"]}],"gender":"male","birthDate":"2007-12-31"},"request":{"method":"PUT","url":"Patient/2b101fed-53d1-44c8-b11a-792edd52228d"}},{"fullUrl":"https://madie.cms.gov/Encounter/83c3772f-d2f4-4acc-a2e0-752b8303569e","resource":{"resourceType":"Encounter","id":"83c3772f-d2f4-4acc-a2e0-752b8303569e","meta":{"profile":["http://hl7.org/fhir/us/qicore/StructureDefinition/qicore-encounter"]},"status":"finished","class":{"system":"http://terminology.hl7.org/CodeSystem/v3-ActCode","code":"AMB","display":"ambulatory","userSelected":true},"type":[{"coding":[{"system":"http://snomed.info/sct","code":"37894004"},{"system":"http://www.ama-assn.org/go/cpt","code":"99213","userSelected":true}]}],"subject":{"reference":"Patient/2b101fed-53d1-44c8-b11a-792edd52228d"},"period":{"start":"2026-03-05T08:00:00.000+00:00","end":"2026-03-05T08:30:00.000+00:00"}},"request":{"method":"PUT","url":"Encounter/83c3772f-d2f4-4acc-a2e0-752b8303569e"}},{"fullUrl":"https://madie.cms.gov/Condition/57783aa9-89a0-49fe-b6af-e0f89418a6e8","resource":{"resourceType":"Condition","id":"57783aa9-89a0-49fe-b6af-e0f89418a6e8","meta":{"profile":["http://hl7.org/fhir/us/qicore/StructureDefinition/qicore-condition-problems-health-concerns"]},"clinicalStatus":{"coding":[{"system":"http://terminology.hl7.org/CodeSystem/condition-clinical","code":"active","display":"active","userSelected":true}]},"category":[{"coding":[{"system":"http://terminology.hl7.org/CodeSystem/condition-category","code":"problem-list-item","display":"problem-list-item","userSelected":true}]}],"code":{"coding":[{"system":"http://hl7.org/fhir/sid/icd-10-cm","code":"H40.10X0"}]},"subject":{"reference":"Patient/2b101fed-53d1-44c8-b11a-792edd52228d"},"onsetDateTime":"2025-09-14T08:00:00.000+00:00"},"request":{"method":"PUT","url":"Condition/57783aa9-89a0-49fe-b6af-e0f89418a6e8"}},{"fullUrl":"https://madie.cms.gov/MeasureReport/3487d46e-27fd-4449-adce-69c08dedf5ca","resource":{"resourceType":"MeasureReport","id":"3487d46e-27fd-4449-adce-69c08dedf5ca","meta":{"profile":["http://hl7.org/fhir/us/cqfmeasures/StructureDefinition/test-case-cqfm"]},"contained":[{"resourceType":"Parameters","id":"8654da75-e9de-4925-9de9-8908cab0e5a8-parameters","parameter":[{"name":"subject","valueString":"2b101fed-53d1-44c8-b11a-792edd52228d"}]}],"extension":[{"url":"http://hl7.org/fhir/StructureDefinition/cqf-inputParameters","valueReference":{"reference":"#8654da75-e9de-4925-9de9-8908cab0e5a8-parameters"}},{"url":"http://hl7.org/fhir/us/cqfmeasures/StructureDefinition/cqfm-testCaseDescription","valueMarkdown":"Patient turns 18 on the day before the start of the MP with POAD Diagnosis starting before MP (but not ending)"}],"modifierExtension":[{"url":"http://hl7.org/fhir/us/cqfmeasures/StructureDefinition/cqfm-isTestCase","valueBoolean":true}],"status":"complete","type":"individual","measure":"https://madie.cms.gov/Measure/CMS143FHIRPOAGOpticNerveEvaluation","period":{"start":"2026-01-01","end":"2026-12-31"},"group":[{"id":"Group_1","population":[{"id":"InitialPopulation_1","code":{"coding":[{"system":"http://terminology.hl7.org/CodeSystem/measure-population","code":"initial-population","display":"Initial Population"}]},"count":1},{"id":"Denominator_1","code":{"coding":[{"system":"http://terminology.hl7.org/CodeSystem/measure-population","code":"denominator","display":"Denominator"}]},"count":1},{"id":"Numerator_1","code":{"coding":[{"system":"http://terminology.hl7.org/CodeSystem/measure-population","code":"numerator","display":"Numerator"}]},"count":0},{"id":"DenominatorException_1","code":{"coding":[{"system":"http://terminology.hl7.org/CodeSystem/measure-population","code":"denominator-exception","display":"Denominator Exception"}]},"count":0}],"measureScore":{"value":1.0}}],"evaluatedResource":[{"reference":"Patient/2b101fed-53d1-44c8-b11a-792edd52228d"},{"reference":"Encounter/83c3772f-d2f4-4acc-a2e0-752b8303569e"},{"reference":"Condition/57783aa9-89a0-49fe-b6af-e0f89418a6e8"}]},"request":{"method":"PUT","url":"MeasureReport/3487d46e-27fd-4449-adce-69c08dedf5ca"}}]},"request":{"method":"PUT","url":"Bundle/6109658e98086b538055b9e4"}},{"resource":{"resourceType":"Encounter","id":"83c3772f-d2f4-4acc-a2e0-752b8303569e","meta":{"profile":["http://hl7.org/fhir/us/qicore/StructureDefinition/qicore-encounter"]},"status":"finished","class":{"system":"http://terminology.hl7.org/CodeSystem/v3-ActCode","code":"AMB","display":"ambulatory","userSelected":true},"type":[{"coding":[{"system":"http://snomed.info/sct","code":"37894004"},{"system":"http://www.ama-assn.org/go/cpt","code":"99213","userSelected":true}]}],"subject":{"reference":"Patient/2b101fed-53d1-44c8-b11a-792edd52228d"},"period":{"start":"2026-03-05T08:00:00.000+00:00","end":"2026-03-05T08:30:00.000+00:00"}},"request":{"method":"PUT","url":"Encounter/83c3772f-d2f4-4acc-a2e0-752b8303569e"}},{"resource":{"resourceType":"Condition","id":"57783aa9-89a0-49fe-b6af-e0f89418a6e8","meta":{"profile":["http://hl7.org/fhir/us/qicore/StructureDefinition/qicore-condition-problems-health-concerns"]},"clinicalStatus":{"coding":[{"system":"http://terminology.hl7.org/CodeSystem/condition-clinical","code":"active","display":"active","userSelected":true}]},"category":[{"coding":[{"system":"http://terminology.hl7.org/CodeSystem/condition-category","code":"problem-list-item","display":"problem-list-item","userSelected":true}]}],"code":{"coding":[{"system":"http://hl7.org/fhir/sid/icd-10-cm","code":"H40.10X0"}]},"subject":{"reference":"Patient/2b101fed-53d1-44c8-b11a-792edd52228d"},"onsetDateTime":"2025-09-14T08:00:00.000+00:00"},"request":{"method":"PUT","url":"Condition/57783aa9-89a0-49fe-b6af-e0f89418a6e8"}},{"resource":{"resourceType":"Patient","id":"2b101fed-53d1-44c8-b11a-792edd52228d","meta":{"profile":["http://hl7.org/fhir/us/qicore/StructureDefinition/qicore-patient"]},"extension":[{"url":"http://hl7.org/fhir/us/core/StructureDefinition/us-core-race","extension":[{"url":"ombCategory","valueCoding":{"system":"urn:oid:2.16.840.1.113883.6.238","code":"2106-3","display":"White","userSelected":true}},{"url":"text","valueString":"White"}]},{"url":"http://hl7.org/fhir/us/core/StructureDefinition/us-core-ethnicity","extension":[{"url":"ombCategory","valueCoding":{"system":"urn:oid:2.16.840.1.113883.6.238","code":"2186-5","display":"Not Hispanic or Latino","userSelected":true}},{"url":"text","valueString":"Not Hispanic or Latino"}]}],"identifier":[{"type":{"coding":[{"system":"http://terminology.hl7.org/CodeSystem/v2-0203","code":"MR"}]},"system":"https://bonnie-fhir.healthit.gov/","value":"6109658e98086b538055b9e4"}],"active":true,"name":[{"use":"usual","family":"IPPass","given":["Age18DayBeforeMPEdge"]}],"gender":"male","birthDate":"2007-12-31"},"request":{"method":"PUT","url":"Patient/2b101fed-53d1-44c8-b11a-792edd52228d"}},{"resource":{"resourceType":"MeasureReport","id":"3487d46e-27fd-4449-adce-69c08dedf5ca","meta":{"profile":["http://hl7.org/fhir/us/cqfmeasures/StructureDefinition/test-case-cqfm"]},"contained":[{"resourceType":"Parameters","id":"8654da75-e9de-4925-9de9-8908cab0e5a8-parameters","parameter":[{"name":"subject","valueString":"2b101fed-53d1-44c8-b11a-792edd52228d"}]}],"extension":[{"url":"http://hl7.org/fhir/StructureDefinition/cqf-inputParameters","valueReference":{"reference":"#8654da75-e9de-4925-9de9-8908cab0e5a8-parameters"}},{"url":"http://hl7.org/fhir/us/cqfmeasures/StructureDefinition/cqfm-testCaseDescription","valueMarkdown":"Patient turns 18 on the day before the start of the MP with POAD Diagnosis starting before MP (but not ending)"}],"modifierExtension":[{"url":"http://hl7.org/fhir/us/cqfmeasures/StructureDefinition/cqfm-isTestCase","valueBoolean":true}],"status":"complete","type":"individual","measure":"https://madie.cms.gov/Measure/CMS143FHIRPOAGOpticNerveEvaluation","period":{"start":"2026-01-01","end":"2026-12-31"},"group":[{"id":"Group_1","population":[{"id":"InitialPopulation_1","code":{"coding":[{"system":"http://terminology.hl7.org/CodeSystem/measure-population","code":"initial-population","display":"Initial Population"}]},"count":1},{"id":"Denominator_1","code":{"coding":[{"system":"http://terminology.hl7.org/CodeSystem/measure-population","code":"denominator","display":"Denominator"}]},"count":1},{"id":"Numerator_1","code":{"coding":[{"system":"http://terminology.hl7.org/CodeSystem/measure-population","code":"numerator","display":"Numerator"}]},"count":0},{"id":"DenominatorException_1","code":{"coding":[{"system":"http://terminology.hl7.org/CodeSystem/measure-population","code":"denominator-exception","display":"Denominator Exception"}]},"count":0}],"measureScore":{"value":1.0}}],"evaluatedResource":[{"reference":"Patient/2b101fed-53d1-44c8-b11a-792edd52228d"},{"reference":"Encounter/83c3772f-d2f4-4acc-a2e0-752b8303569e"},{"reference":"Condition/57783aa9-89a0-49fe-b6af-e0f89418a6e8"}]},"request":{"method":"PUT","url":"MeasureReport/3487d46e-27fd-4449-adce-69c08dedf5ca"}}]}