{"resourceType":"Bundle","id":"tests-e216b280-8e64-4b45-97dc-98011f39205a-bundle","type":"transaction","entry":[{"resource":{"resourceType":"Patient","id":"e216b280-8e64-4b45-97dc-98011f39205a","meta":{"profile":["http://hl7.org/fhir/us/qicore/StructureDefinition/qicore-patient"]},"text":{"status":"generated","div":"<div xmlns=\"http://www.w3.org/1999/xhtml\"><div class=\"hapiHeaderText\">Pt18AtEndOfMPGlaucomaOverlapsEnc <b>IPPPASS </b></div><table class=\"hapiPropertyTable\"><tbody><tr><td>Identifier</td><td>5acb67c60dbd9f474db3d5ce4da8c4ffe9af7a0275006cb1d348983f2da0a2b7</td></tr><tr><td>Date of birth</td><td><span>31 December 1993</span></td></tr></tbody></table></div>"},"extension":[{"url":"http://hl7.org/fhir/us/core/StructureDefinition/us-core-race","extension":[{"url":"ombCategory","valueCoding":{"system":"urn:oid:2.16.840.1.113883.6.238","code":"1002-5","display":"American Indian or Alaska Native","userSelected":true}},{"url":"text","valueString":"American Indian or Alaska Native"}]},{"url":"http://hl7.org/fhir/us/core/StructureDefinition/us-core-ethnicity","extension":[{"url":"ombCategory","valueCoding":{"system":"urn:oid:2.16.840.1.113883.6.238","code":"2186-5","display":"Not Hispanic or Latino","userSelected":true}},{"url":"text","valueString":"Not Hispanic or Latino"}]}],"identifier":[{"type":{"coding":[{"system":"http://terminology.hl7.org/CodeSystem/v2-0203","code":"MR"}]},"system":"https://bonnie-fhir.healthit.gov/","value":"64e774b92e9f5b621ea08698"}],"active":true,"name":[{"use":"usual","family":"AAAPracticeIPPPass","given":["MultipleEnc"]}],"gender":"female","birthDate":"2006-01-01"},"request":{"method":"PUT","url":"Patient/e216b280-8e64-4b45-97dc-98011f39205a"}},{"resource":{"resourceType":"Encounter","id":"b9882aa9-2a06-49bc-9c27-4a119bdb01ab","meta":{"profile":["http://hl7.org/fhir/us/qicore/StructureDefinition/qicore-encounter"]},"status":"finished","class":{"system":"http://terminology.hl7.org/CodeSystem/v3-ActCode","code":"AMB","display":"ambulatory","userSelected":true},"type":[{"coding":[{"system":"http://snomed.info/sct","version":"2021-09","code":"448951000124107","display":"Admission to observation unit (procedure)","userSelected":true}]}],"subject":{"reference":"Patient/64e774b92e9f5b621ea08698"},"period":{"start":"2025-01-30T08:00:00.000+00:00","end":"2025-01-30T08:15:00.000+00:00"},"length":{"value":0.0,"unit":"days"}},"request":{"method":"PUT","url":"Encounter/b9882aa9-2a06-49bc-9c27-4a119bdb01ab"}},{"resource":{"resourceType":"Bundle","id":"64e774b92e9f5b621ea08698","type":"transaction","entry":[{"fullUrl":"https://madie.cms.gov/Patient/e216b280-8e64-4b45-97dc-98011f39205a","resource":{"resourceType":"Patient","id":"e216b280-8e64-4b45-97dc-98011f39205a","meta":{"profile":["http://hl7.org/fhir/us/qicore/StructureDefinition/qicore-patient"]},"text":{"status":"generated","div":"<div xmlns=\"http://www.w3.org/1999/xhtml\"><div class=\"hapiHeaderText\">Pt18AtEndOfMPGlaucomaOverlapsEnc <b>IPPPASS </b></div><table class=\"hapiPropertyTable\"><tbody><tr><td>Identifier</td><td>5acb67c60dbd9f474db3d5ce4da8c4ffe9af7a0275006cb1d348983f2da0a2b7</td></tr><tr><td>Date of birth</td><td><span>31 December 1993</span></td></tr></tbody></table></div>"},"extension":[{"url":"http://hl7.org/fhir/us/core/StructureDefinition/us-core-race","extension":[{"url":"ombCategory","valueCoding":{"system":"urn:oid:2.16.840.1.113883.6.238","code":"1002-5","display":"American Indian or Alaska Native","userSelected":true}},{"url":"text","valueString":"American Indian or Alaska Native"}]},{"url":"http://hl7.org/fhir/us/core/StructureDefinition/us-core-ethnicity","extension":[{"url":"ombCategory","valueCoding":{"system":"urn:oid:2.16.840.1.113883.6.238","code":"2186-5","display":"Not Hispanic or Latino","userSelected":true}},{"url":"text","valueString":"Not Hispanic or Latino"}]}],"identifier":[{"type":{"coding":[{"system":"http://terminology.hl7.org/CodeSystem/v2-0203","code":"MR"}]},"system":"https://bonnie-fhir.healthit.gov/","value":"64e774b92e9f5b621ea08698"}],"active":true,"name":[{"use":"usual","family":"AAAPracticeIPPPass","given":["MultipleEnc"]}],"gender":"female","birthDate":"2006-01-01"},"request":{"method":"PUT","url":"Patient/e216b280-8e64-4b45-97dc-98011f39205a"}},{"fullUrl":"https://madie.cms.gov/Condition/1d6fe44e-a0c8-43b0-8291-91a6c783bc3d","resource":{"resourceType":"Condition","id":"1d6fe44e-a0c8-43b0-8291-91a6c783bc3d","meta":{"profile":["http://hl7.org/fhir/us/qicore/StructureDefinition/qicore-condition-problems-health-concerns"]},"clinicalStatus":{"coding":[{"system":"http://terminology.hl7.org/CodeSystem/condition-clinical","code":"active","display":"active","userSelected":true}]},"category":[{"coding":[{"system":"http://terminology.hl7.org/CodeSystem/condition-category","code":"problem-list-item","display":"Problem List Item"}]}],"code":{"coding":[{"system":"http://snomed.info/sct","code":"111513000"}]},"subject":{"reference":"Patient/6109658e98086b538055b9e1"},"onsetDateTime":"2025-01-01T08:00:00.000+00:00"},"request":{"method":"PUT","url":"Condition/1d6fe44e-a0c8-43b0-8291-91a6c783bc3d"}},{"fullUrl":"https://madie.cms.gov/Encounter/185637cb-d618-42de-8fae-65350d6072c3","resource":{"resourceType":"Encounter","id":"185637cb-d618-42de-8fae-65350d6072c3","meta":{"profile":["http://hl7.org/fhir/us/qicore/StructureDefinition/qicore-encounter"]},"status":"finished","class":{"system":"http://terminology.hl7.org/CodeSystem/v3-ActCode","code":"AMB","display":"ambulatory","userSelected":true},"type":[{"coding":[{"system":"http://www.ama-assn.org/go/cpt","code":"99201"},{"system":"http://www.ama-assn.org/go/cpt","code":"99204"}]}],"subject":{"reference":"Patient/6109658e98086b538055b9e1"},"period":{"start":"2025-01-25T14:30:00.000+00:00","end":"2025-01-25T14:30:00.000+00:00"},"length":{"value":0.0,"unit":"days"}},"request":{"method":"PUT","url":"Encounter/185637cb-d618-42de-8fae-65350d6072c3"}},{"fullUrl":"https://madie.cms.gov/Encounter/3844c897-5ea9-4e0c-a89b-4f873e57b0c5","resource":{"resourceType":"Encounter","id":"3844c897-5ea9-4e0c-a89b-4f873e57b0c5","meta":{"profile":["http://hl7.org/fhir/us/qicore/StructureDefinition/qicore-encounter"]},"status":"finished","class":{"system":"http://terminology.hl7.org/CodeSystem/v3-ActCode","code":"AMB","display":"ambulatory","userSelected":true},"type":[{"coding":[{"system":"http://snomed.info/sct","version":"2021-09","code":"209099002","display":"History and physical examination with management of domiciliary or rest home patient (procedure)","userSelected":true}]}],"subject":{"reference":"Patient/64e774b92e9f5b621ea08698"},"period":{"start":"2026-01-28T08:00:00.000+00:00","end":"2026-01-28T08:15:00.000+00:00"},"length":{"value":0.0,"unit":"days"}},"request":{"method":"PUT","url":"Encounter/3844c897-5ea9-4e0c-a89b-4f873e57b0c5"}},{"fullUrl":"https://madie.cms.gov/Encounter/b9882aa9-2a06-49bc-9c27-4a119bdb01ab","resource":{"resourceType":"Encounter","id":"b9882aa9-2a06-49bc-9c27-4a119bdb01ab","meta":{"profile":["http://hl7.org/fhir/us/qicore/StructureDefinition/qicore-encounter"]},"status":"finished","class":{"system":"http://terminology.hl7.org/CodeSystem/v3-ActCode","code":"AMB","display":"ambulatory","userSelected":true},"type":[{"coding":[{"system":"http://snomed.info/sct","version":"2021-09","code":"448951000124107","display":"Admission to observation unit (procedure)","userSelected":true}]}],"subject":{"reference":"Patient/64e774b92e9f5b621ea08698"},"period":{"start":"2025-01-30T08:00:00.000+00:00","end":"2025-01-30T08:15:00.000+00:00"},"length":{"value":0.0,"unit":"days"}},"request":{"method":"PUT","url":"Encounter/b9882aa9-2a06-49bc-9c27-4a119bdb01ab"}},{"fullUrl":"https://madie.cms.gov/Encounter/3465ec1c-7835-44fc-ab98-e2b0d7da1235","resource":{"resourceType":"Encounter","id":"3465ec1c-7835-44fc-ab98-e2b0d7da1235","meta":{"profile":["http://hl7.org/fhir/us/qicore/StructureDefinition/qicore-encounter"]},"status":"finished","class":{"system":"http://terminology.hl7.org/CodeSystem/v3-ActCode","code":"AMB","display":"ambulatory","userSelected":true},"type":[{"coding":[{"system":"http://snomed.info/sct","version":"2021-09","code":"281036007","display":"Follow-up consultation (procedure)","userSelected":true}]}],"subject":{"reference":"Patient/64e774b92e9f5b621ea08698"},"period":{"start":"2025-02-01T08:00:00.000+00:00","end":"2025-02-01T08:15:00.000+00:00"},"length":{"value":0.0,"unit":"days"}},"request":{"method":"PUT","url":"Encounter/3465ec1c-7835-44fc-ab98-e2b0d7da1235"}},{"fullUrl":"https://madie.cms.gov/Coverage/90387ff6-afc5-4fa8-bc7b-c24f5a363fcd","resource":{"resourceType":"Coverage","id":"90387ff6-afc5-4fa8-bc7b-c24f5a363fcd","meta":{"profile":["http://hl7.org/fhir/us/qicore/StructureDefinition/qicore-coverage"]},"status":"active","beneficiary":{"reference":"Patient/64e774b92e9f5b621ea08698"},"payor":[{"reference":"Organization/cdbef291-63be-449c-9fe7-221ac3848aef"}]},"request":{"method":"PUT","url":"Coverage/90387ff6-afc5-4fa8-bc7b-c24f5a363fcd"}},{"fullUrl":"https://madie.cms.gov/Organization/cdbef291-63be-449c-9fe7-221ac3848aef","resource":{"resourceType":"Organization","id":"cdbef291-63be-449c-9fe7-221ac3848aef","meta":{"profile":["http://hl7.org/fhir/us/qicore/StructureDefinition/qicore-organization"]},"identifier":[{"use":"temp","system":"urn:oid:2.16.840.1.113883.4.4","value":"21-3259825"}],"active":true,"type":[{"coding":[{"system":"http://terminology.hl7.org/CodeSystem/organization-type","code":"pay","display":"Payer"}]}],"name":"Blue Cross Blue Shield of Texas","telecom":[{"system":"phone","value":"(+1) 972-766-6900"}],"address":[{"use":"billing","type":"postal","line":["P.O. Box 660044"],"city":"Dallas","state":"TX","postalCode":"75266-0044","country":"USA"}]},"request":{"method":"PUT","url":"Organization/cdbef291-63be-449c-9fe7-221ac3848aef"}},{"fullUrl":"https://madie.cms.gov/Practitioner/33d341ce-1741-4761-ae31-47858eb47850","resource":{"resourceType":"Practitioner","id":"33d341ce-1741-4761-ae31-47858eb47850","meta":{"profile":["http://hl7.org/fhir/us/qicore/StructureDefinition/qicore-practitioner"]},"identifier":[{"system":"http://hl7.org/fhir/sid/us-npi","value":"123456"}],"name":[{"family":"Evil","prefix":["Dr"]}]},"request":{"method":"PUT","url":"Practitioner/33d341ce-1741-4761-ae31-47858eb47850"}},{"fullUrl":"https://madie.cms.gov/MeasureReport/8a730056-f8b4-47ac-8bc5-746050ae8388","resource":{"resourceType":"MeasureReport","id":"8a730056-f8b4-47ac-8bc5-746050ae8388","meta":{"profile":["http://hl7.org/fhir/us/cqfmeasures/StructureDefinition/test-case-cqfm"]},"contained":[{"resourceType":"Parameters","id":"8fdc565d-122f-4ece-911b-5739d2ac2a54-parameters","parameter":[{"name":"subject","valueString":"e216b280-8e64-4b45-97dc-98011f39205a"}]}],"extension":[{"url":"http://hl7.org/fhir/StructureDefinition/cqf-inputParameters","valueReference":{"reference":"#8fdc565d-122f-4ece-911b-5739d2ac2a54-parameters"}},{"url":"http://hl7.org/fhir/us/cqfmeasures/StructureDefinition/cqfm-testCaseDescription","valueMarkdown":"Patient has multiple qualifying encounters "}],"modifierExtension":[{"url":"http://hl7.org/fhir/us/cqfmeasures/StructureDefinition/cqfm-isTestCase","valueBoolean":true}],"status":"complete","type":"individual","measure":"https://madie.cms.gov/Measure/CMS143FHIRPOAGOpticNerveEvaluation","period":{"start":"2026-01-01","end":"2026-12-31"},"group":[{"id":"Group_1","population":[{"id":"InitialPopulation_1","code":{"coding":[{"system":"http://terminology.hl7.org/CodeSystem/measure-population","code":"initial-population","display":"Initial Population"}]},"count":1},{"id":"Denominator_1","code":{"coding":[{"system":"http://terminology.hl7.org/CodeSystem/measure-population","code":"denominator","display":"Denominator"}]},"count":1},{"id":"Numerator_1","code":{"coding":[{"system":"http://terminology.hl7.org/CodeSystem/measure-population","code":"numerator","display":"Numerator"}]},"count":0},{"id":"DenominatorException_1","code":{"coding":[{"system":"http://terminology.hl7.org/CodeSystem/measure-population","code":"denominator-exception","display":"Denominator Exception"}]},"count":0}],"measureScore":{"value":1.0}}],"evaluatedResource":[{"reference":"Patient/e216b280-8e64-4b45-97dc-98011f39205a"},{"reference":"Condition/1d6fe44e-a0c8-43b0-8291-91a6c783bc3d"},{"reference":"Encounter/185637cb-d618-42de-8fae-65350d6072c3"},{"reference":"Encounter/3844c897-5ea9-4e0c-a89b-4f873e57b0c5"},{"reference":"Encounter/b9882aa9-2a06-49bc-9c27-4a119bdb01ab"},{"reference":"Encounter/3465ec1c-7835-44fc-ab98-e2b0d7da1235"},{"reference":"Coverage/90387ff6-afc5-4fa8-bc7b-c24f5a363fcd"},{"reference":"Organization/cdbef291-63be-449c-9fe7-221ac3848aef"},{"reference":"Practitioner/33d341ce-1741-4761-ae31-47858eb47850"}]},"request":{"method":"PUT","url":"MeasureReport/8a730056-f8b4-47ac-8bc5-746050ae8388"}}]},"request":{"method":"PUT","url":"Bundle/64e774b92e9f5b621ea08698"}},{"resource":{"resourceType":"Practitioner","id":"33d341ce-1741-4761-ae31-47858eb47850","meta":{"profile":["http://hl7.org/fhir/us/qicore/StructureDefinition/qicore-practitioner"]},"identifier":[{"system":"http://hl7.org/fhir/sid/us-npi","value":"123456"}],"name":[{"family":"Evil","prefix":["Dr"]}]},"request":{"method":"PUT","url":"Practitioner/33d341ce-1741-4761-ae31-47858eb47850"}},{"resource":{"resourceType":"Organization","id":"cdbef291-63be-449c-9fe7-221ac3848aef","meta":{"profile":["http://hl7.org/fhir/us/qicore/StructureDefinition/qicore-organization"]},"identifier":[{"use":"temp","system":"urn:oid:2.16.840.1.113883.4.4","value":"21-3259825"}],"active":true,"type":[{"coding":[{"system":"http://terminology.hl7.org/CodeSystem/organization-type","code":"pay","display":"Payer"}]}],"name":"Blue Cross Blue Shield of Texas","telecom":[{"system":"phone","value":"(+1) 972-766-6900"}],"address":[{"use":"billing","type":"postal","line":["P.O. Box 660044"],"city":"Dallas","state":"TX","postalCode":"75266-0044","country":"USA"}]},"request":{"method":"PUT","url":"Organization/cdbef291-63be-449c-9fe7-221ac3848aef"}},{"resource":{"resourceType":"Coverage","id":"90387ff6-afc5-4fa8-bc7b-c24f5a363fcd","meta":{"profile":["http://hl7.org/fhir/us/qicore/StructureDefinition/qicore-coverage"]},"status":"active","beneficiary":{"reference":"Patient/64e774b92e9f5b621ea08698"},"payor":[{"reference":"Organization/cdbef291-63be-449c-9fe7-221ac3848aef"}]},"request":{"method":"PUT","url":"Coverage/90387ff6-afc5-4fa8-bc7b-c24f5a363fcd"}},{"resource":{"resourceType":"Encounter","id":"3465ec1c-7835-44fc-ab98-e2b0d7da1235","meta":{"profile":["http://hl7.org/fhir/us/qicore/StructureDefinition/qicore-encounter"]},"status":"finished","class":{"system":"http://terminology.hl7.org/CodeSystem/v3-ActCode","code":"AMB","display":"ambulatory","userSelected":true},"type":[{"coding":[{"system":"http://snomed.info/sct","version":"2021-09","code":"281036007","display":"Follow-up consultation (procedure)","userSelected":true}]}],"subject":{"reference":"Patient/64e774b92e9f5b621ea08698"},"period":{"start":"2025-02-01T08:00:00.000+00:00","end":"2025-02-01T08:15:00.000+00:00"},"length":{"value":0.0,"unit":"days"}},"request":{"method":"PUT","url":"Encounter/3465ec1c-7835-44fc-ab98-e2b0d7da1235"}},{"resource":{"resourceType":"Condition","id":"1d6fe44e-a0c8-43b0-8291-91a6c783bc3d","meta":{"profile":["http://hl7.org/fhir/us/qicore/StructureDefinition/qicore-condition-problems-health-concerns"]},"clinicalStatus":{"coding":[{"system":"http://terminology.hl7.org/CodeSystem/condition-clinical","code":"active","display":"active","userSelected":true}]},"category":[{"coding":[{"system":"http://terminology.hl7.org/CodeSystem/condition-category","code":"problem-list-item","display":"Problem List Item"}]}],"code":{"coding":[{"system":"http://snomed.info/sct","code":"111513000"}]},"subject":{"reference":"Patient/6109658e98086b538055b9e1"},"onsetDateTime":"2025-01-01T08:00:00.000+00:00"},"request":{"method":"PUT","url":"Condition/1d6fe44e-a0c8-43b0-8291-91a6c783bc3d"}},{"resource":{"resourceType":"Encounter","id":"3844c897-5ea9-4e0c-a89b-4f873e57b0c5","meta":{"profile":["http://hl7.org/fhir/us/qicore/StructureDefinition/qicore-encounter"]},"status":"finished","class":{"system":"http://terminology.hl7.org/CodeSystem/v3-ActCode","code":"AMB","display":"ambulatory","userSelected":true},"type":[{"coding":[{"system":"http://snomed.info/sct","version":"2021-09","code":"209099002","display":"History and physical examination with management of domiciliary or rest home patient (procedure)","userSelected":true}]}],"subject":{"reference":"Patient/64e774b92e9f5b621ea08698"},"period":{"start":"2026-01-28T08:00:00.000+00:00","end":"2026-01-28T08:15:00.000+00:00"},"length":{"value":0.0,"unit":"days"}},"request":{"method":"PUT","url":"Encounter/3844c897-5ea9-4e0c-a89b-4f873e57b0c5"}},{"resource":{"resourceType":"Encounter","id":"185637cb-d618-42de-8fae-65350d6072c3","meta":{"profile":["http://hl7.org/fhir/us/qicore/StructureDefinition/qicore-encounter"]},"status":"finished","class":{"system":"http://terminology.hl7.org/CodeSystem/v3-ActCode","code":"AMB","display":"ambulatory","userSelected":true},"type":[{"coding":[{"system":"http://www.ama-assn.org/go/cpt","code":"99201"},{"system":"http://www.ama-assn.org/go/cpt","code":"99204"}]}],"subject":{"reference":"Patient/6109658e98086b538055b9e1"},"period":{"start":"2025-01-25T14:30:00.000+00:00","end":"2025-01-25T14:30:00.000+00:00"},"length":{"value":0.0,"unit":"days"}},"request":{"method":"PUT","url":"Encounter/185637cb-d618-42de-8fae-65350d6072c3"}},{"resource":{"resourceType":"MeasureReport","id":"8a730056-f8b4-47ac-8bc5-746050ae8388","meta":{"profile":["http://hl7.org/fhir/us/cqfmeasures/StructureDefinition/test-case-cqfm"]},"contained":[{"resourceType":"Parameters","id":"8fdc565d-122f-4ece-911b-5739d2ac2a54-parameters","parameter":[{"name":"subject","valueString":"e216b280-8e64-4b45-97dc-98011f39205a"}]}],"extension":[{"url":"http://hl7.org/fhir/StructureDefinition/cqf-inputParameters","valueReference":{"reference":"#8fdc565d-122f-4ece-911b-5739d2ac2a54-parameters"}},{"url":"http://hl7.org/fhir/us/cqfmeasures/StructureDefinition/cqfm-testCaseDescription","valueMarkdown":"Patient has multiple qualifying encounters "}],"modifierExtension":[{"url":"http://hl7.org/fhir/us/cqfmeasures/StructureDefinition/cqfm-isTestCase","valueBoolean":true}],"status":"complete","type":"individual","measure":"https://madie.cms.gov/Measure/CMS143FHIRPOAGOpticNerveEvaluation","period":{"start":"2026-01-01","end":"2026-12-31"},"group":[{"id":"Group_1","population":[{"id":"InitialPopulation_1","code":{"coding":[{"system":"http://terminology.hl7.org/CodeSystem/measure-population","code":"initial-population","display":"Initial Population"}]},"count":1},{"id":"Denominator_1","code":{"coding":[{"system":"http://terminology.hl7.org/CodeSystem/measure-population","code":"denominator","display":"Denominator"}]},"count":1},{"id":"Numerator_1","code":{"coding":[{"system":"http://terminology.hl7.org/CodeSystem/measure-population","code":"numerator","display":"Numerator"}]},"count":0},{"id":"DenominatorException_1","code":{"coding":[{"system":"http://terminology.hl7.org/CodeSystem/measure-population","code":"denominator-exception","display":"Denominator Exception"}]},"count":0}],"measureScore":{"value":1.0}}],"evaluatedResource":[{"reference":"Patient/e216b280-8e64-4b45-97dc-98011f39205a"},{"reference":"Condition/1d6fe44e-a0c8-43b0-8291-91a6c783bc3d"},{"reference":"Encounter/185637cb-d618-42de-8fae-65350d6072c3"},{"reference":"Encounter/3844c897-5ea9-4e0c-a89b-4f873e57b0c5"},{"reference":"Encounter/b9882aa9-2a06-49bc-9c27-4a119bdb01ab"},{"reference":"Encounter/3465ec1c-7835-44fc-ab98-e2b0d7da1235"},{"reference":"Coverage/90387ff6-afc5-4fa8-bc7b-c24f5a363fcd"},{"reference":"Organization/cdbef291-63be-449c-9fe7-221ac3848aef"},{"reference":"Practitioner/33d341ce-1741-4761-ae31-47858eb47850"}]},"request":{"method":"PUT","url":"MeasureReport/8a730056-f8b4-47ac-8bc5-746050ae8388"}}]}