{"resourceType":"Bundle","id":"tests-b73f2b5d-98a4-4742-b2d6-979bd3e075a8-bundle","type":"transaction","entry":[{"fullUrl":"Condition/8a0c9baa-a44b-47cb-b4ff-9727a4febe33","resource":{"resourceType":"Condition","id":"8a0c9baa-a44b-47cb-b4ff-9727a4febe33","meta":{"profile":["http://hl7.org/fhir/us/qicore/StructureDefinition/qicore-condition-problems-health-concerns"]},"clinicalStatus":{"coding":[{"system":"http://terminology.hl7.org/CodeSystem/condition-clinical","code":"active","display":"active","userSelected":true}]},"category":[{"coding":[{"system":"http://terminology.hl7.org/CodeSystem/condition-category","code":"problem-list-item","display":"problem-list-item","userSelected":true}]}],"code":{"coding":[{"system":"http://hl7.org/fhir/sid/icd-10-cm","version":"2023","code":"H40.10X0"}]},"subject":{"reference":"Patient/b73f2b5d-98a4-4742-b2d6-979bd3e075a8"},"onsetDateTime":"2025-09-14T08:00:00.000+00:00"},"request":{"method":"PUT","url":"Condition/8a0c9baa-a44b-47cb-b4ff-9727a4febe33"}},{"fullUrl":"Encounter/72347f72-8ecc-4b83-a6c4-c6f6260f8f4d","resource":{"resourceType":"Encounter","id":"72347f72-8ecc-4b83-a6c4-c6f6260f8f4d","meta":{"profile":["http://hl7.org/fhir/us/qicore/StructureDefinition/qicore-encounter"]},"status":"finished","class":{"system":"http://terminology.hl7.org/CodeSystem/v3-ActCode","code":"AMB","display":"ambulatory","userSelected":true},"type":[{"coding":[{"system":"http://snomed.info/sct","version":"http://snomed.info/sct/731000124108/version/202303","code":"37894004"},{"system":"http://www.ama-assn.org/go/cpt","version":"2023","code":"99213","userSelected":true}]}],"subject":{"reference":"Patient/b73f2b5d-98a4-4742-b2d6-979bd3e075a8"},"period":{"start":"2026-12-31T23:45:00.000+00:00","end":"2026-12-31T23:59:00.000+00:00"}},"request":{"method":"PUT","url":"Encounter/72347f72-8ecc-4b83-a6c4-c6f6260f8f4d"}},{"fullUrl":"MeasureReport/08271063-3c55-42c6-83b6-6756e21e070e","resource":{"resourceType":"MeasureReport","id":"08271063-3c55-42c6-83b6-6756e21e070e","meta":{"profile":["http://hl7.org/fhir/us/cqfmeasures/StructureDefinition/test-case-cqfm"]},"contained":[{"resourceType":"Parameters","id":"e4459a87-a959-40b6-b031-470f0204e284-parameters","parameter":[{"name":"subject","valueString":"b73f2b5d-98a4-4742-b2d6-979bd3e075a8"}]}],"extension":[{"url":"http://hl7.org/fhir/StructureDefinition/cqf-inputParameters","valueReference":{"reference":"#e4459a87-a959-40b6-b031-470f0204e284-parameters"}},{"url":"http://hl7.org/fhir/us/cqfmeasures/StructureDefinition/cqfm-testCaseDescription","valueMarkdown":"Edge Test case with Qualifying Encounter such that period ends 1 minute before end of MP"}],"modifierExtension":[{"url":"http://hl7.org/fhir/us/cqfmeasures/StructureDefinition/cqfm-isTestCase","valueBoolean":true}],"status":"complete","type":"individual","measure":"https://madie.cms.gov/Measure/CMS143FHIRPOAGOpticNerveEvaluation","period":{"start":"2026-01-01","end":"2026-12-31"},"group":[{"id":"Group_1","population":[{"id":"InitialPopulation_1","code":{"coding":[{"system":"http://terminology.hl7.org/CodeSystem/measure-population","code":"initial-population","display":"Initial Population"}]},"count":1},{"id":"Denominator_1","code":{"coding":[{"system":"http://terminology.hl7.org/CodeSystem/measure-population","code":"denominator","display":"Denominator"}]},"count":1},{"id":"Numerator_1","code":{"coding":[{"system":"http://terminology.hl7.org/CodeSystem/measure-population","code":"numerator","display":"Numerator"}]},"count":0},{"id":"DenominatorException_1","code":{"coding":[{"system":"http://terminology.hl7.org/CodeSystem/measure-population","code":"denominator-exception","display":"Denominator Exception"}]},"count":0}],"measureScore":{"value":1.0}}],"evaluatedResource":[{"reference":"Patient/b73f2b5d-98a4-4742-b2d6-979bd3e075a8"},{"reference":"Encounter/72347f72-8ecc-4b83-a6c4-c6f6260f8f4d"},{"reference":"Condition/8a0c9baa-a44b-47cb-b4ff-9727a4febe33"}]},"request":{"method":"PUT","url":"MeasureReport/08271063-3c55-42c6-83b6-6756e21e070e"}},{"fullUrl":"Patient/b73f2b5d-98a4-4742-b2d6-979bd3e075a8","resource":{"resourceType":"Patient","id":"b73f2b5d-98a4-4742-b2d6-979bd3e075a8","meta":{"profile":["http://hl7.org/fhir/us/qicore/StructureDefinition/qicore-patient"]},"extension":[{"url":"http://hl7.org/fhir/us/core/StructureDefinition/us-core-race","extension":[{"url":"ombCategory","valueCoding":{"system":"urn:oid:2.16.840.1.113883.6.238","code":"2054-5","display":"Black or African American","userSelected":true}},{"url":"text","valueString":"Black or African American"}]},{"url":"http://hl7.org/fhir/us/core/StructureDefinition/us-core-ethnicity","extension":[{"url":"ombCategory","valueCoding":{"system":"urn:oid:2.16.840.1.113883.6.238","code":"2186-5","display":"Not Hispanic or Latino","userSelected":true}},{"url":"text","valueString":"Not Hispanic or Latino"}]}],"identifier":[{"type":{"coding":[{"system":"http://terminology.hl7.org/CodeSystem/v2-0203","code":"MR"}]},"system":"https://GoodHealthCare.healthit.gov/","value":"6109658e98086b538055b9e4"}],"active":true,"name":[{"use":"usual","family":"IPPass","given":["EncB4EndofMPEdge"]}],"gender":"male","birthDate":"2003-12-31"},"request":{"method":"PUT","url":"Patient/b73f2b5d-98a4-4742-b2d6-979bd3e075a8"}},{"fullUrl":"Bundle/6109658e98086b538055b9e4","resource":{"resourceType":"Bundle","id":"6109658e98086b538055b9e4","type":"transaction","entry":[{"fullUrl":"https://madie.cms.gov/Patient/b73f2b5d-98a4-4742-b2d6-979bd3e075a8","resource":{"resourceType":"Patient","id":"b73f2b5d-98a4-4742-b2d6-979bd3e075a8","meta":{"profile":["http://hl7.org/fhir/us/qicore/StructureDefinition/qicore-patient"]},"extension":[{"url":"http://hl7.org/fhir/us/core/StructureDefinition/us-core-race","extension":[{"url":"ombCategory","valueCoding":{"system":"urn:oid:2.16.840.1.113883.6.238","code":"2054-5","display":"Black or African American","userSelected":true}},{"url":"text","valueString":"Black or African American"}]},{"url":"http://hl7.org/fhir/us/core/StructureDefinition/us-core-ethnicity","extension":[{"url":"ombCategory","valueCoding":{"system":"urn:oid:2.16.840.1.113883.6.238","code":"2186-5","display":"Not Hispanic or Latino","userSelected":true}},{"url":"text","valueString":"Not Hispanic or Latino"}]}],"identifier":[{"type":{"coding":[{"system":"http://terminology.hl7.org/CodeSystem/v2-0203","code":"MR"}]},"system":"https://GoodHealthCare.healthit.gov/","value":"6109658e98086b538055b9e4"}],"active":true,"name":[{"use":"usual","family":"IPPass","given":["EncB4EndofMPEdge"]}],"gender":"male","birthDate":"2003-12-31"},"request":{"method":"PUT","url":"Patient/b73f2b5d-98a4-4742-b2d6-979bd3e075a8"}},{"fullUrl":"https://madie.cms.gov/Encounter/72347f72-8ecc-4b83-a6c4-c6f6260f8f4d","resource":{"resourceType":"Encounter","id":"72347f72-8ecc-4b83-a6c4-c6f6260f8f4d","meta":{"profile":["http://hl7.org/fhir/us/qicore/StructureDefinition/qicore-encounter"]},"status":"finished","class":{"system":"http://terminology.hl7.org/CodeSystem/v3-ActCode","code":"AMB","display":"ambulatory","userSelected":true},"type":[{"coding":[{"system":"http://snomed.info/sct","version":"http://snomed.info/sct/731000124108/version/202303","code":"37894004"},{"system":"http://www.ama-assn.org/go/cpt","version":"2023","code":"99213","userSelected":true}]}],"subject":{"reference":"Patient/b73f2b5d-98a4-4742-b2d6-979bd3e075a8"},"period":{"start":"2026-12-31T23:45:00.000+00:00","end":"2026-12-31T23:59:00.000+00:00"}},"request":{"method":"PUT","url":"Encounter/72347f72-8ecc-4b83-a6c4-c6f6260f8f4d"}},{"fullUrl":"https://madie.cms.gov/Condition/8a0c9baa-a44b-47cb-b4ff-9727a4febe33","resource":{"resourceType":"Condition","id":"8a0c9baa-a44b-47cb-b4ff-9727a4febe33","meta":{"profile":["http://hl7.org/fhir/us/qicore/StructureDefinition/qicore-condition-problems-health-concerns"]},"clinicalStatus":{"coding":[{"system":"http://terminology.hl7.org/CodeSystem/condition-clinical","code":"active","display":"active","userSelected":true}]},"category":[{"coding":[{"system":"http://terminology.hl7.org/CodeSystem/condition-category","code":"problem-list-item","display":"problem-list-item","userSelected":true}]}],"code":{"coding":[{"system":"http://hl7.org/fhir/sid/icd-10-cm","version":"2023","code":"H40.10X0"}]},"subject":{"reference":"Patient/b73f2b5d-98a4-4742-b2d6-979bd3e075a8"},"onsetDateTime":"2025-09-14T08:00:00.000+00:00"},"request":{"method":"PUT","url":"Condition/8a0c9baa-a44b-47cb-b4ff-9727a4febe33"}},{"fullUrl":"https://madie.cms.gov/MeasureReport/08271063-3c55-42c6-83b6-6756e21e070e","resource":{"resourceType":"MeasureReport","id":"08271063-3c55-42c6-83b6-6756e21e070e","meta":{"profile":["http://hl7.org/fhir/us/cqfmeasures/StructureDefinition/test-case-cqfm"]},"contained":[{"resourceType":"Parameters","id":"e4459a87-a959-40b6-b031-470f0204e284-parameters","parameter":[{"name":"subject","valueString":"b73f2b5d-98a4-4742-b2d6-979bd3e075a8"}]}],"extension":[{"url":"http://hl7.org/fhir/StructureDefinition/cqf-inputParameters","valueReference":{"reference":"#e4459a87-a959-40b6-b031-470f0204e284-parameters"}},{"url":"http://hl7.org/fhir/us/cqfmeasures/StructureDefinition/cqfm-testCaseDescription","valueMarkdown":"Edge Test case with Qualifying Encounter such that period ends 1 minute before end of MP"}],"modifierExtension":[{"url":"http://hl7.org/fhir/us/cqfmeasures/StructureDefinition/cqfm-isTestCase","valueBoolean":true}],"status":"complete","type":"individual","measure":"https://madie.cms.gov/Measure/CMS143FHIRPOAGOpticNerveEvaluation","period":{"start":"2026-01-01","end":"2026-12-31"},"group":[{"id":"Group_1","population":[{"id":"InitialPopulation_1","code":{"coding":[{"system":"http://terminology.hl7.org/CodeSystem/measure-population","code":"initial-population","display":"Initial Population"}]},"count":1},{"id":"Denominator_1","code":{"coding":[{"system":"http://terminology.hl7.org/CodeSystem/measure-population","code":"denominator","display":"Denominator"}]},"count":1},{"id":"Numerator_1","code":{"coding":[{"system":"http://terminology.hl7.org/CodeSystem/measure-population","code":"numerator","display":"Numerator"}]},"count":0},{"id":"DenominatorException_1","code":{"coding":[{"system":"http://terminology.hl7.org/CodeSystem/measure-population","code":"denominator-exception","display":"Denominator Exception"}]},"count":0}],"measureScore":{"value":1.0}}],"evaluatedResource":[{"reference":"Patient/b73f2b5d-98a4-4742-b2d6-979bd3e075a8"},{"reference":"Encounter/72347f72-8ecc-4b83-a6c4-c6f6260f8f4d"},{"reference":"Condition/8a0c9baa-a44b-47cb-b4ff-9727a4febe33"}]},"request":{"method":"PUT","url":"MeasureReport/08271063-3c55-42c6-83b6-6756e21e070e"}}]},"request":{"method":"PUT","url":"Bundle/6109658e98086b538055b9e4"}}]}