{"resourceType":"Bundle","id":"tests-e8c4626d-c2e1-45df-b073-031784e03f55-bundle","type":"transaction","entry":[{"fullUrl":"MeasureReport/4ef4946a-d76e-4b3f-8732-8331632a5270","resource":{"resourceType":"MeasureReport","id":"4ef4946a-d76e-4b3f-8732-8331632a5270","meta":{"profile":["http://hl7.org/fhir/us/cqfmeasures/StructureDefinition/test-case-cqfm"]},"contained":[{"resourceType":"Parameters","id":"8d2e1cdb-4b28-434d-863d-6dc9d74f12c3-parameters","parameter":[{"name":"subject","valueString":"e8c4626d-c2e1-45df-b073-031784e03f55"}]}],"extension":[{"url":"http://hl7.org/fhir/StructureDefinition/cqf-inputParameters","valueReference":{"reference":"#8d2e1cdb-4b28-434d-863d-6dc9d74f12c3-parameters"}},{"url":"http://hl7.org/fhir/us/cqfmeasures/StructureDefinition/cqfm-testCaseDescription","valueMarkdown":"Patient with Glaucoma diagnosis which has verification status of unconfirmed and does not meet initial population criteria therefore"}],"modifierExtension":[{"url":"http://hl7.org/fhir/us/cqfmeasures/StructureDefinition/cqfm-isTestCase","valueBoolean":true}],"status":"complete","type":"individual","measure":"https://madie.cms.gov/Measure/CMS143FHIRPOAGOpticNerveEvaluation","period":{"start":"2026-01-01","end":"2026-12-31"},"group":[{"id":"Group_1","population":[{"id":"InitialPopulation_1","code":{"coding":[{"system":"http://terminology.hl7.org/CodeSystem/measure-population","code":"initial-population","display":"Initial Population"}]},"count":0},{"id":"Denominator_1","code":{"coding":[{"system":"http://terminology.hl7.org/CodeSystem/measure-population","code":"denominator","display":"Denominator"}]},"count":0},{"id":"Numerator_1","code":{"coding":[{"system":"http://terminology.hl7.org/CodeSystem/measure-population","code":"numerator","display":"Numerator"}]},"count":0},{"id":"DenominatorException_1","code":{"coding":[{"system":"http://terminology.hl7.org/CodeSystem/measure-population","code":"denominator-exception","display":"Denominator Exception"}]},"count":0}],"measureScore":{"value":1.0}}],"evaluatedResource":[{"reference":"Patient/e8c4626d-c2e1-45df-b073-031784e03f55"},{"reference":"Encounter/ecdbc018-bce7-4fe3-8ca9-6602786e2e77"},{"reference":"Condition/e6c61bfe-cb92-4e3e-be1a-eedd64f26b09"}]},"request":{"method":"PUT","url":"MeasureReport/4ef4946a-d76e-4b3f-8732-8331632a5270"}},{"fullUrl":"Bundle/6109658e98086b538055b9e4","resource":{"resourceType":"Bundle","id":"6109658e98086b538055b9e4","type":"transaction","entry":[{"fullUrl":"https://madie.cms.gov/Patient/e8c4626d-c2e1-45df-b073-031784e03f55","resource":{"resourceType":"Patient","id":"e8c4626d-c2e1-45df-b073-031784e03f55","meta":{"profile":["http://hl7.org/fhir/us/qicore/StructureDefinition/qicore-patient"]},"extension":[{"url":"http://hl7.org/fhir/us/core/StructureDefinition/us-core-race","extension":[{"url":"ombCategory","valueCoding":{"system":"urn:oid:2.16.840.1.113883.6.238","code":"1002-5","display":"American Indian or Alaska Native","userSelected":true}},{"url":"text","valueString":"American Indian or Alaska Native"}]},{"url":"http://hl7.org/fhir/us/core/StructureDefinition/us-core-ethnicity","extension":[{"url":"ombCategory","valueCoding":{"system":"urn:oid:2.16.840.1.113883.6.238","code":"2186-5","display":"Not Hispanic or Latino","userSelected":true}},{"url":"text","valueString":"Not Hispanic or Latino"}]}],"identifier":[{"type":{"coding":[{"system":"http://terminology.hl7.org/CodeSystem/v2-0203","code":"MR"}]},"system":"https://GoodHealthCare.com/","value":"6109658e98086b538055b9e4"}],"active":true,"name":[{"use":"usual","family":"IPPFail","given":["GlaucomaDxRefuted"]}],"gender":"male","birthDate":"1992-12-31"},"request":{"method":"PUT","url":"Patient/e8c4626d-c2e1-45df-b073-031784e03f55"}},{"fullUrl":"https://madie.cms.gov/Encounter/ecdbc018-bce7-4fe3-8ca9-6602786e2e77","resource":{"resourceType":"Encounter","id":"ecdbc018-bce7-4fe3-8ca9-6602786e2e77","meta":{"profile":["http://hl7.org/fhir/us/qicore/StructureDefinition/qicore-encounter"]},"status":"finished","class":{"system":"http://terminology.hl7.org/CodeSystem/v3-ActCode","code":"AMB","display":"ambulatory","userSelected":true},"type":[{"coding":[{"system":"http://snomed.info/sct","version":"http://snomed.info/sct/731000124108/version/202303","code":"37894004"},{"system":"http://www.ama-assn.org/go/cpt","version":"2023","code":"99213","userSelected":true}]}],"subject":{"reference":"Patient/e8c4626d-c2e1-45df-b073-031784e03f55"},"period":{"start":"2026-03-05T08:00:00.000+00:00","end":"2026-03-05T08:30:00.000+00:00"}},"request":{"method":"PUT","url":"Encounter/ecdbc018-bce7-4fe3-8ca9-6602786e2e77"}},{"fullUrl":"https://madie.cms.gov/Condition/e6c61bfe-cb92-4e3e-be1a-eedd64f26b09","resource":{"resourceType":"Condition","id":"e6c61bfe-cb92-4e3e-be1a-eedd64f26b09","meta":{"profile":["http://hl7.org/fhir/us/qicore/StructureDefinition/qicore-condition-problems-health-concerns"]},"clinicalStatus":{"coding":[{"system":"http://terminology.hl7.org/CodeSystem/condition-clinical","code":"inactive","display":"resolved"}]},"verificationStatus":{"coding":[{"system":"http://terminology.hl7.org/CodeSystem/condition-ver-status","code":"unconfirmed","display":"Unconfirmed"}],"text":"Unconfirmed"},"category":[{"coding":[{"system":"http://terminology.hl7.org/CodeSystem/condition-category","code":"problem-list-item","display":"problem-list-item","userSelected":true}]}],"code":{"coding":[{"system":"http://snomed.info/sct","version":"http://snomed.info/sct/731000124108/version/20230301","code":"15633281000119103","display":"Bilateral primary open angle glaucoma (disorder)"}]},"subject":{"reference":"Patient/e8c4626d-c2e1-45df-b073-031784e03f55"},"onsetDateTime":"2025-01-01T08:00:00.000+00:00"},"request":{"method":"PUT","url":"Condition/e6c61bfe-cb92-4e3e-be1a-eedd64f26b09"}},{"fullUrl":"https://madie.cms.gov/MeasureReport/4ef4946a-d76e-4b3f-8732-8331632a5270","resource":{"resourceType":"MeasureReport","id":"4ef4946a-d76e-4b3f-8732-8331632a5270","meta":{"profile":["http://hl7.org/fhir/us/cqfmeasures/StructureDefinition/test-case-cqfm"]},"contained":[{"resourceType":"Parameters","id":"8d2e1cdb-4b28-434d-863d-6dc9d74f12c3-parameters","parameter":[{"name":"subject","valueString":"e8c4626d-c2e1-45df-b073-031784e03f55"}]}],"extension":[{"url":"http://hl7.org/fhir/StructureDefinition/cqf-inputParameters","valueReference":{"reference":"#8d2e1cdb-4b28-434d-863d-6dc9d74f12c3-parameters"}},{"url":"http://hl7.org/fhir/us/cqfmeasures/StructureDefinition/cqfm-testCaseDescription","valueMarkdown":"Patient with Glaucoma diagnosis which has verification status of unconfirmed and does not meet initial population criteria therefore"}],"modifierExtension":[{"url":"http://hl7.org/fhir/us/cqfmeasures/StructureDefinition/cqfm-isTestCase","valueBoolean":true}],"status":"complete","type":"individual","measure":"https://madie.cms.gov/Measure/CMS143FHIRPOAGOpticNerveEvaluation","period":{"start":"2026-01-01","end":"2026-12-31"},"group":[{"id":"Group_1","population":[{"id":"InitialPopulation_1","code":{"coding":[{"system":"http://terminology.hl7.org/CodeSystem/measure-population","code":"initial-population","display":"Initial Population"}]},"count":0},{"id":"Denominator_1","code":{"coding":[{"system":"http://terminology.hl7.org/CodeSystem/measure-population","code":"denominator","display":"Denominator"}]},"count":0},{"id":"Numerator_1","code":{"coding":[{"system":"http://terminology.hl7.org/CodeSystem/measure-population","code":"numerator","display":"Numerator"}]},"count":0},{"id":"DenominatorException_1","code":{"coding":[{"system":"http://terminology.hl7.org/CodeSystem/measure-population","code":"denominator-exception","display":"Denominator Exception"}]},"count":0}],"measureScore":{"value":1.0}}],"evaluatedResource":[{"reference":"Patient/e8c4626d-c2e1-45df-b073-031784e03f55"},{"reference":"Encounter/ecdbc018-bce7-4fe3-8ca9-6602786e2e77"},{"reference":"Condition/e6c61bfe-cb92-4e3e-be1a-eedd64f26b09"}]},"request":{"method":"PUT","url":"MeasureReport/4ef4946a-d76e-4b3f-8732-8331632a5270"}}]},"request":{"method":"PUT","url":"Bundle/6109658e98086b538055b9e4"}},{"fullUrl":"Encounter/ecdbc018-bce7-4fe3-8ca9-6602786e2e77","resource":{"resourceType":"Encounter","id":"ecdbc018-bce7-4fe3-8ca9-6602786e2e77","meta":{"profile":["http://hl7.org/fhir/us/qicore/StructureDefinition/qicore-encounter"]},"status":"finished","class":{"system":"http://terminology.hl7.org/CodeSystem/v3-ActCode","code":"AMB","display":"ambulatory","userSelected":true},"type":[{"coding":[{"system":"http://snomed.info/sct","version":"http://snomed.info/sct/731000124108/version/202303","code":"37894004"},{"system":"http://www.ama-assn.org/go/cpt","version":"2023","code":"99213","userSelected":true}]}],"subject":{"reference":"Patient/e8c4626d-c2e1-45df-b073-031784e03f55"},"period":{"start":"2026-03-05T08:00:00.000+00:00","end":"2026-03-05T08:30:00.000+00:00"}},"request":{"method":"PUT","url":"Encounter/ecdbc018-bce7-4fe3-8ca9-6602786e2e77"}},{"fullUrl":"Condition/e6c61bfe-cb92-4e3e-be1a-eedd64f26b09","resource":{"resourceType":"Condition","id":"e6c61bfe-cb92-4e3e-be1a-eedd64f26b09","meta":{"profile":["http://hl7.org/fhir/us/qicore/StructureDefinition/qicore-condition-problems-health-concerns"]},"clinicalStatus":{"coding":[{"system":"http://terminology.hl7.org/CodeSystem/condition-clinical","code":"inactive","display":"resolved"}]},"verificationStatus":{"coding":[{"system":"http://terminology.hl7.org/CodeSystem/condition-ver-status","code":"unconfirmed","display":"Unconfirmed"}],"text":"Unconfirmed"},"category":[{"coding":[{"system":"http://terminology.hl7.org/CodeSystem/condition-category","code":"problem-list-item","display":"problem-list-item","userSelected":true}]}],"code":{"coding":[{"system":"http://snomed.info/sct","version":"http://snomed.info/sct/731000124108/version/20230301","code":"15633281000119103","display":"Bilateral primary open angle glaucoma (disorder)"}]},"subject":{"reference":"Patient/e8c4626d-c2e1-45df-b073-031784e03f55"},"onsetDateTime":"2025-01-01T08:00:00.000+00:00"},"request":{"method":"PUT","url":"Condition/e6c61bfe-cb92-4e3e-be1a-eedd64f26b09"}},{"fullUrl":"Patient/e8c4626d-c2e1-45df-b073-031784e03f55","resource":{"resourceType":"Patient","id":"e8c4626d-c2e1-45df-b073-031784e03f55","meta":{"profile":["http://hl7.org/fhir/us/qicore/StructureDefinition/qicore-patient"]},"extension":[{"url":"http://hl7.org/fhir/us/core/StructureDefinition/us-core-race","extension":[{"url":"ombCategory","valueCoding":{"system":"urn:oid:2.16.840.1.113883.6.238","code":"1002-5","display":"American Indian or Alaska Native","userSelected":true}},{"url":"text","valueString":"American Indian or Alaska Native"}]},{"url":"http://hl7.org/fhir/us/core/StructureDefinition/us-core-ethnicity","extension":[{"url":"ombCategory","valueCoding":{"system":"urn:oid:2.16.840.1.113883.6.238","code":"2186-5","display":"Not Hispanic or Latino","userSelected":true}},{"url":"text","valueString":"Not Hispanic or Latino"}]}],"identifier":[{"type":{"coding":[{"system":"http://terminology.hl7.org/CodeSystem/v2-0203","code":"MR"}]},"system":"https://GoodHealthCare.com/","value":"6109658e98086b538055b9e4"}],"active":true,"name":[{"use":"usual","family":"IPPFail","given":["GlaucomaDxRefuted"]}],"gender":"male","birthDate":"1992-12-31"},"request":{"method":"PUT","url":"Patient/e8c4626d-c2e1-45df-b073-031784e03f55"}}]}