{
  "resourceType": "Bundle",
  "id": "60f82c2e98086b570510e28c",
  "type": "transaction",
  "entry": [ {
    "fullUrl": "https://madie.cms.gov/Patient/e0286677-4610-4138-b9fe-3ed648ed45f8",
    "resource": {
      "resourceType": "Patient",
      "id": "e0286677-4610-4138-b9fe-3ed648ed45f8",
      "meta": {
        "profile": [ "http://hl7.org/fhir/us/qicore/StructureDefinition/qicore-patient" ]
      },
      "text": {
        "status": "generated",
        "div": "<div xmlns=\"http://www.w3.org/1999/xhtml\"><div class=\"hapiHeaderText\">CustomCode <b>NUMERFAIL </b></div><table class=\"hapiPropertyTable\"><tbody><tr><td>Identifier</td><td>b369a681d6ea0d0e36f55c4f2fb13e64</td></tr><tr><td>Date of birth</td><td><span>21 August 1994</span></td></tr></tbody></table></div>"
      },
      "extension": [ {
        "url": "http://hl7.org/fhir/us/core/StructureDefinition/us-core-race",
        "extension": [ {
          "url": "ombCategory",
          "valueCoding": {
            "system": "urn:oid:2.16.840.1.113883.6.238",
            "code": "1002-5",
            "display": "American Indian or Alaska Native",
            "userSelected": true
          }
        }, {
          "url": "text",
          "valueString": "American Indian or Alaska Native"
        } ]
      }, {
        "url": "http://hl7.org/fhir/us/core/StructureDefinition/us-core-ethnicity",
        "extension": [ {
          "url": "ombCategory",
          "valueCoding": {
            "system": "urn:oid:2.16.840.1.113883.6.238",
            "code": "2186-5",
            "display": "Not Hispanic or Latino",
            "userSelected": true
          }
        }, {
          "url": "text",
          "valueString": "Not Hispanic or Latino"
        } ]
      } ],
      "identifier": [ {
        "type": {
          "coding": [ {
            "system": "http://terminology.hl7.org/CodeSystem/v2-0203",
            "code": "MR"
          } ]
        },
        "system": "https://bonnie-fhir.healthit.gov/",
        "value": "60f82c2e98086b570510e28c"
      } ],
      "active": true,
      "name": [ {
        "use": "usual",
        "family": "NUMERFail",
        "given": [ "CustomCode" ]
      } ],
      "gender": "male",
      "birthDate": "1995-08-21"
    },
    "request": {
      "method": "PUT",
      "url": "Patient/e0286677-4610-4138-b9fe-3ed648ed45f8"
    }
  }, {
    "fullUrl": "https://madie.cms.gov/Encounter/89d42d28-3a15-48b2-9c29-d4a2f0b0ea44",
    "resource": {
      "resourceType": "Encounter",
      "id": "89d42d28-3a15-48b2-9c29-d4a2f0b0ea44",
      "meta": {
        "profile": [ "http://hl7.org/fhir/us/qicore/StructureDefinition/qicore-encounter" ]
      },
      "status": "finished",
      "class": {
        "system": "http://terminology.hl7.org/CodeSystem/v3-ActCode",
        "code": "IMP",
        "display": "inpatient encounter"
      },
      "type": [ {
        "coding": [ {
          "system": "http://snomed.info/sct",
          "code": "32485007"
        } ]
      } ],
      "subject": {
        "reference": "Patient/e0286677-4610-4138-b9fe-3ed648ed45f8"
      },
      "period": {
        "start": "2026-10-10T09:30:00Z",
        "end": "2026-10-12T10:30:00.000+00:00"
      },
      "length": {
        "value": 2,
        "unit": "days"
      },
      "reasonReference": [ {
        "reference": "Condition/7dce3569-0541-47c3-a52a-6861fe5d3d23"
      } ]
    },
    "request": {
      "method": "PUT",
      "url": "Encounter/89d42d28-3a15-48b2-9c29-d4a2f0b0ea44"
    }
  }, {
    "fullUrl": "https://madie.cms.gov/claim/5ca62962b8484628b8de1ec5",
    "resource": {
      "resourceType": "Claim",
      "id": "5ca62962b8484628b8de1ec5",
      "meta": {
        "profile": [ "http://hl7.org/fhir/us/qicore/StructureDefinition/qicore-claim" ]
      },
      "status": "active",
      "type": {
        "coding": [ {
          "system": "http://terminology.hl7.org/CodeSystem/claim-type",
          "code": "institutional"
        } ]
      },
      "use": "claim",
      "patient": {
        "reference": "Patient/d170a0a8-b5ad-4303-b6df-e304dd5f92ad"
      },
      "created": "2026-12-01",
      "provider": {
        "reference": "Practitioner/ce28d7b6-872b-4e3c-bcea-e7a2c68b0a23"
      },
      "priority": {
        "coding": [ {
          "system": "http://terminology.hl7.org/CodeSystem/processpriority",
          "code": "normal"
        } ]
      },
      "diagnosis": [ {
        "sequence": 1,
        "diagnosisCodeableConcept": {
          "coding": [ {
            "system": "http://hl7.org/fhir/sid/icd-10-cm",
            "code": "I63.00"
          } ]
        },
        "type": [ {
          "coding": [ {
            "system": "http://terminology.hl7.org/CodeSystem/ex-diagnosistype",
            "code": "principal"
          } ]
        } ]
      } ],
      "insurance": [ {
        "sequence": 1,
        "focal": true,
        "coverage": {
          "reference": "Coverage/5fa041661c76ba66d9959367"
        }
      } ],
      "item": [ {
        "sequence": 1,
        "diagnosisSequence": [ 1 ],
        "productOrService": {
          "coding": [ {
            "system": "http://terminology.hl7.org/CodeSystem/ex-USCLS",
            "code": "99555"
          } ]
        },
        "encounter": [ {
          "reference": "Encounter/89d42d28-3a15-48b2-9c29-d4a2f0b0ea44"
        } ]
      } ]
    },
    "request": {
      "method": "PUT",
      "url": "Claim/5ca62962b8484628b8de1ec5"
    }
  }, {
    "fullUrl": "https://madie.cms.gov/MedicationAdministration/1e87e01e-5d95-4187-9c2b-1f3eb92b88f8",
    "resource": {
      "resourceType": "MedicationAdministration",
      "id": "1e87e01e-5d95-4187-9c2b-1f3eb92b88f8",
      "meta": {
        "profile": [ "http://hl7.org/fhir/us/qicore/StructureDefinition/qicore-medicationadministration" ]
      },
      "status": "completed",
      "medicationCodeableConcept": {
        "coding": [ {
          "system": "http://www.nlm.nih.gov/research/umls/rxnorm",
          "code": "1006608"
        } ]
      },
      "subject": {
        "reference": "Patient/e0286677-4610-4138-b9fe-3ed648ed45f8"
      },
      "effectivePeriod": {
        "start": "2026-10-10T10:00:00Z",
        "end": "2026-10-10T11:15:00.000+00:00"
      }
    },
    "request": {
      "method": "PUT",
      "url": "MedicationAdministration/1e87e01e-5d95-4187-9c2b-1f3eb92b88f8"
    }
  }, {
    "fullUrl": "https://madie.cms.gov/Coverage/63942c9a-99a9-45cb-af78-f65cc90c6dac",
    "resource": {
      "resourceType": "Coverage",
      "id": "63942c9a-99a9-45cb-af78-f65cc90c6dac",
      "status": "active",
      "subscriberId": "523435",
      "beneficiary": {
        "reference": "Patient/e0286677-4610-4138-b9fe-3ed648ed45f8"
      },
      "relationship": {
        "coding": [ {
          "system": "http://terminology.hl7.org/CodeSystem/subscriber-relationship",
          "code": "self"
        } ]
      },
      "period": {
        "start": "1995-08-21T08:00:00Z"
      },
      "payor": [ {
        "reference": "Organization/2e5baee6-fa7e-4e1f-952a-d783822a9e77"
      } ]
    },
    "request": {
      "method": "PUT",
      "url": "Coverage/63942c9a-99a9-45cb-af78-f65cc90c6dac"
    }
  }, {
    "fullUrl": "https://madie.cms.gov/Condition/7dce3569-0541-47c3-a52a-6861fe5d3d23",
    "resource": {
      "resourceType": "Condition",
      "id": "7dce3569-0541-47c3-a52a-6861fe5d3d23",
      "meta": {
        "profile": [ "http://hl7.org/fhir/us/qicore/StructureDefinition/qicore-condition-problems-health-concerns" ]
      },
      "clinicalStatus": {
        "coding": [ {
          "system": "http://terminology.hl7.org/CodeSystem/condition-clinical",
          "code": "active"
        } ]
      },
      "verificationStatus": {
        "coding": [ {
          "system": "http://terminology.hl7.org/CodeSystem/condition-ver-status",
          "code": "confirmed"
        } ]
      },
      "category": [ {
        "coding": [ {
          "system": "http://terminology.hl7.org/CodeSystem/condition-category",
          "code": "encounter-diagnosis",
          "display": "Encounter Diagnosis"
        } ]
      } ],
      "code": {
        "coding": [ {
          "system": "http://snomed.info/sct",
          "version": "2020-09",
          "code": "111297002",
          "display": "Nonparalytic stroke (disorder)",
          "userSelected": true
        } ]
      },
      "subject": {
        "reference": "Patient/e0286677-4610-4138-b9fe-3ed648ed45f8"
      },
      "recordedDate": "2026-08-16T08:00:00Z"
    },
    "request": {
      "method": "PUT",
      "url": "Condition/7dce3569-0541-47c3-a52a-6861fe5d3d23"
    }
  }, {
    "fullUrl": "https://madie.cms.gov/Organization/2e5baee6-fa7e-4e1f-952a-d783822a9e77",
    "resource": {
      "resourceType": "Organization",
      "id": "2e5baee6-fa7e-4e1f-952a-d783822a9e77",
      "meta": {
        "profile": [ "http://hl7.org/fhir/us/qicore/StructureDefinition/qicore-organization" ]
      },
      "identifier": [ {
        "use": "temp",
        "system": "urn:oid:2.16.840.1.113883.4.4",
        "value": "21-3259825"
      } ],
      "active": true,
      "type": [ {
        "coding": [ {
          "system": "http://terminology.hl7.org/CodeSystem/organization-type",
          "code": "pay",
          "display": "Payer"
        } ]
      } ],
      "name": "Blue Cross Blue Shield of Texas",
      "telecom": [ {
        "system": "phone",
        "value": "(+1) 972-766-6900"
      } ],
      "address": [ {
        "use": "billing",
        "type": "postal",
        "line": [ "P.O. Box 660044" ],
        "city": "Dallas",
        "state": "TX",
        "postalCode": "75266-0044",
        "country": "USA"
      } ]
    },
    "request": {
      "method": "PUT",
      "url": "Organization/2e5baee6-fa7e-4e1f-952a-d783822a9e77"
    }
  }, {
    "fullUrl": "https://madie.cms.gov/Practitioner/ce28d7b6-872b-4e3c-bcea-e7a2c68b0a23",
    "resource": {
      "resourceType": "Practitioner",
      "id": "ce28d7b6-872b-4e3c-bcea-e7a2c68b0a23",
      "meta": {
        "profile": [ "http://hl7.org/fhir/us/qicore/StructureDefinition/qicore-practitioner" ]
      },
      "identifier": [ {
        "system": "http://hl7.org/fhir/sid/us-npi",
        "value": "9999999896"
      } ],
      "name": [ {
        "family": "Evil",
        "prefix": [ "Dr" ]
      } ]
    },
    "request": {
      "method": "PUT",
      "url": "Practitioner/ce28d7b6-872b-4e3c-bcea-e7a2c68b0a23"
    }
  }, {
    "fullUrl": "https://madie.cms.gov/MeasureReport/ea44397c-401a-4fd7-be42-c55377df9e06",
    "resource": {
      "resourceType": "MeasureReport",
      "id": "ea44397c-401a-4fd7-be42-c55377df9e06",
      "meta": {
        "profile": [ "http://hl7.org/fhir/us/cqfmeasures/StructureDefinition/test-case-cqfm" ]
      },
      "contained": [ {
        "resourceType": "Parameters",
        "id": "a2b1efc4-6fe6-4e40-a3c2-d649abc16395-parameters",
        "parameter": [ {
          "name": "subject",
          "valueString": "e0286677-4610-4138-b9fe-3ed648ed45f8"
        } ]
      } ],
      "extension": [ {
        "url": "http://hl7.org/fhir/StructureDefinition/cqf-inputParameters",
        "valueReference": {
          "reference": "#a2b1efc4-6fe6-4e40-a3c2-d649abc16395-parameters"
        }
      }, {
        "url": "http://hl7.org/fhir/us/cqfmeasures/StructureDefinition/cqfm-testCaseDescription",
        "valueMarkdown": "Patient is 18 with Non-Elective Inpatient Encounter (LOS 120 days) with principal diagnosis of ischemic stroke ends during MP received medication not found in antithrombotic value set during IP encounter\n"
      } ],
      "modifierExtension": [ {
        "url": "http://hl7.org/fhir/us/cqfmeasures/StructureDefinition/cqfm-isTestCase",
        "valueBoolean": true
      } ],
      "status": "complete",
      "type": "individual",
      "measure": "https://madie.cms.gov/Measure/CMS72FHIRSTKAntithromboticDay2",
      "period": {
        "start": "2026-01-01",
        "end": "2026-12-31"
      },
      "group": [ {
        "id": "Group_1",
        "population": [ {
          "id": "InitialPopulation_1",
          "code": {
            "coding": [ {
              "system": "http://terminology.hl7.org/CodeSystem/measure-population",
              "code": "initial-population",
              "display": "Initial Population"
            } ]
          },
          "count": 1
        }, {
          "id": "Denominator_1",
          "code": {
            "coding": [ {
              "system": "http://terminology.hl7.org/CodeSystem/measure-population",
              "code": "denominator",
              "display": "Denominator"
            } ]
          },
          "count": 1
        }, {
          "id": "DenominatorExclusion_1",
          "code": {
            "coding": [ {
              "system": "http://terminology.hl7.org/CodeSystem/measure-population",
              "code": "denominator-exclusion",
              "display": "Denominator Exclusion"
            } ]
          },
          "count": 0
        }, {
          "id": "Numerator_1",
          "code": {
            "coding": [ {
              "system": "http://terminology.hl7.org/CodeSystem/measure-population",
              "code": "numerator",
              "display": "Numerator"
            } ]
          },
          "count": 0
        }, {
          "id": "DenominatorException_1",
          "code": {
            "coding": [ {
              "system": "http://terminology.hl7.org/CodeSystem/measure-population",
              "code": "denominator-exception",
              "display": "Denominator Exception"
            } ]
          },
          "count": 0
        } ],
        "measureScore": {
          "value": 0.0
        }
      } ],
      "evaluatedResource": [ {
        "reference": "Patient/e0286677-4610-4138-b9fe-3ed648ed45f8"
      }, {
        "reference": "Encounter/89d42d28-3a15-48b2-9c29-d4a2f0b0ea44"
      }, {
        "reference": "Claim/5ca62962b8484628b8de1ec5"
      }, {
        "reference": "MedicationAdministration/1e87e01e-5d95-4187-9c2b-1f3eb92b88f8"
      }, {
        "reference": "Coverage/63942c9a-99a9-45cb-af78-f65cc90c6dac"
      }, {
        "reference": "Condition/7dce3569-0541-47c3-a52a-6861fe5d3d23"
      }, {
        "reference": "Organization/2e5baee6-fa7e-4e1f-952a-d783822a9e77"
      }, {
        "reference": "Practitioner/ce28d7b6-872b-4e3c-bcea-e7a2c68b0a23"
      } ]
    },
    "request": {
      "method": "PUT",
      "url": "MeasureReport/ea44397c-401a-4fd7-be42-c55377df9e06"
    }
  } ]
}