{
  "resourceType": "Bundle",
  "id": "612e6e9702c62a011f2eefa5",
  "type": "transaction",
  "entry": [ {
    "fullUrl": "https://madie.cms.gov/Patient/9ac19ff5-34ba-47bc-babe-3073ddd972a7",
    "resource": {
      "resourceType": "Patient",
      "id": "9ac19ff5-34ba-47bc-babe-3073ddd972a7",
      "meta": {
        "profile": [ "http://hl7.org/fhir/us/qicore/StructureDefinition/qicore-patient" ]
      },
      "text": {
        "status": "generated",
        "div": "<div xmlns=\"http://www.w3.org/1999/xhtml\"><div class=\"hapiHeaderText\">HipReplNotPrin <b>DENEXFAIL </b></div><table class=\"hapiPropertyTable\"><tbody><tr><td>Identifier</td><td>927546d7b5f5a2cf7c76d1f1c4b3dffe</td></tr><tr><td>Date of birth</td><td><span>03 March 1974</span></td></tr></tbody></table></div>"
      },
      "extension": [ {
        "url": "http://hl7.org/fhir/us/core/StructureDefinition/us-core-race",
        "extension": [ {
          "url": "ombCategory",
          "valueCoding": {
            "system": "urn:oid:2.16.840.1.113883.6.238",
            "code": "1002-5",
            "display": "American Indian or Alaska Native",
            "userSelected": true
          }
        }, {
          "url": "text",
          "valueString": "American Indian or Alaska Native"
        } ]
      }, {
        "url": "http://hl7.org/fhir/us/core/StructureDefinition/us-core-ethnicity",
        "extension": [ {
          "url": "ombCategory",
          "valueCoding": {
            "system": "urn:oid:2.16.840.1.113883.6.238",
            "code": "2135-2",
            "display": "Hispanic or Latino",
            "userSelected": true
          }
        }, {
          "url": "text",
          "valueString": "Hispanic or Latino"
        } ]
      } ],
      "identifier": [ {
        "type": {
          "coding": [ {
            "system": "http://terminology.hl7.org/CodeSystem/v2-0203",
            "code": "MR"
          } ]
        },
        "system": "https://bonnie-fhir.healthit.gov/",
        "value": "612e6e9702c62a011f2eefa5"
      } ],
      "active": true,
      "name": [ {
        "use": "usual",
        "family": "DENEXFail",
        "given": [ "HipReplNotPrin" ]
      } ],
      "gender": "female",
      "birthDate": "1975-03-03"
    },
    "request": {
      "method": "PUT",
      "url": "Patient/9ac19ff5-34ba-47bc-babe-3073ddd972a7"
    }
  }, {
    "fullUrl": "https://madie.cms.gov/Encounter/d4291566-8670-471e-bc1e-126830d91a2a",
    "resource": {
      "resourceType": "Encounter",
      "id": "d4291566-8670-471e-bc1e-126830d91a2a",
      "meta": {
        "profile": [ "http://hl7.org/fhir/us/qicore/StructureDefinition/qicore-encounter" ]
      },
      "status": "finished",
      "class": {
        "system": "http://terminology.hl7.org/CodeSystem/v3-ActCode",
        "code": "IMP",
        "display": "inpatient encounter"
      },
      "type": [ {
        "coding": [ {
          "system": "http://snomed.info/sct",
          "code": "8715000"
        } ]
      } ],
      "subject": {
        "reference": "Patient/9ac19ff5-34ba-47bc-babe-3073ddd972a7"
      },
      "period": {
        "start": "2026-12-04T08:00:00.000+00:00",
        "end": "2026-12-30T08:15:00.000+00:00"
      },
      "length": {
        "value": 26.0,
        "unit": "days"
      },
      "location": [ {
        "location": {
          "reference": "Location/3a43052f-7ecf-4cac-960d-3cfa81290fe8"
        },
        "period": {
          "start": "2026-12-06T08:00:00.000+00:00",
          "end": "2026-12-08T08:15:00.000+00:00"
        }
      } ]
    },
    "request": {
      "method": "PUT",
      "url": "Encounter/d4291566-8670-471e-bc1e-126830d91a2a"
    }
  }, {
    "fullUrl": "https://madie.cms.gov/Coverage/b4b9df99-6780-42f2-9a40-e90ab1bf8ac3",
    "resource": {
      "resourceType": "Coverage",
      "id": "b4b9df99-6780-42f2-9a40-e90ab1bf8ac3",
      "status": "active",
      "beneficiary": {
        "reference": "Patient/9ac19ff5-34ba-47bc-babe-3073ddd972a7"
      },
      "period": {
        "start": "1975-03-03T08:00:00.000+00:00"
      },
      "payor": [ {
        "reference": "Organization/5b19b87e-d25a-4901-998d-406e6410134e"
      } ]
    },
    "request": {
      "method": "PUT",
      "url": "Coverage/b4b9df99-6780-42f2-9a40-e90ab1bf8ac3"
    }
  }, {
    "fullUrl": "https://madie.cms.gov/Procedure/41c70dbf-7925-4efb-ba71-a822f97fddfc",
    "resource": {
      "resourceType": "Procedure",
      "id": "41c70dbf-7925-4efb-ba71-a822f97fddfc",
      "meta": {
        "profile": [ "http://hl7.org/fhir/us/qicore/StructureDefinition/qicore-procedure" ]
      },
      "extension": [ {
        "url": "http://hl7.org/fhir/us/qicore/StructureDefinition/qicore-recorded",
        "valueDateTime": "2013-12-06T13:35:00.000+00:00"
      } ],
      "status": "completed",
      "code": {
        "coding": [ {
          "system": "http://snomed.info/sct",
          "code": "7989006"
        } ]
      },
      "subject": {
        "reference": "Patient/9ac19ff5-34ba-47bc-babe-3073ddd972a7"
      },
      "performedPeriod": {
        "start": "2026-12-06T08:15:00.000+00:00",
        "end": "2026-12-06T11:15:00.000+00:00"
      }
    },
    "request": {
      "method": "PUT",
      "url": "Procedure/41c70dbf-7925-4efb-ba71-a822f97fddfc"
    }
  }, {
    "fullUrl": "https://madie.cms.gov/Location/3a43052f-7ecf-4cac-960d-3cfa81290fe8",
    "resource": {
      "resourceType": "Location",
      "id": "3a43052f-7ecf-4cac-960d-3cfa81290fe8",
      "meta": {
        "profile": [ "http://hl7.org/fhir/us/qicore/StructureDefinition/qicore-location" ]
      },
      "identifier": [ {
        "use": "usual",
        "system": "http://exampleoflocation.com",
        "value": "B1-S.F2"
      } ],
      "name": "Medical Surgical East, first floor",
      "type": [ {
        "coding": [ {
          "system": "https://www.cdc.gov/nhsn/cdaportal/terminology/codesystem/hsloc.html",
          "code": "1025-6",
          "display": "Trauma Critical Care",
          "userSelected": true
        } ]
      } ]
    },
    "request": {
      "method": "PUT",
      "url": "Location/3a43052f-7ecf-4cac-960d-3cfa81290fe8"
    }
  }, {
    "fullUrl": "https://madie.cms.gov/Organization/5b19b87e-d25a-4901-998d-406e6410134e",
    "resource": {
      "resourceType": "Organization",
      "id": "5b19b87e-d25a-4901-998d-406e6410134e",
      "meta": {
        "profile": [ "http://hl7.org/fhir/us/qicore/StructureDefinition/qicore-organization" ]
      },
      "identifier": [ {
        "use": "temp",
        "system": "urn:oid:2.16.840.1.113883.4.4",
        "value": "21-3259825"
      } ],
      "active": true,
      "type": [ {
        "coding": [ {
          "system": "http://terminology.hl7.org/CodeSystem/organization-type",
          "code": "pay",
          "display": "Payer"
        } ]
      } ],
      "name": "Blue Cross Blue Shield of Texas",
      "telecom": [ {
        "system": "phone",
        "value": "(+1) 972-766-6900"
      } ],
      "address": [ {
        "use": "billing",
        "type": "postal",
        "line": [ "P.O. Box 660044" ],
        "city": "Dallas",
        "state": "TX",
        "postalCode": "75266-0044",
        "country": "USA"
      } ]
    },
    "request": {
      "method": "PUT",
      "url": "Organization/5b19b87e-d25a-4901-998d-406e6410134e"
    }
  }, {
    "fullUrl": "https://madie.cms.gov/Practitioner/a497efba-0f19-433c-b80c-879f1f39db78",
    "resource": {
      "resourceType": "Practitioner",
      "id": "a497efba-0f19-433c-b80c-879f1f39db78",
      "identifier": [ {
        "system": "http://hl7.org/fhir/sid/us-npi",
        "value": "123456"
      } ],
      "name": [ {
        "family": "Evil",
        "prefix": [ "Dr" ]
      } ]
    },
    "request": {
      "method": "PUT",
      "url": "Practitioner/a497efba-0f19-433c-b80c-879f1f39db78"
    }
  }, {
    "fullUrl": "https://madie.cms.gov/MeasureReport/49942e6c-060b-479a-8e3e-df1bad6b6bdd",
    "resource": {
      "resourceType": "MeasureReport",
      "id": "49942e6c-060b-479a-8e3e-df1bad6b6bdd",
      "meta": {
        "profile": [ "http://hl7.org/fhir/us/cqfmeasures/StructureDefinition/test-case-cqfm" ]
      },
      "contained": [ {
        "resourceType": "Parameters",
        "id": "9b52cd30-a511-4b58-8f70-d9d02ceff80f-parameters",
        "parameter": [ {
          "name": "subject",
          "valueString": "9ac19ff5-34ba-47bc-babe-3073ddd972a7"
        } ]
      } ],
      "extension": [ {
        "url": "http://hl7.org/fhir/StructureDefinition/cqf-inputParameters",
        "valueReference": {
          "reference": "#9b52cd30-a511-4b58-8f70-d9d02ceff80f-parameters"
        }
      }, {
        "url": "http://hl7.org/fhir/us/cqfmeasures/StructureDefinition/cqfm-testCaseDescription",
        "valueMarkdown": "Hip replacement not principal\n"
      } ],
      "modifierExtension": [ {
        "url": "http://hl7.org/fhir/us/cqfmeasures/StructureDefinition/cqfm-isTestCase",
        "valueBoolean": true
      } ],
      "status": "complete",
      "type": "individual",
      "measure": "https://madie.cms.gov/Measure/CMS190VTEProphylaxisICUFHIR",
      "period": {
        "start": "2026-01-01",
        "end": "2026-12-31"
      },
      "group": [ {
        "id": "Group_1",
        "population": [ {
          "id": "InitialPopulation_1",
          "code": {
            "coding": [ {
              "system": "http://terminology.hl7.org/CodeSystem/measure-population",
              "code": "initial-population",
              "display": "Initial Population"
            } ]
          },
          "count": 1
        }, {
          "id": "Denominator_1",
          "code": {
            "coding": [ {
              "system": "http://terminology.hl7.org/CodeSystem/measure-population",
              "code": "denominator",
              "display": "Denominator"
            } ]
          },
          "count": 1
        }, {
          "id": "DenominatorExclusion_1",
          "code": {
            "coding": [ {
              "system": "http://terminology.hl7.org/CodeSystem/measure-population",
              "code": "denominator-exclusion",
              "display": "Denominator Exclusion"
            } ]
          },
          "count": 0
        }, {
          "id": "Numerator_1",
          "code": {
            "coding": [ {
              "system": "http://terminology.hl7.org/CodeSystem/measure-population",
              "code": "numerator",
              "display": "Numerator"
            } ]
          },
          "count": 0
        }, {
          "id": "DenominatorException_1",
          "code": {
            "coding": [ {
              "system": "http://terminology.hl7.org/CodeSystem/measure-population",
              "code": "denominator-exception",
              "display": "Denominator Exception"
            } ]
          },
          "count": 0
        } ],
        "measureScore": {
          "value": 0.0
        }
      } ],
      "evaluatedResource": [ {
        "reference": "Patient/9ac19ff5-34ba-47bc-babe-3073ddd972a7"
      }, {
        "reference": "Encounter/d4291566-8670-471e-bc1e-126830d91a2a"
      }, {
        "reference": "Coverage/b4b9df99-6780-42f2-9a40-e90ab1bf8ac3"
      }, {
        "reference": "Procedure/41c70dbf-7925-4efb-ba71-a822f97fddfc"
      }, {
        "reference": "Location/3a43052f-7ecf-4cac-960d-3cfa81290fe8"
      }, {
        "reference": "Organization/5b19b87e-d25a-4901-998d-406e6410134e"
      }, {
        "reference": "Practitioner/a497efba-0f19-433c-b80c-879f1f39db78"
      } ]
    },
    "request": {
      "method": "PUT",
      "url": "MeasureReport/49942e6c-060b-479a-8e3e-df1bad6b6bdd"
    }
  } ]
}