{
  "resourceType": "Bundle",
  "id": "4616513133030",
  "type": "transaction",
  "entry": [ {
    "fullUrl": "https://madie.cms.gov/Patient/790f8993-7a03-4ed7-94d7-c0e95587afa0",
    "resource": {
      "resourceType": "Patient",
      "id": "790f8993-7a03-4ed7-94d7-c0e95587afa0",
      "meta": {
        "profile": [ "http://hl7.org/fhir/us/qicore/StructureDefinition/qicore-patient" ]
      },
      "extension": [ {
        "url": "http://hl7.org/fhir/us/core/StructureDefinition/us-core-race",
        "extension": [ {
          "url": "ombCategory",
          "valueCoding": {
            "system": "urn:oid:2.16.840.1.113883.6.238",
            "code": "2076-8",
            "display": "Native Hawaiian or Other Pacific Islander"
          }
        }, {
          "url": "text",
          "valueString": "Native Hawaiian or Other Pacific Islander"
        } ]
      }, {
        "url": "http://hl7.org/fhir/us/core/StructureDefinition/us-core-ethnicity",
        "extension": [ {
          "url": "ombCategory",
          "valueCoding": {
            "system": "urn:oid:2.16.840.1.113883.6.238",
            "code": "2186-5",
            "display": "Not Hispanic or Latino"
          }
        }, {
          "url": "text",
          "valueString": "Not Hispanic or Latino"
        } ]
      } ],
      "identifier": [ {
        "type": {
          "coding": [ {
            "system": "http://terminology.hl7.org/CodeSystem/v2-0203",
            "code": "MR"
          } ]
        },
        "system": "https://bonnie-fhir.healthit.gov/",
        "value": "60d4bda907206d58cd96b128"
      } ],
      "name": [ {
        "family": "NUMERPass",
        "given": [ "BCGTwiceCheckForFirst" ]
      } ],
      "gender": "female",
      "birthDate": "1951-12-25"
    },
    "request": {
      "method": "PUT",
      "url": "Patient/790f8993-7a03-4ed7-94d7-c0e95587afa0"
    }
  }, {
    "fullUrl": "https://madie.cms.gov/Encounter/d4d6fd55-9be8-47d5-8ccf-f6f4ab63c80d",
    "resource": {
      "resourceType": "Encounter",
      "id": "d4d6fd55-9be8-47d5-8ccf-f6f4ab63c80d",
      "meta": {
        "profile": [ "http://hl7.org/fhir/us/qicore/StructureDefinition/qicore-encounter" ]
      },
      "status": "finished",
      "class": {
        "system": "http://terminology.hl7.org/CodeSystem/v3-ActCode",
        "code": "AMB",
        "display": "ambulatory"
      },
      "type": [ {
        "coding": [ {
          "system": "http://snomed.info/sct",
          "version": "http://snomed.info/sct/731000124108/version/20240301",
          "code": "185463005",
          "display": "Visit out of hours (procedure)"
        } ]
      } ],
      "subject": {
        "reference": "Patient/790f8993-7a03-4ed7-94d7-c0e95587afa0"
      },
      "period": {
        "start": "2026-02-02T08:00:00.000+00:00",
        "end": "2026-02-02T09:15:00.000+00:00"
      }
    },
    "request": {
      "method": "PUT",
      "url": "Encounter/d4d6fd55-9be8-47d5-8ccf-f6f4ab63c80d"
    }
  }, {
    "fullUrl": "https://madie.cms.gov/Condition/4d199c5f-0180-4178-9b00-697e8d73f787",
    "resource": {
      "resourceType": "Condition",
      "id": "4d199c5f-0180-4178-9b00-697e8d73f787",
      "meta": {
        "profile": [ "http://hl7.org/fhir/us/qicore/StructureDefinition/qicore-condition-problems-health-concerns" ]
      },
      "clinicalStatus": {
        "coding": [ {
          "system": "http://terminology.hl7.org/CodeSystem/condition-clinical",
          "code": "active",
          "display": "Active"
        } ]
      },
      "verificationStatus": {
        "coding": [ {
          "system": "http://terminology.hl7.org/CodeSystem/condition-ver-status",
          "code": "confirmed",
          "display": "Confirmed"
        } ]
      },
      "category": [ {
        "coding": [ {
          "system": "http://terminology.hl7.org/CodeSystem/condition-category",
          "code": "problem-list-item",
          "display": "Problem List Item"
        } ]
      } ],
      "code": {
        "coding": [ {
          "system": "http://hl7.org/fhir/sid/icd-10-cm",
          "version": "2024",
          "code": "C67.1",
          "display": "Malignant neoplasm of dome of bladder"
        } ]
      },
      "subject": {
        "reference": "Patient/790f8993-7a03-4ed7-94d7-c0e95587afa0"
      },
      "onsetPeriod": {
        "start": "2026-02-02T08:00:00.000+00:00"
      }
    },
    "request": {
      "method": "PUT",
      "url": "Condition/4d199c5f-0180-4178-9b00-697e8d73f787"
    }
  }, {
    "fullUrl": "https://madie.cms.gov/Procedure/cb2f3bf3-dcef-4100-82b1-59213a2987ed",
    "resource": {
      "resourceType": "Procedure",
      "id": "cb2f3bf3-dcef-4100-82b1-59213a2987ed",
      "meta": {
        "profile": [ "http://hl7.org/fhir/us/qicore/StructureDefinition/qicore-procedure" ]
      },
      "extension": [ {
        "url": "http://hl7.org/fhir/us/qicore/StructureDefinition/qicore-recorded",
        "valueDateTime": "2026-02-01T08:00:00.000+00:00"
      } ],
      "status": "completed",
      "code": {
        "coding": [ {
          "system": "http://snomed.info/sct",
          "version": "http://snomed.info/sct/731000124108/version/20240301",
          "code": "254292007",
          "display": "Tumor staging"
        } ]
      },
      "subject": {
        "reference": "Patient/790f8993-7a03-4ed7-94d7-c0e95587afa0"
      },
      "performedPeriod": {
        "start": "2026-02-01T08:00:00.000+00:00",
        "end": "2026-02-02T08:15:00.000+00:00"
      }
    },
    "request": {
      "method": "PUT",
      "url": "Procedure/cb2f3bf3-dcef-4100-82b1-59213a2987ed"
    }
  }, {
    "fullUrl": "https://madie.cms.gov/Observation/2d845176-9f7f-4429-a303-65c23c125518",
    "resource": {
      "resourceType": "Observation",
      "id": "2d845176-9f7f-4429-a303-65c23c125518",
      "meta": {
        "profile": [ "http://hl7.org/fhir/us/qicore/StructureDefinition/qicore-observation-lab" ]
      },
      "partOf": [ {
        "reference": "Procedure/cb2f3bf3-dcef-4100-82b1-59213a2987ed"
      } ],
      "status": "final",
      "category": [ {
        "coding": [ {
          "system": "http://terminology.hl7.org/CodeSystem/observation-category",
          "code": "procedure",
          "display": "Procedure"
        } ]
      } ],
      "code": {
        "coding": [ {
          "system": "http://loinc.org",
          "version": "2.76",
          "code": "21902-2",
          "display": "Stage group.pathology Cancer"
        } ]
      },
      "subject": {
        "reference": "Patient/790f8993-7a03-4ed7-94d7-c0e95587afa0"
      },
      "effectivePeriod": {
        "start": "2026-02-01T08:00:00.000+00:00",
        "end": "2026-02-02T08:15:00.000+00:00"
      },
      "issued": "2026-02-02T08:15:00.000+00:00",
      "valueCodeableConcept": {
        "coding": [ {
          "system": "http://snomed.info/sct",
          "version": "http://snomed.info/sct/731000124108/version/20240301",
          "code": "1228883000",
          "display": "American Joint Committee on Cancer cTa (qualifier value)"
        } ]
      }
    },
    "request": {
      "method": "PUT",
      "url": "Observation/2d845176-9f7f-4429-a303-65c23c125518"
    }
  }, {
    "fullUrl": "https://madie.cms.gov/MedicationAdministration/908fcd24-f78f-4a9b-8731-72ac9957f042",
    "resource": {
      "resourceType": "MedicationAdministration",
      "id": "908fcd24-f78f-4a9b-8731-72ac9957f042",
      "meta": {
        "profile": [ "http://hl7.org/fhir/us/qicore/StructureDefinition/qicore-medicationadministration" ]
      },
      "status": "completed",
      "medicationCodeableConcept": {
        "coding": [ {
          "system": "http://www.nlm.nih.gov/research/umls/rxnorm",
          "version": "04012024",
          "code": "1653484",
          "display": "BCG, live, Tice strain 50 MG/ML Topical Suspension"
        } ]
      },
      "subject": {
        "reference": "Patient/790f8993-7a03-4ed7-94d7-c0e95587afa0"
      },
      "effectivePeriod": {
        "start": "2026-06-02T08:00:00.000+00:00",
        "end": "2026-06-02T08:15:00.000+00:00"
      }
    },
    "request": {
      "method": "PUT",
      "url": "MedicationAdministration/908fcd24-f78f-4a9b-8731-72ac9957f042"
    }
  }, {
    "fullUrl": "https://madie.cms.gov/MedicationAdministration/f46988d4-10c4-44c0-9415-ca00466a325b",
    "resource": {
      "resourceType": "MedicationAdministration",
      "id": "f46988d4-10c4-44c0-9415-ca00466a325b",
      "meta": {
        "profile": [ "http://hl7.org/fhir/us/qicore/StructureDefinition/qicore-medicationadministration" ]
      },
      "status": "completed",
      "medicationCodeableConcept": {
        "coding": [ {
          "system": "http://www.nlm.nih.gov/research/umls/rxnorm",
          "version": "04012024",
          "code": "1653484",
          "display": "BCG, live, Tice strain 50 MG/ML Topical Suspension"
        } ]
      },
      "subject": {
        "reference": "Patient/790f8993-7a03-4ed7-94d7-c0e95587afa0"
      },
      "effectivePeriod": {
        "start": "2026-07-02T08:00:00.000+00:00",
        "end": "2026-07-02T08:15:00.000+00:00"
      }
    },
    "request": {
      "method": "PUT",
      "url": "MedicationAdministration/f46988d4-10c4-44c0-9415-ca00466a325b"
    }
  }, {
    "fullUrl": "https://madie.cms.gov/MeasureReport/0886870f-78df-48fc-b799-f77123ff9edf",
    "resource": {
      "resourceType": "MeasureReport",
      "id": "0886870f-78df-48fc-b799-f77123ff9edf",
      "meta": {
        "profile": [ "http://hl7.org/fhir/us/cqfmeasures/StructureDefinition/test-case-cqfm" ]
      },
      "contained": [ {
        "resourceType": "Parameters",
        "id": "49f79cfc-4a1c-4d71-917b-89efab97fe71-parameters",
        "parameter": [ {
          "name": "subject",
          "valueString": "790f8993-7a03-4ed7-94d7-c0e95587afa0"
        } ]
      } ],
      "extension": [ {
        "url": "http://hl7.org/fhir/StructureDefinition/cqf-inputParameters",
        "valueReference": {
          "reference": "#49f79cfc-4a1c-4d71-917b-89efab97fe71-parameters"
        }
      }, {
        "url": "http://hl7.org/fhir/us/cqfmeasures/StructureDefinition/cqfm-testCaseDescription",
        "valueMarkdown": "BCa, OV and staging present.  BCG given twice.  First is within 6 months of staging and 2nd is at 7 months after staging.  Test to determine if 1st BCG is calculating the results. Passes as expected."
      } ],
      "modifierExtension": [ {
        "url": "http://hl7.org/fhir/us/cqfmeasures/StructureDefinition/cqfm-isTestCase",
        "valueBoolean": true
      } ],
      "status": "complete",
      "type": "individual",
      "measure": "https://madie.cms.gov/Measure/CMS646FHIRIntravesicalBacillusCalmetteGuerinForBladderCancer",
      "period": {
        "start": "2026-01-01",
        "end": "2026-12-31"
      },
      "group": [ {
        "id": "Group_1",
        "population": [ {
          "id": "InitialPopulation_1",
          "code": {
            "coding": [ {
              "system": "http://terminology.hl7.org/CodeSystem/measure-population",
              "code": "initial-population",
              "display": "Initial Population"
            } ]
          },
          "count": 1
        }, {
          "id": "Denominator_1",
          "code": {
            "coding": [ {
              "system": "http://terminology.hl7.org/CodeSystem/measure-population",
              "code": "denominator",
              "display": "Denominator"
            } ]
          },
          "count": 1
        }, {
          "id": "DenominatorExclusion_1",
          "code": {
            "coding": [ {
              "system": "http://terminology.hl7.org/CodeSystem/measure-population",
              "code": "denominator-exclusion",
              "display": "Denominator Exclusion"
            } ]
          },
          "count": 0
        }, {
          "id": "Numerator_1",
          "code": {
            "coding": [ {
              "system": "http://terminology.hl7.org/CodeSystem/measure-population",
              "code": "numerator",
              "display": "Numerator"
            } ]
          },
          "count": 1
        }, {
          "id": "DenominatorException_1",
          "code": {
            "coding": [ {
              "system": "http://terminology.hl7.org/CodeSystem/measure-population",
              "code": "denominator-exception",
              "display": "Denominator Exception"
            } ]
          },
          "count": 0
        } ],
        "measureScore": {
          "value": 1.0
        }
      } ],
      "evaluatedResource": [ {
        "reference": "Patient/790f8993-7a03-4ed7-94d7-c0e95587afa0"
      }, {
        "reference": "Encounter/d4d6fd55-9be8-47d5-8ccf-f6f4ab63c80d"
      }, {
        "reference": "Condition/4d199c5f-0180-4178-9b00-697e8d73f787"
      }, {
        "reference": "Procedure/cb2f3bf3-dcef-4100-82b1-59213a2987ed"
      }, {
        "reference": "Observation/2d845176-9f7f-4429-a303-65c23c125518"
      }, {
        "reference": "MedicationAdministration/908fcd24-f78f-4a9b-8731-72ac9957f042"
      }, {
        "reference": "MedicationAdministration/f46988d4-10c4-44c0-9415-ca00466a325b"
      } ]
    },
    "request": {
      "method": "PUT",
      "url": "MeasureReport/0886870f-78df-48fc-b799-f77123ff9edf"
    }
  } ]
}