{
  "resourceType": "Bundle",
  "id": "98116841646686466847",
  "type": "transaction",
  "entry": [ {
    "fullUrl": "https://madie.cms.gov/Patient/96b6579c-1cee-423f-9433-a72db6fb8a0a",
    "resource": {
      "resourceType": "Patient",
      "id": "96b6579c-1cee-423f-9433-a72db6fb8a0a",
      "meta": {
        "profile": [ "http://hl7.org/fhir/us/qicore/StructureDefinition/qicore-patient" ]
      },
      "extension": [ {
        "url": "http://hl7.org/fhir/us/core/StructureDefinition/us-core-race",
        "extension": [ {
          "url": "ombCategory",
          "valueCoding": {
            "system": "urn:oid:2.16.840.1.113883.6.238",
            "code": "2106-3",
            "display": "White"
          }
        }, {
          "url": "text",
          "valueString": "White"
        } ]
      }, {
        "url": "http://hl7.org/fhir/us/core/StructureDefinition/us-core-ethnicity",
        "extension": [ {
          "url": "ombCategory",
          "valueCoding": {
            "system": "urn:oid:2.16.840.1.113883.6.238",
            "code": "2186-5",
            "display": "Not Hispanic or Latino"
          }
        }, {
          "url": "text",
          "valueString": "Not Hispanic or Latino"
        } ]
      } ],
      "identifier": [ {
        "type": {
          "coding": [ {
            "system": "http://terminology.hl7.org/CodeSystem/v2-0203",
            "code": "MR"
          } ]
        },
        "system": "https://bonnie-fhir.healthit.gov/",
        "value": "6546841651641616513421"
      } ],
      "name": [ {
        "family": "DENEXPopStrat2Pass",
        "given": [ "HospAmbInMP" ]
      } ],
      "gender": "female",
      "birthDate": "1984-01-01"
    },
    "request": {
      "method": "PUT",
      "url": "Patient/96b6579c-1cee-423f-9433-a72db6fb8a0a"
    }
  }, {
    "fullUrl": "https://madie.cms.gov/Encounter/9a8af253-e796-41be-a3e4-e07a275823cc",
    "resource": {
      "resourceType": "Encounter",
      "id": "9a8af253-e796-41be-a3e4-e07a275823cc",
      "meta": {
        "profile": [ "http://hl7.org/fhir/us/qicore/StructureDefinition/qicore-encounter" ]
      },
      "status": "finished",
      "class": {
        "system": "http://terminology.hl7.org/CodeSystem/v3-ActCode",
        "code": "AMB",
        "display": "ambulatory"
      },
      "type": [ {
        "coding": [ {
          "system": "http://www.ama-assn.org/go/cpt",
          "version": "2024",
          "code": "90791"
        } ]
      } ],
      "subject": {
        "reference": "Patient/96b6579c-1cee-423f-9433-a72db6fb8a0a"
      },
      "period": {
        "start": "2025-02-25T14:30:00+00:00",
        "end": "2025-02-25T14:50:00+00:00"
      },
      "length": {
        "value": 0,
        "unit": "days"
      }
    },
    "request": {
      "method": "PUT",
      "url": "Encounter/9a8af253-e796-41be-a3e4-e07a275823cc"
    }
  }, {
    "fullUrl": "https://madie.cms.gov/Observation/e7a3b87c-f671-47cf-a545-ae5f412d7231",
    "resource": {
      "resourceType": "Observation",
      "id": "e7a3b87c-f671-47cf-a545-ae5f412d7231",
      "meta": {
        "profile": [ "http://hl7.org/fhir/us/qicore/StructureDefinition/qicore-observation-screening-assessment" ]
      },
      "status": "final",
      "category": [ {
        "coding": [ {
          "system": "http://terminology.hl7.org/CodeSystem/observation-category",
          "code": "survey",
          "display": "Survey"
        } ]
      } ],
      "code": {
        "coding": [ {
          "system": "http://loinc.org",
          "version": "2.76",
          "code": "44261-6"
        } ]
      },
      "subject": {
        "reference": "Patient/96b6579c-1cee-423f-9433-a72db6fb8a0a"
      },
      "effectiveDateTime": "2025-02-25T14:35:00+00:00",
      "valueInteger": 10
    },
    "request": {
      "method": "PUT",
      "url": "Observation/e7a3b87c-f671-47cf-a545-ae5f412d7231"
    }
  }, {
    "fullUrl": "https://madie.cms.gov/Observation/e74fc6f9-ea3e-4bb2-b128-7e63f8f0c687",
    "resource": {
      "resourceType": "Observation",
      "id": "e74fc6f9-ea3e-4bb2-b128-7e63f8f0c687",
      "meta": {
        "profile": [ "http://hl7.org/fhir/us/qicore/StructureDefinition/qicore-observation-screening-assessment" ]
      },
      "status": "final",
      "category": [ {
        "coding": [ {
          "system": "http://terminology.hl7.org/CodeSystem/observation-category",
          "code": "survey",
          "display": "Survey"
        } ]
      } ],
      "code": {
        "coding": [ {
          "system": "http://loinc.org",
          "version": "2.76",
          "code": "44261-6"
        } ]
      },
      "subject": {
        "reference": "Patient/96b6579c-1cee-423f-9433-a72db6fb8a0a"
      },
      "effectiveDateTime": "2026-02-19T14:30:00+00:00",
      "valueInteger": 3
    },
    "request": {
      "method": "PUT",
      "url": "Observation/e74fc6f9-ea3e-4bb2-b128-7e63f8f0c687"
    }
  }, {
    "fullUrl": "https://madie.cms.gov/Condition/e3fddc13-a114-41e2-82a1-af3c48ed98d1",
    "resource": {
      "resourceType": "Condition",
      "id": "e3fddc13-a114-41e2-82a1-af3c48ed98d1",
      "meta": {
        "profile": [ "http://hl7.org/fhir/us/qicore/StructureDefinition/qicore-condition-problems-health-concerns" ]
      },
      "clinicalStatus": {
        "coding": [ {
          "system": "http://terminology.hl7.org/CodeSystem/condition-clinical",
          "code": "active",
          "display": "active"
        } ]
      },
      "verificationStatus": {
        "coding": [ {
          "system": "http://terminology.hl7.org/CodeSystem/condition-ver-status",
          "code": "confirmed"
        } ]
      },
      "category": [ {
        "coding": [ {
          "system": "http://terminology.hl7.org/CodeSystem/condition-category",
          "code": "problem-list-item",
          "display": "Problem List Item"
        } ]
      } ],
      "code": {
        "coding": [ {
          "system": "http://hl7.org/fhir/sid/icd-10-cm",
          "version": "2024",
          "code": "F32.9"
        } ]
      },
      "subject": {
        "reference": "Patient/96b6579c-1cee-423f-9433-a72db6fb8a0a"
      },
      "onsetDateTime": "2025-02-25T14:35:00+00:00"
    },
    "request": {
      "method": "PUT",
      "url": "Condition/e3fddc13-a114-41e2-82a1-af3c48ed98d1"
    }
  }, {
    "fullUrl": "https://madie.cms.gov/ServiceRequest/0ba1832c-40d2-45e9-a101-b997772bd0bd",
    "resource": {
      "resourceType": "ServiceRequest",
      "id": "0ba1832c-40d2-45e9-a101-b997772bd0bd",
      "meta": {
        "profile": [ "http://hl7.org/fhir/us/qicore/StructureDefinition/qicore-servicerequest" ]
      },
      "status": "active",
      "intent": "order",
      "code": {
        "coding": [ {
          "system": "http://snomed.info/sct",
          "version": "http://snomed.info/sct/731000124108/version/20240301",
          "code": "385763009",
          "display": "Hospice Care Ambulatory"
        } ]
      },
      "subject": {
        "reference": "http://GoodHealthcare.com/fhir/Patient/46464646"
      },
      "authoredOn": "2026-01-04T08:00:00.000+00:00"
    },
    "request": {
      "method": "PUT",
      "url": "ServiceRequest/0ba1832c-40d2-45e9-a101-b997772bd0bd"
    }
  }, {
    "fullUrl": "https://madie.cms.gov/MeasureReport/27d0812e-8634-4599-a57c-3b21044d2c0a",
    "resource": {
      "resourceType": "MeasureReport",
      "id": "27d0812e-8634-4599-a57c-3b21044d2c0a",
      "meta": {
        "profile": [ "http://hl7.org/fhir/us/cqfmeasures/StructureDefinition/test-case-cqfm" ]
      },
      "contained": [ {
        "resourceType": "Parameters",
        "id": "0e0415d6-86fe-4c10-a50e-96c1690994b0-parameters",
        "parameter": [ {
          "name": "subject",
          "valueString": "96b6579c-1cee-423f-9433-a72db6fb8a0a"
        } ]
      } ],
      "extension": [ {
        "url": "http://hl7.org/fhir/StructureDefinition/cqf-inputParameters",
        "valueReference": {
          "reference": "#0e0415d6-86fe-4c10-a50e-96c1690994b0-parameters"
        }
      }, {
        "url": "http://hl7.org/fhir/us/cqfmeasures/StructureDefinition/cqfm-testCaseDescription",
        "valueMarkdown": "Patient has a Major Depressive Dx and PHQ-9>9 during the denom ID period. Patient has ambulatory hospice care intervention performed during MP. Should be in denominator exclusion for Strat 2. "
      } ],
      "modifierExtension": [ {
        "url": "http://hl7.org/fhir/us/cqfmeasures/StructureDefinition/cqfm-isTestCase",
        "valueBoolean": true
      } ],
      "status": "complete",
      "type": "individual",
      "measure": "https://madie.cms.gov/Measure/CMS159FHIRDepressionRemissionatTwelveMonths",
      "period": {
        "start": "2026-01-01",
        "end": "2026-12-31"
      },
      "group": [ {
        "id": "Group_1",
        "population": [ {
          "id": "InitialPopulation_1",
          "code": {
            "coding": [ {
              "system": "http://terminology.hl7.org/CodeSystem/measure-population",
              "code": "initial-population",
              "display": "Initial Population"
            } ]
          },
          "count": 1
        }, {
          "id": "Denominator_1",
          "code": {
            "coding": [ {
              "system": "http://terminology.hl7.org/CodeSystem/measure-population",
              "code": "denominator",
              "display": "Denominator"
            } ]
          },
          "count": 1
        }, {
          "id": "DenominatorExclusion_1",
          "code": {
            "coding": [ {
              "system": "http://terminology.hl7.org/CodeSystem/measure-population",
              "code": "denominator-exclusion",
              "display": "Denominator Exclusion"
            } ]
          },
          "count": 1
        }, {
          "id": "Numerator_1",
          "code": {
            "coding": [ {
              "system": "http://terminology.hl7.org/CodeSystem/measure-population",
              "code": "numerator",
              "display": "Numerator"
            } ]
          },
          "count": 0
        } ],
        "measureScore": {
          "value": 1.0
        }
      } ],
      "evaluatedResource": [ {
        "reference": "Patient/96b6579c-1cee-423f-9433-a72db6fb8a0a"
      }, {
        "reference": "Encounter/9a8af253-e796-41be-a3e4-e07a275823cc"
      }, {
        "reference": "Observation/e7a3b87c-f671-47cf-a545-ae5f412d7231"
      }, {
        "reference": "Observation/e74fc6f9-ea3e-4bb2-b128-7e63f8f0c687"
      }, {
        "reference": "Condition/e3fddc13-a114-41e2-82a1-af3c48ed98d1"
      }, {
        "reference": "ServiceRequest/0ba1832c-40d2-45e9-a101-b997772bd0bd"
      } ]
    },
    "request": {
      "method": "PUT",
      "url": "MeasureReport/27d0812e-8634-4599-a57c-3b21044d2c0a"
    }
  } ]
}