{
  "resourceType": "Bundle",
  "id": "630307cd0968f801224786f4",
  "type": "transaction",
  "entry": [ {
    "fullUrl": "https://madie.cms.gov/Patient/0604cc6e-338a-44bf-a89a-d8de53669314",
    "resource": {
      "resourceType": "Patient",
      "id": "0604cc6e-338a-44bf-a89a-d8de53669314",
      "meta": {
        "profile": [ "http://hl7.org/fhir/us/qicore/StructureDefinition/qicore-patient" ]
      },
      "extension": [ {
        "url": "http://hl7.org/fhir/us/core/StructureDefinition/us-core-race",
        "extension": [ {
          "url": "ombCategory",
          "valueCoding": {
            "system": "urn:oid:2.16.840.1.113883.6.238",
            "code": "2106-3",
            "display": "White"
          }
        }, {
          "url": "text",
          "valueString": "White"
        } ]
      }, {
        "url": "http://hl7.org/fhir/us/core/StructureDefinition/us-core-ethnicity",
        "extension": [ {
          "url": "ombCategory",
          "valueCoding": {
            "system": "urn:oid:2.16.840.1.113883.6.238",
            "code": "2186-5",
            "display": "Not Hispanic or Latino"
          }
        }, {
          "url": "text",
          "valueString": "Not Hispanic or Latino"
        } ]
      } ],
      "identifier": [ {
        "type": {
          "coding": [ {
            "system": "http://terminology.hl7.org/CodeSystem/v2-0203",
            "code": "MR"
          } ]
        },
        "system": "https://bonnie-fhir.healthit.gov/",
        "value": "630307cd0968f801224786f4"
      } ],
      "name": [ {
        "family": "DENOMPopStrat2Pass",
        "given": [ "SecondAssessmentStatusUnknown" ]
      } ],
      "gender": "female",
      "birthDate": "1946-01-01"
    },
    "request": {
      "method": "PUT",
      "url": "Patient/0604cc6e-338a-44bf-a89a-d8de53669314"
    }
  }, {
    "fullUrl": "https://madie.cms.gov/Encounter/d5ab39f2-0353-4096-b638-193be9ae9550",
    "resource": {
      "resourceType": "Encounter",
      "id": "d5ab39f2-0353-4096-b638-193be9ae9550",
      "meta": {
        "profile": [ "http://hl7.org/fhir/us/qicore/StructureDefinition/qicore-encounter" ]
      },
      "status": "finished",
      "class": {
        "system": "http://terminology.hl7.org/CodeSystem/v3-ActCode",
        "code": "AMB",
        "display": "ambulatory"
      },
      "type": [ {
        "coding": [ {
          "system": "http://www.ama-assn.org/go/cpt",
          "version": "2024",
          "code": "90791"
        } ]
      } ],
      "subject": {
        "reference": "Patient/0604cc6e-338a-44bf-a89a-d8de53669314"
      },
      "period": {
        "start": "2025-02-25T14:30:00+00:00",
        "end": "2025-02-25T14:50:00+00:00"
      },
      "length": {
        "value": 0,
        "unit": "days"
      }
    },
    "request": {
      "method": "PUT",
      "url": "Encounter/d5ab39f2-0353-4096-b638-193be9ae9550"
    }
  }, {
    "fullUrl": "https://madie.cms.gov/Observation/798a4f33-6dbf-45e2-b7de-16205c83eb7f",
    "resource": {
      "resourceType": "Observation",
      "id": "798a4f33-6dbf-45e2-b7de-16205c83eb7f",
      "meta": {
        "profile": [ "http://hl7.org/fhir/us/qicore/StructureDefinition/qicore-observation-screening-assessment" ]
      },
      "status": "final",
      "category": [ {
        "coding": [ {
          "system": "http://terminology.hl7.org/CodeSystem/observation-category",
          "code": "survey",
          "display": "Survey"
        } ]
      } ],
      "code": {
        "coding": [ {
          "system": "http://loinc.org",
          "version": "2.76",
          "code": "44261-6"
        } ]
      },
      "subject": {
        "reference": "Patient/0604cc6e-338a-44bf-a89a-d8de53669314"
      },
      "effectiveDateTime": "2025-02-25T14:35:00+00:00",
      "valueInteger": 20
    },
    "request": {
      "method": "PUT",
      "url": "Observation/798a4f33-6dbf-45e2-b7de-16205c83eb7f"
    }
  }, {
    "fullUrl": "https://madie.cms.gov/Observation/c690c351-6ab9-4523-803a-5cee04ad1601",
    "resource": {
      "resourceType": "Observation",
      "id": "c690c351-6ab9-4523-803a-5cee04ad1601",
      "meta": {
        "profile": [ "http://hl7.org/fhir/us/qicore/StructureDefinition/qicore-observation-screening-assessment" ]
      },
      "status": "unknown",
      "category": [ {
        "coding": [ {
          "system": "http://terminology.hl7.org/CodeSystem/observation-category",
          "code": "survey",
          "display": "Survey"
        } ]
      } ],
      "code": {
        "coding": [ {
          "system": "http://loinc.org",
          "version": "2.76",
          "code": "44261-6"
        } ]
      },
      "subject": {
        "reference": "Patient/0604cc6e-338a-44bf-a89a-d8de53669314"
      },
      "effectiveDateTime": "2026-02-19T14:30:00+00:00",
      "valueInteger": 4
    },
    "request": {
      "method": "PUT",
      "url": "Observation/c690c351-6ab9-4523-803a-5cee04ad1601"
    }
  }, {
    "fullUrl": "https://madie.cms.gov/Condition/720c8dd7-76b0-412e-a897-f17c7ace21fc",
    "resource": {
      "resourceType": "Condition",
      "id": "720c8dd7-76b0-412e-a897-f17c7ace21fc",
      "meta": {
        "profile": [ "http://hl7.org/fhir/us/qicore/StructureDefinition/qicore-condition-problems-health-concerns" ]
      },
      "clinicalStatus": {
        "coding": [ {
          "system": "http://terminology.hl7.org/CodeSystem/condition-clinical",
          "code": "active",
          "display": "active"
        } ]
      },
      "verificationStatus": {
        "coding": [ {
          "system": "http://terminology.hl7.org/CodeSystem/condition-ver-status",
          "code": "confirmed"
        } ]
      },
      "category": [ {
        "coding": [ {
          "system": "http://terminology.hl7.org/CodeSystem/condition-category",
          "code": "problem-list-item",
          "display": "Problem List Item"
        } ]
      } ],
      "code": {
        "coding": [ {
          "system": "http://hl7.org/fhir/sid/icd-10-cm",
          "version": "2024",
          "code": "F32.9"
        } ]
      },
      "subject": {
        "reference": "Patient/0604cc6e-338a-44bf-a89a-d8de53669314"
      },
      "onsetDateTime": "2025-02-25T14:30:00+00:00"
    },
    "request": {
      "method": "PUT",
      "url": "Condition/720c8dd7-76b0-412e-a897-f17c7ace21fc"
    }
  }, {
    "fullUrl": "https://madie.cms.gov/MeasureReport/b3cb6747-da11-48a0-932c-61de3d400ea9",
    "resource": {
      "resourceType": "MeasureReport",
      "id": "b3cb6747-da11-48a0-932c-61de3d400ea9",
      "meta": {
        "profile": [ "http://hl7.org/fhir/us/cqfmeasures/StructureDefinition/test-case-cqfm" ]
      },
      "contained": [ {
        "resourceType": "Parameters",
        "id": "0d79d6f7-f038-4ac4-82c2-e2efad2790e1-parameters",
        "parameter": [ {
          "name": "subject",
          "valueString": "0604cc6e-338a-44bf-a89a-d8de53669314"
        } ]
      } ],
      "extension": [ {
        "url": "http://hl7.org/fhir/StructureDefinition/cqf-inputParameters",
        "valueReference": {
          "reference": "#0d79d6f7-f038-4ac4-82c2-e2efad2790e1-parameters"
        }
      }, {
        "url": "http://hl7.org/fhir/us/cqfmeasures/StructureDefinition/cqfm-testCaseDescription",
        "valueMarkdown": "Patient has a Major Depression Dx and PHQ-9>9 during the denom ID period. Had follow up assessment with no recorded timing. Patient should be in denominator for strat 2. "
      } ],
      "modifierExtension": [ {
        "url": "http://hl7.org/fhir/us/cqfmeasures/StructureDefinition/cqfm-isTestCase",
        "valueBoolean": true
      } ],
      "status": "complete",
      "type": "individual",
      "measure": "https://madie.cms.gov/Measure/CMS159FHIRDepressionRemissionatTwelveMonths",
      "period": {
        "start": "2026-01-01",
        "end": "2026-12-31"
      },
      "group": [ {
        "id": "Group_1",
        "population": [ {
          "id": "InitialPopulation_1",
          "code": {
            "coding": [ {
              "system": "http://terminology.hl7.org/CodeSystem/measure-population",
              "code": "initial-population",
              "display": "Initial Population"
            } ]
          },
          "count": 1
        }, {
          "id": "Denominator_1",
          "code": {
            "coding": [ {
              "system": "http://terminology.hl7.org/CodeSystem/measure-population",
              "code": "denominator",
              "display": "Denominator"
            } ]
          },
          "count": 1
        }, {
          "id": "DenominatorExclusion_1",
          "code": {
            "coding": [ {
              "system": "http://terminology.hl7.org/CodeSystem/measure-population",
              "code": "denominator-exclusion",
              "display": "Denominator Exclusion"
            } ]
          },
          "count": 0
        }, {
          "id": "Numerator_1",
          "code": {
            "coding": [ {
              "system": "http://terminology.hl7.org/CodeSystem/measure-population",
              "code": "numerator",
              "display": "Numerator"
            } ]
          },
          "count": 0
        } ],
        "measureScore": {
          "value": 1.0
        }
      } ],
      "evaluatedResource": [ {
        "reference": "Patient/0604cc6e-338a-44bf-a89a-d8de53669314"
      }, {
        "reference": "Encounter/d5ab39f2-0353-4096-b638-193be9ae9550"
      }, {
        "reference": "Observation/798a4f33-6dbf-45e2-b7de-16205c83eb7f"
      }, {
        "reference": "Observation/c690c351-6ab9-4523-803a-5cee04ad1601"
      }, {
        "reference": "Condition/720c8dd7-76b0-412e-a897-f17c7ace21fc"
      } ]
    },
    "request": {
      "method": "PUT",
      "url": "MeasureReport/b3cb6747-da11-48a0-932c-61de3d400ea9"
    }
  } ]
}