{
  "resourceType": "Bundle",
  "id": "612e6ac002c62a011f2eb21c",
  "type": "transaction",
  "entry": [ {
    "fullUrl": "https://madie.cms.gov/Patient/900f47c2-3615-4ffe-a9e0-3e7e70469ffb",
    "resource": {
      "resourceType": "Patient",
      "id": "900f47c2-3615-4ffe-a9e0-3e7e70469ffb",
      "meta": {
        "profile": [ "http://hl7.org/fhir/us/qicore/StructureDefinition/qicore-patient" ]
      },
      "text": {
        "status": "generated",
        "div": "<div xmlns=\"http://www.w3.org/1999/xhtml\"><div class=\"hapiHeaderText\">CMPerf_DuringED_EDendsOnEncStartTime <b>DENEXPASS </b></div><table class=\"hapiPropertyTable\"><tbody><tr><td>Identifier</td><td>8bdaf10da95f851378bfb130016c2122</td></tr><tr><td>Date of birth</td><td><span>02 January 1974</span></td></tr></tbody></table></div>"
      },
      "extension": [ {
        "url": "http://hl7.org/fhir/us/core/StructureDefinition/us-core-race",
        "extension": [ {
          "url": "ombCategory",
          "valueCoding": {
            "system": "urn:oid:2.16.840.1.113883.6.238",
            "code": "1002-5",
            "display": "American Indian or Alaska Native",
            "userSelected": true
          }
        }, {
          "url": "text",
          "valueString": "American Indian or Alaska Native"
        } ]
      }, {
        "url": "http://hl7.org/fhir/us/core/StructureDefinition/us-core-ethnicity",
        "extension": [ {
          "url": "ombCategory",
          "valueCoding": {
            "system": "urn:oid:2.16.840.1.113883.6.238",
            "code": "2135-2",
            "display": "Hispanic or Latino",
            "userSelected": true
          }
        }, {
          "url": "text",
          "valueString": "Hispanic or Latino"
        } ]
      } ],
      "identifier": [ {
        "type": {
          "coding": [ {
            "system": "http://terminology.hl7.org/CodeSystem/v2-0203",
            "code": "MR"
          } ]
        },
        "system": "https://bonnie-fhir.healthit.gov/",
        "value": "612e6ac002c62a011f2eb21c"
      } ],
      "active": true,
      "name": [ {
        "use": "usual",
        "family": "DENEXPass",
        "given": [ "CMPerfDuringEDEDendsOnEncStartTime" ]
      } ],
      "gender": "male",
      "birthDate": "1975-01-02"
    },
    "request": {
      "method": "PUT",
      "url": "Patient/900f47c2-3615-4ffe-a9e0-3e7e70469ffb"
    }
  }, {
    "fullUrl": "https://madie.cms.gov/Encounter/c3251278-1233-4b49-a0a4-0b70fc28a542",
    "resource": {
      "resourceType": "Encounter",
      "id": "c3251278-1233-4b49-a0a4-0b70fc28a542",
      "meta": {
        "profile": [ "http://hl7.org/fhir/us/qicore/StructureDefinition/qicore-encounter" ]
      },
      "status": "finished",
      "class": {
        "system": "http://terminology.hl7.org/CodeSystem/v3-ActCode",
        "code": "EMER",
        "display": "emergency"
      },
      "type": [ {
        "coding": [ {
          "system": "http://snomed.info/sct",
          "code": "4525004"
        } ]
      } ],
      "subject": {
        "reference": "Patient/900f47c2-3615-4ffe-a9e0-3e7e70469ffb"
      },
      "period": {
        "start": "2026-10-31T05:00:00.000+00:00",
        "end": "2026-11-01T08:00:00.000+00:00"
      },
      "length": {
        "value": 1,
        "unit": "days"
      }
    },
    "request": {
      "method": "PUT",
      "url": "Encounter/c3251278-1233-4b49-a0a4-0b70fc28a542"
    }
  }, {
    "fullUrl": "https://madie.cms.gov/Encounter/5dca965a-83b1-4ac9-af01-8d0180e042d8",
    "resource": {
      "resourceType": "Encounter",
      "id": "5dca965a-83b1-4ac9-af01-8d0180e042d8",
      "meta": {
        "profile": [ "http://hl7.org/fhir/us/qicore/StructureDefinition/qicore-encounter" ]
      },
      "status": "finished",
      "class": {
        "system": "http://terminology.hl7.org/CodeSystem/v3-ActCode",
        "code": "IMP",
        "display": "inpatient encounter"
      },
      "type": [ {
        "coding": [ {
          "system": "http://snomed.info/sct",
          "code": "8715000"
        } ]
      } ],
      "subject": {
        "reference": "Patient/900f47c2-3615-4ffe-a9e0-3e7e70469ffb"
      },
      "period": {
        "start": "2026-11-01T08:00:00.000+00:00",
        "end": "2026-11-26T08:15:00.000+00:00"
      },
      "length": {
        "value": 25,
        "unit": "days"
      }
    },
    "request": {
      "method": "PUT",
      "url": "Encounter/5dca965a-83b1-4ac9-af01-8d0180e042d8"
    }
  }, {
    "fullUrl": "https://madie.cms.gov/Procedure/86fe9be1-50fb-4cbb-a05d-572b1593a07c",
    "resource": {
      "resourceType": "Procedure",
      "id": "86fe9be1-50fb-4cbb-a05d-572b1593a07c",
      "meta": {
        "profile": [ "http://hl7.org/fhir/us/qicore/StructureDefinition/qicore-procedure" ]
      },
      "extension": [ {
        "url": "http://hl7.org/fhir/us/qicore/StructureDefinition/qicore-recorded",
        "valueDateTime": "2013-11-01T13:35:00.000+00:00"
      } ],
      "status": "completed",
      "code": {
        "coding": [ {
          "system": "http://snomed.info/sct",
          "code": "133918004"
        } ]
      },
      "subject": {
        "reference": "Patient/900f47c2-3615-4ffe-a9e0-3e7e70469ffb"
      },
      "performedPeriod": {
        "start": "2026-10-31T07:00:00.000+00:00"
      }
    },
    "request": {
      "method": "PUT",
      "url": "Procedure/86fe9be1-50fb-4cbb-a05d-572b1593a07c"
    }
  }, {
    "fullUrl": "https://madie.cms.gov/Coverage/725670e0-7f24-4c55-a005-1a9e57939419",
    "resource": {
      "resourceType": "Coverage",
      "id": "725670e0-7f24-4c55-a005-1a9e57939419",
      "status": "active",
      "beneficiary": {
        "reference": "Patient/900f47c2-3615-4ffe-a9e0-3e7e70469ffb"
      },
      "period": {
        "start": "1975-01-02T08:00:00.000+00:00"
      },
      "payor": [ {
        "reference": "Organization/333798de-2837-4ce4-8b47-85dd85a6cb9a"
      } ]
    },
    "request": {
      "method": "PUT",
      "url": "Coverage/725670e0-7f24-4c55-a005-1a9e57939419"
    }
  }, {
    "fullUrl": "https://madie.cms.gov/Organization/333798de-2837-4ce4-8b47-85dd85a6cb9a",
    "resource": {
      "resourceType": "Organization",
      "id": "333798de-2837-4ce4-8b47-85dd85a6cb9a",
      "meta": {
        "profile": [ "http://hl7.org/fhir/us/qicore/StructureDefinition/qicore-organization" ]
      },
      "identifier": [ {
        "use": "temp",
        "system": "urn:oid:2.16.840.1.113883.4.4",
        "value": "21-3259825"
      } ],
      "active": true,
      "type": [ {
        "coding": [ {
          "system": "http://terminology.hl7.org/CodeSystem/organization-type",
          "code": "pay",
          "display": "Payer"
        } ]
      } ],
      "name": "Blue Cross Blue Shield of Texas",
      "telecom": [ {
        "system": "phone",
        "value": "(+1) 972-766-6900"
      } ],
      "address": [ {
        "use": "billing",
        "type": "postal",
        "line": [ "P.O. Box 660044" ],
        "city": "Dallas",
        "state": "TX",
        "postalCode": "75266-0044",
        "country": "USA"
      } ]
    },
    "request": {
      "method": "PUT",
      "url": "Organization/333798de-2837-4ce4-8b47-85dd85a6cb9a"
    }
  }, {
    "fullUrl": "https://madie.cms.gov/Practitioner/a1ad181f-ee16-46fa-9e0c-2fe4ca79394e",
    "resource": {
      "resourceType": "Practitioner",
      "id": "a1ad181f-ee16-46fa-9e0c-2fe4ca79394e",
      "identifier": [ {
        "system": "http://hl7.org/fhir/sid/us-npi",
        "value": "123456"
      } ],
      "name": [ {
        "family": "Evil",
        "prefix": [ "Dr" ]
      } ]
    },
    "request": {
      "method": "PUT",
      "url": "Practitioner/a1ad181f-ee16-46fa-9e0c-2fe4ca79394e"
    }
  }, {
    "fullUrl": "https://madie.cms.gov/MeasureReport/6906ff0a-4ec6-4117-bd12-c6915ae43c79",
    "resource": {
      "resourceType": "MeasureReport",
      "id": "6906ff0a-4ec6-4117-bd12-c6915ae43c79",
      "meta": {
        "profile": [ "http://hl7.org/fhir/us/cqfmeasures/StructureDefinition/test-case-cqfm" ]
      },
      "contained": [ {
        "resourceType": "Parameters",
        "id": "2bbf1029-0f1b-4f6f-8789-fed880bb47cd-parameters",
        "parameter": [ {
          "name": "subject",
          "valueString": "900f47c2-3615-4ffe-a9e0-3e7e70469ffb"
        } ]
      } ],
      "extension": [ {
        "url": "http://hl7.org/fhir/StructureDefinition/cqf-inputParameters",
        "valueReference": {
          "reference": "#2bbf1029-0f1b-4f6f-8789-fed880bb47cd-parameters"
        }
      }, {
        "url": "http://hl7.org/fhir/us/cqfmeasures/StructureDefinition/cqfm-testCaseDescription",
        "valueMarkdown": "Comfort Measures Intervention Performed- during ED and ED end time is concurrent with EncInp start time.\n"
      } ],
      "modifierExtension": [ {
        "url": "http://hl7.org/fhir/us/cqfmeasures/StructureDefinition/cqfm-isTestCase",
        "valueBoolean": true
      } ],
      "status": "complete",
      "type": "individual",
      "measure": "https://madie.cms.gov/Measure/CMS108FHIRVTEProphylaxis",
      "period": {
        "start": "2026-01-01",
        "end": "2026-12-31"
      },
      "group": [ {
        "id": "Group_1",
        "population": [ {
          "id": "InitialPopulation_1",
          "code": {
            "coding": [ {
              "system": "http://terminology.hl7.org/CodeSystem/measure-population",
              "code": "initial-population",
              "display": "Initial Population"
            } ]
          },
          "count": 1
        }, {
          "id": "Denominator_1",
          "code": {
            "coding": [ {
              "system": "http://terminology.hl7.org/CodeSystem/measure-population",
              "code": "denominator",
              "display": "Denominator"
            } ]
          },
          "count": 1
        }, {
          "id": "DenominatorExclusion_1",
          "code": {
            "coding": [ {
              "system": "http://terminology.hl7.org/CodeSystem/measure-population",
              "code": "denominator-exclusion",
              "display": "Denominator Exclusion"
            } ]
          },
          "count": 1
        }, {
          "id": "Numerator_1",
          "code": {
            "coding": [ {
              "system": "http://terminology.hl7.org/CodeSystem/measure-population",
              "code": "numerator",
              "display": "Numerator"
            } ]
          },
          "count": 0
        } ],
        "measureScore": {
          "value": 0.0
        }
      } ],
      "evaluatedResource": [ {
        "reference": "Patient/900f47c2-3615-4ffe-a9e0-3e7e70469ffb"
      }, {
        "reference": "Encounter/c3251278-1233-4b49-a0a4-0b70fc28a542"
      }, {
        "reference": "Encounter/5dca965a-83b1-4ac9-af01-8d0180e042d8"
      }, {
        "reference": "Procedure/86fe9be1-50fb-4cbb-a05d-572b1593a07c"
      }, {
        "reference": "Coverage/725670e0-7f24-4c55-a005-1a9e57939419"
      }, {
        "reference": "Organization/333798de-2837-4ce4-8b47-85dd85a6cb9a"
      }, {
        "reference": "Practitioner/a1ad181f-ee16-46fa-9e0c-2fe4ca79394e"
      } ]
    },
    "request": {
      "method": "PUT",
      "url": "MeasureReport/6906ff0a-4ec6-4117-bd12-c6915ae43c79"
    }
  } ]
}