{
  "resourceType": "Bundle",
  "id": "632334c2414ba67d4e1d1c32",
  "type": "transaction",
  "entry": [ {
    "fullUrl": "https://madie.cms.gov/Patient/0e3be52f-723e-4df4-a584-337daa19e259",
    "resource": {
      "resourceType": "Patient",
      "id": "0e3be52f-723e-4df4-a584-337daa19e259",
      "meta": {
        "profile": [ "http://hl7.org/fhir/us/qicore/StructureDefinition/qicore-patient" ]
      },
      "extension": [ {
        "url": "http://hl7.org/fhir/us/core/StructureDefinition/us-core-race",
        "extension": [ {
          "url": "ombCategory",
          "valueCoding": {
            "system": "urn:oid:2.16.840.1.113883.6.238",
            "code": "2076-8",
            "display": "Native Hawaiian or Other Pacific Islander",
            "userSelected": true
          }
        }, {
          "url": "text",
          "valueString": "Native Hawaiian or Other Pacific Islander"
        } ]
      }, {
        "url": "http://hl7.org/fhir/us/core/StructureDefinition/us-core-ethnicity",
        "extension": [ {
          "url": "ombCategory",
          "valueCoding": {
            "system": "urn:oid:2.16.840.1.113883.6.238",
            "code": "2135-2",
            "display": "Hispanic or Latino",
            "userSelected": true
          }
        }, {
          "url": "text",
          "valueString": "Hispanic or Latino"
        } ]
      } ],
      "identifier": [ {
        "type": {
          "coding": [ {
            "system": "http://terminology.hl7.org/CodeSystem/v2-0203",
            "code": "MR"
          } ]
        },
        "system": "https://bonnie-fhir.healthit.gov/",
        "value": "632334c2414ba67d4e1d1c32"
      } ],
      "name": [ {
        "family": "DENEXPass",
        "given": [ "HospiceCareReferral" ]
      } ],
      "gender": "female",
      "birthDate": "2006-12-31"
    },
    "request": {
      "method": "PUT",
      "url": "Patient/0e3be52f-723e-4df4-a584-337daa19e259"
    }
  }, {
    "fullUrl": "https://madie.cms.gov/Encounter/de60cb2d-b25f-43a9-a700-2135adef38a2",
    "resource": {
      "resourceType": "Encounter",
      "id": "de60cb2d-b25f-43a9-a700-2135adef38a2",
      "meta": {
        "profile": [ "http://hl7.org/fhir/us/qicore/StructureDefinition/qicore-encounter" ]
      },
      "status": "finished",
      "class": {
        "system": "http://terminology.hl7.org/CodeSystem/v3-ActCode",
        "code": "IMP",
        "display": "inpatient"
      },
      "type": [ {
        "coding": [ {
          "system": "http://snomed.info/sct",
          "version": "2022-03",
          "code": "183452005",
          "display": "Emergency hospital admission (procedure)",
          "userSelected": true
        } ]
      } ],
      "subject": {
        "reference": "Patient/0e3be52f-723e-4df4-a584-337daa19e259"
      },
      "period": {
        "start": "2026-01-01T00:01:00.000+00:00",
        "end": "2026-01-02T08:30:00.000+00:00"
      },
      "hospitalization": {
        "dischargeDisposition": {
          "coding": [ {
            "system": "http://snomed.info/sct",
            "code": "183919006",
            "display": "Urgent admission to hospice (procedure)",
            "userSelected": true
          } ]
        }
      }
    },
    "request": {
      "method": "PUT",
      "url": "Encounter/de60cb2d-b25f-43a9-a700-2135adef38a2"
    }
  }, {
    "fullUrl": "https://madie.cms.gov/MedicationRequest/3a82f8d2-0518-497b-85d2-184672b7df25",
    "resource": {
      "resourceType": "MedicationRequest",
      "id": "3a82f8d2-0518-497b-85d2-184672b7df25",
      "meta": {
        "profile": [ "http://hl7.org/fhir/us/qicore/StructureDefinition/qicore-medicationrequest" ]
      },
      "status": "active",
      "intent": "order",
      "category": [ {
        "coding": [ {
          "system": "http://terminology.hl7.org/CodeSystem/medicationrequest-category",
          "code": "discharge",
          "display": "Discharge",
          "userSelected": true
        } ]
      } ],
      "doNotPerform": false,
      "medicationCodeableConcept": {
        "coding": [ {
          "system": "http://www.nlm.nih.gov/research/umls/rxnorm",
          "code": "1014599",
          "display": "acetaminophen 300 MG / oxycodone hydrochloride 10 MG Oral Tablet",
          "userSelected": true
        } ]
      },
      "subject": {
        "reference": "Patient/0e3be52f-723e-4df4-a584-337daa19e259"
      },
      "authoredOn": "2026-01-02T08:30:00.000+00:00",
      "requester": {
        "reference": "Practitioner/1ce7e0c3-c87d-42cf-b8c0-46cef3730f00"
      }
    },
    "request": {
      "method": "PUT",
      "url": "MedicationRequest/3a82f8d2-0518-497b-85d2-184672b7df25"
    }
  }, {
    "fullUrl": "https://madie.cms.gov/Practitioner/1ce7e0c3-c87d-42cf-b8c0-46cef3730f00",
    "resource": {
      "resourceType": "Practitioner",
      "id": "1ce7e0c3-c87d-42cf-b8c0-46cef3730f00",
      "meta": {
        "profile": [ "http://hl7.org/fhir/us/qicore/StructureDefinition/qicore-practitioner" ]
      },
      "identifier": [ {
        "system": "http://hl7.org/fhir/sid/us-npi",
        "value": "9999999896"
      } ],
      "active": true,
      "name": [ {
        "family": "Ramires",
        "given": [ "Alma" ],
        "prefix": [ "Dr" ]
      } ],
      "address": [ {
        "use": "home",
        "line": [ "534 Erewhon St" ],
        "city": "Netherville",
        "state": "IN",
        "postalCode": "46131"
      } ],
      "qualification": [ {
        "identifier": [ {
          "system": "http://goodhealth.org/prIdentifier",
          "value": "12345"
        } ],
        "code": {
          "coding": [ {
            "system": "http://terminology.hl7.org/CodeSystem/v2-0360|2.7",
            "code": "BS",
            "display": "Bachelor of Science"
          } ],
          "text": "Bachelor of Science"
        },
        "period": {
          "start": "1995"
        },
        "issuer": {
          "display": "Example University"
        }
      } ]
    },
    "request": {
      "method": "PUT",
      "url": "Practitioner/1ce7e0c3-c87d-42cf-b8c0-46cef3730f00"
    }
  }, {
    "fullUrl": "https://madie.cms.gov/Coverage/d6914b26-64a9-418d-84f9-5ff003403caf",
    "resource": {
      "resourceType": "Coverage",
      "id": "d6914b26-64a9-418d-84f9-5ff003403caf",
      "meta": {
        "profile": [ "http://hl7.org/fhir/us/qicore/StructureDefinition/qicore-coverage" ]
      },
      "status": "active",
      "subscriberId": "523435",
      "beneficiary": {
        "reference": "Patient/0e3be52f-723e-4df4-a584-337daa19e259"
      },
      "relationship": {
        "coding": [ {
          "system": "http://terminology.hl7.org/CodeSystem/subscriber-relationship",
          "code": "self"
        } ]
      },
      "payor": [ {
        "reference": "Organization/aa70610e-c582-4ac1-b9ff-e21531a4b93e"
      } ]
    },
    "request": {
      "method": "PUT",
      "url": "Coverage/d6914b26-64a9-418d-84f9-5ff003403caf"
    }
  }, {
    "fullUrl": "https://madie.cms.gov/Organization/aa70610e-c582-4ac1-b9ff-e21531a4b93e",
    "resource": {
      "resourceType": "Organization",
      "id": "aa70610e-c582-4ac1-b9ff-e21531a4b93e",
      "meta": {
        "profile": [ "http://hl7.org/fhir/us/qicore/StructureDefinition/qicore-organization" ]
      },
      "identifier": [ {
        "use": "temp",
        "system": "urn:oid:2.16.840.1.113883.4.4",
        "value": "21-3259825"
      } ],
      "active": true,
      "type": [ {
        "coding": [ {
          "system": "http://terminology.hl7.org/CodeSystem/organization-type",
          "code": "pay",
          "display": "Payer"
        } ]
      } ],
      "name": "Blue Cross Blue Shield of Texas",
      "telecom": [ {
        "system": "phone",
        "value": "(+1) 972-766-6900"
      } ],
      "address": [ {
        "use": "billing",
        "type": "postal",
        "line": [ "P.O. Box 660044" ],
        "city": "Dallas",
        "state": "TX",
        "postalCode": "75266-0044",
        "country": "USA"
      } ]
    },
    "request": {
      "method": "PUT",
      "url": "Organization/aa70610e-c582-4ac1-b9ff-e21531a4b93e"
    }
  }, {
    "fullUrl": "https://madie.cms.gov/MeasureReport/4266f113-3493-4809-b49f-c2cd7f060b04",
    "resource": {
      "resourceType": "MeasureReport",
      "id": "4266f113-3493-4809-b49f-c2cd7f060b04",
      "meta": {
        "profile": [ "http://hl7.org/fhir/us/cqfmeasures/StructureDefinition/test-case-cqfm" ]
      },
      "contained": [ {
        "resourceType": "Parameters",
        "id": "19cbf28e-dfd3-478f-95f7-e74a1f8cfecf-parameters",
        "parameter": [ {
          "name": "subject",
          "valueString": "0e3be52f-723e-4df4-a584-337daa19e259"
        } ]
      } ],
      "extension": [ {
        "url": "http://hl7.org/fhir/StructureDefinition/cqf-inputParameters",
        "valueReference": {
          "reference": "#19cbf28e-dfd3-478f-95f7-e74a1f8cfecf-parameters"
        }
      }, {
        "url": "http://hl7.org/fhir/us/cqfmeasures/StructureDefinition/cqfm-testCaseDescription",
        "valueMarkdown": "Age18, Encounter 01/01 -01/02,  00:01  of MP, 1 opioid ordered 1/2 @ 0830, discharge disposition of hospice "
      } ],
      "modifierExtension": [ {
        "url": "http://hl7.org/fhir/us/cqfmeasures/StructureDefinition/cqfm-isTestCase",
        "valueBoolean": true
      } ],
      "status": "complete",
      "type": "individual",
      "measure": "https://madie.cms.gov/Measure/CMS506FHIRSafeUseofOpioids",
      "period": {
        "start": "2026-01-01",
        "end": "2026-12-31"
      },
      "group": [ {
        "id": "Group_1",
        "population": [ {
          "id": "InitialPopulation_1",
          "code": {
            "coding": [ {
              "system": "http://terminology.hl7.org/CodeSystem/measure-population",
              "code": "initial-population",
              "display": "Initial Population"
            } ]
          },
          "count": 1
        }, {
          "id": "Denominator_1",
          "code": {
            "coding": [ {
              "system": "http://terminology.hl7.org/CodeSystem/measure-population",
              "code": "denominator",
              "display": "Denominator"
            } ]
          },
          "count": 1
        }, {
          "id": "DenominatorExclusion_1",
          "code": {
            "coding": [ {
              "system": "http://terminology.hl7.org/CodeSystem/measure-population",
              "code": "denominator-exclusion",
              "display": "Denominator Exclusion"
            } ]
          },
          "count": 1
        }, {
          "id": "Numerator_1",
          "code": {
            "coding": [ {
              "system": "http://terminology.hl7.org/CodeSystem/measure-population",
              "code": "numerator",
              "display": "Numerator"
            } ]
          },
          "count": 0
        } ],
        "measureScore": {
          "value": 0.0
        }
      } ],
      "evaluatedResource": [ {
        "reference": "Patient/0e3be52f-723e-4df4-a584-337daa19e259"
      }, {
        "reference": "Encounter/de60cb2d-b25f-43a9-a700-2135adef38a2"
      }, {
        "reference": "MedicationRequest/3a82f8d2-0518-497b-85d2-184672b7df25"
      }, {
        "reference": "Practitioner/1ce7e0c3-c87d-42cf-b8c0-46cef3730f00"
      }, {
        "reference": "Coverage/d6914b26-64a9-418d-84f9-5ff003403caf"
      }, {
        "reference": "Organization/aa70610e-c582-4ac1-b9ff-e21531a4b93e"
      } ]
    },
    "request": {
      "method": "PUT",
      "url": "MeasureReport/4266f113-3493-4809-b49f-c2cd7f060b04"
    }
  } ]
}