{
    "entry": [
        {
            "request": {
                "method": "PUT",
                "url": "Patient/ad737f80-c9ea-41fd-a142-78d9c80a9c7c"
            },
            "resource": {
                "identifier": [{
                    "system": "https://bonnie-fhir.healthit.gov/",
                    "type": {"coding": [{
                        "system": "http://terminology.hl7.org/CodeSystem/v2-0203",
                        "code": "MR"
                    }]},
                    "value": "62d0897dab06d8c02b5741cd"
                }],
                "extension": [
                    {
                        "extension": [
                            {
                                "valueCoding": {
                                    "system": "urn:oid:2.16.840.1.113883.6.238",
                                    "code": "2054-5",
                                    "userSelected": true,
                                    "display": "Black or African American"
                                },
                                "url": "ombCategory"
                            },
                            {
                                "valueString": "Black or African American",
                                "url": "text"
                            }
                        ],
                        "url": "http://hl7.org/fhir/us/core/StructureDefinition/us-core-race"
                    },
                    {
                        "extension": [
                            {
                                "valueCoding": {
                                    "system": "urn:oid:2.16.840.1.113883.6.238",
                                    "code": "2135-2",
                                    "userSelected": true,
                                    "display": "Hispanic or Latino"
                                },
                                "url": "ombCategory"
                            },
                            {
                                "valueString": "Hispanic or Latino",
                                "url": "text"
                            }
                        ],
                        "url": "http://hl7.org/fhir/us/core/StructureDefinition/us-core-ethnicity"
                    }
                ],
                "gender": "male",
                "meta": {"profile": ["http://hl7.org/fhir/us/qicore/StructureDefinition/qicore-patient"]},
                "name": [{
                    "given": ["HTN140DeclinedNonPharm"],
                    "family": "DENEXCEPPass"
                }],
                "id": "ad737f80-c9ea-41fd-a142-78d9c80a9c7c",
                "birthDate": "2006-01-31",
                "resourceType": "Patient"
            },
            "fullUrl": "https://madie.cms.gov/Patient/ad737f80-c9ea-41fd-a142-78d9c80a9c7c"
        },
        {
            "request": {
                "method": "PUT",
                "url": "Encounter/3247f5e0-be9a-4fd7-81d5-15c8733f7ffe"
            },
            "resource": {
                "period": {
                    "start": "2026-01-01T08:00:00.000+00:00",
                    "end": "2026-01-01T08:30:00.000+00:00"
                },
                "meta": {"profile": ["http://hl7.org/fhir/us/qicore/StructureDefinition/qicore-encounter"]},
                "subject": {"reference": "Patient/ad737f80-c9ea-41fd-a142-78d9c80a9c7c"},
                "id": "3247f5e0-be9a-4fd7-81d5-15c8733f7ffe",
                "type": [{"coding": [{
                    "system": "http://snomed.info/sct",
                    "code": "103705002",
                    "userSelected": true,
                    "display": "Patient status observation (procedure)",
                    "version": "2022-03"
                }]}],
                "class": {
                    "system": "http://terminology.hl7.org/CodeSystem/v3-ActCode",
                    "code": "AMB",
                    "display": "ambulatory"
                },
                "resourceType": "Encounter",
                "status": "finished"
            },
            "fullUrl": "https://madie.cms.gov/Encounter/3247f5e0-be9a-4fd7-81d5-15c8733f7ffe"
        },
        {
            "request": {
                "method": "PUT",
                "url": "Observation/c56cf7df-dca4-4256-8a06-c6afdaf3e738"
            },
            "resource": {
                "component": [
                    {
                        "code": {"coding": [{
                            "system": "http://loinc.org",
                            "code": "8480-6",
                            "display": "Systolic blood pressure"
                        }]},
                        "valueQuantity": {
                            "unit": "mmHg",
                            "system": "http://unitsofmeasure.org",
                            "code": "mm[Hg]",
                            "value": 140
                        }
                    },
                    {
                        "code": {"coding": [{
                            "system": "http://loinc.org",
                            "code": "8462-4",
                            "display": "Diastolic blood pressure"
                        }]},
                        "valueQuantity": {
                            "unit": "mmHg",
                            "system": "http://unitsofmeasure.org",
                            "code": "mm[Hg]",
                            "value": 79
                        }
                    }
                ],
                "code": {"coding": [{
                    "system": "http://loinc.org",
                    "code": "85354-9",
                    "display": "Blood pressure panel"
                }]},
                "effectiveDateTime": "2026-01-01T08:05:00.000+00:00",
                "meta": {"profile": ["http://hl7.org/fhir/us/core/StructureDefinition/us-core-blood-pressure"]},
                "subject": {"reference": "Patient/ad737f80-c9ea-41fd-a142-78d9c80a9c7c"},
                "id": "c56cf7df-dca4-4256-8a06-c6afdaf3e738",
                "category": [{
                    "coding": [{
                        "system": "http://terminology.hl7.org/CodeSystem/observation-category",
                        "code": "vital-signs",
                        "display": "Vital Signs"
                    }],
                    "text": "Vital Signs"
                }],
                "resourceType": "Observation",
                "status": "final"
            },
            "fullUrl": "https://madie.cms.gov/Observation/c56cf7df-dca4-4256-8a06-c6afdaf3e738"
        },
        {
            "request": {
                "method": "PUT",
                "url": "ServiceRequest/2d42f9f9-961e-4f90-9eb4-5c193e980dd7"
            },
            "resource": {
                "extension": [{
                    "valueCodeableConcept": {"coding": [{
                        "system": "http://snomed.info/sct",
                        "code": "1296859006",
                        "userSelected": true,
                        "display": "Procedure declined by patient (situation)"
                    }]},
                    "url": "http://hl7.org/fhir/us/qicore/StructureDefinition/qicore-doNotPerformReason"
                }],
                "code": {"coding": [{
                    "system": "http://snomed.info/sct",
                    "code": "1181000175107",
                    "userSelected": true,
                    "display": "Recommendation to lose weight (procedure)",
                    "version": "2022-03"
                }]},
                "authoredOn": "2026-01-01T08:05:00.000+00:00",
                "meta": {"profile": ["http://hl7.org/fhir/us/qicore/StructureDefinition/qicore-servicenotrequested"]},
                "subject": {"reference": "Patient/ad737f80-c9ea-41fd-a142-78d9c80a9c7c"},
                "id": "2d42f9f9-961e-4f90-9eb4-5c193e980dd7",
                "doNotPerform": true,
                "intent": "order",
                "resourceType": "ServiceRequest",
                "status": "completed"
            },
            "fullUrl": "https://madie.cms.gov/ServiceRequest/2d42f9f9-961e-4f90-9eb4-5c193e980dd7"
        },
        {
            "request": {
                "method": "PUT",
                "url": "Coverage/068d3de6-5850-4d2c-a44d-1a1994fcd73f"
            },
            "resource": {
                "payor": [{"reference": "Organization/4c0057f7-eb7a-478f-b8e5-fbd8dd78f048"}],
                "beneficiary": {"reference": "Patient/ad737f80-c9ea-41fd-a142-78d9c80a9c7c"},
                "meta": {"profile": ["http://hl7.org/fhir/us/qicore/StructureDefinition/qicore-coverage"]},
                "id": "068d3de6-5850-4d2c-a44d-1a1994fcd73f",
                "resourceType": "Coverage",
                "status": "active"
            },
            "fullUrl": "https://madie.cms.gov/Coverage/068d3de6-5850-4d2c-a44d-1a1994fcd73f"
        },
        {
            "request": {
                "method": "PUT",
                "url": "Organization/4c0057f7-eb7a-478f-b8e5-fbd8dd78f048"
            },
            "resource": {
                "identifier": [{
                    "system": "urn:oid:2.16.840.1.113883.4.4",
                    "use": "temp",
                    "value": "21-3259825"
                }],
                "address": [{
                    "country": "USA",
                    "city": "Dallas",
                    "use": "billing",
                    "line": ["P.O. Box 660044"],
                    "postalCode": "75266-0044",
                    "state": "TX",
                    "type": "postal"
                }],
                "meta": {"profile": ["http://hl7.org/fhir/us/qicore/StructureDefinition/qicore-organization"]},
                "name": "Blue Cross Blue Shield of Texas",
                "active": true,
                "telecom": [{
                    "system": "phone",
                    "value": "(+1) 972-766-6900"
                }],
                "id": "4c0057f7-eb7a-478f-b8e5-fbd8dd78f048",
                "type": [{"coding": [{
                    "system": "http://terminology.hl7.org/CodeSystem/organization-type",
                    "code": "pay",
                    "display": "Payer"
                }]}],
                "resourceType": "Organization"
            },
            "fullUrl": "https://madie.cms.gov/Organization/4c0057f7-eb7a-478f-b8e5-fbd8dd78f048"
        },
        {
            "request": {
                "method": "PUT",
                "url": "Practitioner/4835bbb2-62fe-495d-aefa-6d150d088e09"
            },
            "resource": {
                "identifier": [{
                    "system": "http://hl7.org/fhir/sid/us-npi",
                    "value": "123456"
                }],
                "meta": {"profile": ["http://hl7.org/fhir/us/qicore/StructureDefinition/qicore-practitioner"]},
                "name": [{
                    "prefix": ["Dr"],
                    "family": "Evil"
                }],
                "id": "4835bbb2-62fe-495d-aefa-6d150d088e09",
                "resourceType": "Practitioner"
            },
            "fullUrl": "https://madie.cms.gov/Practitioner/4835bbb2-62fe-495d-aefa-6d150d088e09"
        },
        {
            "request": {
                "method": "PUT",
                "url": "MeasureReport/a9eed777-077b-4093-aa98-ddf4b0682d40"
            },
            "resource": {
                "contained": [{
                    "parameter": [{
                        "valueString": "ad737f80-c9ea-41fd-a142-78d9c80a9c7c",
                        "name": "subject"
                    }],
                    "id": "f60684e9-752e-4e06-af89-511c6b683c98-parameters",
                    "resourceType": "Parameters"
                }],
                "extension": [
                    {
                        "valueReference": {"reference": "#f60684e9-752e-4e06-af89-511c6b683c98-parameters"},
                        "url": "http://hl7.org/fhir/StructureDefinition/cqf-inputParameters"
                    },
                    {
                        "valueMarkdown": "Encounter 01/01 0800-0830 during MP, BP 140/79 indicate HTN, patient declined recommendation to reduce weight",
                        "url": "http://hl7.org/fhir/us/cqfmeasures/StructureDefinition/cqfm-testCaseDescription"
                    }
                ],
                "period": {
                    "start": "2026-01-01",
                    "end": "2026-12-31"
                },
                "measure": "https://madie.cms.gov/Measure/CMS22FHIRPCSBPScreeningFollowUp",
                "meta": {"profile": ["http://hl7.org/fhir/us/cqfmeasures/StructureDefinition/test-case-cqfm"]},
                "modifierExtension": [{
                    "valueBoolean": true,
                    "url": "http://hl7.org/fhir/us/cqfmeasures/StructureDefinition/cqfm-isTestCase"
                }],
                "id": "a9eed777-077b-4093-aa98-ddf4b0682d40",
                "evaluatedResource": [
                    {"reference": "Patient/ad737f80-c9ea-41fd-a142-78d9c80a9c7c"},
                    {"reference": "Encounter/3247f5e0-be9a-4fd7-81d5-15c8733f7ffe"},
                    {"reference": "Observation/c56cf7df-dca4-4256-8a06-c6afdaf3e738"},
                    {"reference": "ServiceRequest/2d42f9f9-961e-4f90-9eb4-5c193e980dd7"},
                    {"reference": "Coverage/068d3de6-5850-4d2c-a44d-1a1994fcd73f"},
                    {"reference": "Organization/4c0057f7-eb7a-478f-b8e5-fbd8dd78f048"},
                    {"reference": "Practitioner/4835bbb2-62fe-495d-aefa-6d150d088e09"}
                ],
                "type": "individual",
                "resourceType": "MeasureReport",
                "status": "complete",
                "group": [{
                    "id": "Group_1",
                    "measureScore": {"value": 0},
                    "population": [
                        {
                            "code": {"coding": [{
                                "system": "http://terminology.hl7.org/CodeSystem/measure-population",
                                "code": "initial-population",
                                "display": "Initial Population"
                            }]},
                            "count": 1,
                            "id": "InitialPopulation_1"
                        },
                        {
                            "code": {"coding": [{
                                "system": "http://terminology.hl7.org/CodeSystem/measure-population",
                                "code": "denominator",
                                "display": "Denominator"
                            }]},
                            "count": 1,
                            "id": "Denominator_1"
                        },
                        {
                            "code": {"coding": [{
                                "system": "http://terminology.hl7.org/CodeSystem/measure-population",
                                "code": "denominator-exclusion",
                                "display": "Denominator Exclusion"
                            }]},
                            "count": 0,
                            "id": "DenominatorExclusion_1"
                        },
                        {
                            "code": {"coding": [{
                                "system": "http://terminology.hl7.org/CodeSystem/measure-population",
                                "code": "numerator",
                                "display": "Numerator"
                            }]},
                            "count": 0,
                            "id": "Numerator_1"
                        },
                        {
                            "code": {"coding": [{
                                "system": "http://terminology.hl7.org/CodeSystem/measure-population",
                                "code": "denominator-exception",
                                "display": "Denominator Exception"
                            }]},
                            "count": 1,
                            "id": "DenominatorException_1"
                        }
                    ]
                }]
            },
            "fullUrl": "https://madie.cms.gov/MeasureReport/a9eed777-077b-4093-aa98-ddf4b0682d40"
        }
    ],
    "id": "62d0897dab06d8c02b5741cd",
    "type": "transaction",
    "resourceType": "Bundle"
}