{
  "resourceType": "Bundle",
  "id": "60f82c2f98086b570510e2a7",
  "type": "transaction",
  "entry": [ {
    "fullUrl": "https://madie.cms.gov/Patient/11fc1901-7cc7-46c6-bbd0-58b614082170",
    "resource": {
      "resourceType": "Patient",
      "id": "11fc1901-7cc7-46c6-bbd0-58b614082170",
      "meta": {
        "profile": [ "http://hl7.org/fhir/us/qicore/StructureDefinition/qicore-patient" ]
      },
      "text": {
        "status": "generated",
        "div": "<div xmlns=\"http://www.w3.org/1999/xhtml\"><div class=\"hapiHeaderText\">INR1DayBFEncStart_NoEDNoObsBFEnc <b>DENEXCEPFAIL </b></div><table class=\"hapiPropertyTable\"><tbody><tr><td>Identifier</td><td>82ca1a5f2a06865800221d359dc5cd926ad16d8dec44c23f113683d4361f9002</td></tr><tr><td>Date of birth</td><td><span>26 September 1975</span></td></tr></tbody></table></div>"
      },
      "extension": [ {
        "url": "http://hl7.org/fhir/us/core/StructureDefinition/us-core-race",
        "extension": [ {
          "url": "ombCategory",
          "valueCoding": {
            "system": "urn:oid:2.16.840.1.113883.6.238",
            "code": "2054-5",
            "display": "Black or African American",
            "userSelected": true
          }
        }, {
          "url": "text",
          "valueString": "Black or African American"
        } ]
      }, {
        "url": "http://hl7.org/fhir/us/core/StructureDefinition/us-core-ethnicity",
        "extension": [ {
          "url": "ombCategory",
          "valueCoding": {
            "system": "urn:oid:2.16.840.1.113883.6.238",
            "code": "2186-5",
            "display": "Not Hispanic or Latino",
            "userSelected": true
          }
        }, {
          "url": "text",
          "valueString": "Not Hispanic or Latino"
        } ]
      } ],
      "identifier": [ {
        "type": {
          "coding": [ {
            "system": "http://terminology.hl7.org/CodeSystem/v2-0203",
            "code": "MR"
          } ]
        },
        "system": "https://bonnie-fhir.healthit.gov/",
        "value": "60f82c2f98086b570510e2a7"
      } ],
      "active": true,
      "name": [ {
        "use": "usual",
        "family": "DENEXCEPFail",
        "given": [ "INR1DayBFEncStart_NoEDNoObsBFEnc" ]
      } ],
      "gender": "female",
      "birthDate": "1976-09-26"
    },
    "request": {
      "method": "PUT",
      "url": "Patient/11fc1901-7cc7-46c6-bbd0-58b614082170"
    }
  }, {
    "fullUrl": "https://madie.cms.gov/Encounter/e981a873-7970-4f94-93bb-bbaa36195a22",
    "resource": {
      "resourceType": "Encounter",
      "id": "e981a873-7970-4f94-93bb-bbaa36195a22",
      "meta": {
        "profile": [ "http://hl7.org/fhir/us/qicore/StructureDefinition/qicore-encounter" ]
      },
      "status": "finished",
      "class": {
        "system": "http://terminology.hl7.org/CodeSystem/v3-ActCode",
        "code": "IMP",
        "display": "inpatient encounter",
        "userSelected": true
      },
      "type": [ {
        "coding": [ {
          "system": "http://snomed.info/sct",
          "code": "32485007"
        } ]
      } ],
      "subject": {
        "reference": "Patient/11fc1901-7cc7-46c6-bbd0-58b614082170"
      },
      "period": {
        "start": "2026-10-11T06:15:00Z",
        "end": "2026-10-15T11:30:00.000+00:00"
      },
      "length": {
        "value": 4,
        "unit": "days"
      },
      "reasonReference": [ {
        "reference": "Condition/57bad2e8-74f0-4d70-a22e-cfd70bce6a67"
      } ]
    },
    "request": {
      "method": "PUT",
      "url": "Encounter/e981a873-7970-4f94-93bb-bbaa36195a22"
    }
  }, {
    "fullUrl": "https://madie.cms.gov/claim/5ca62962b8484628b8de1ec5",
    "resource": {
      "resourceType": "Claim",
      "id": "5ca62962b8484628b8de1ec5",
      "meta": {
        "profile": [ "http://hl7.org/fhir/us/qicore/StructureDefinition/qicore-claim" ]
      },
      "status": "active",
      "type": {
        "coding": [ {
          "system": "http://terminology.hl7.org/CodeSystem/claim-type",
          "code": "institutional"
        } ]
      },
      "use": "claim",
      "patient": {
        "reference": "Patient/d170a0a8-b5ad-4303-b6df-e304dd5f92ad"
      },
      "created": "2026-12-01",
      "provider": {
        "reference": "Practitioner/practitioner-123456"
      },
      "priority": {
        "coding": [ {
          "system": "http://terminology.hl7.org/CodeSystem/processpriority",
          "code": "normal"
        } ]
      },
      "diagnosis": [ {
        "sequence": 1,
        "diagnosisCodeableConcept": {
          "coding": [ {
            "system": "http://hl7.org/fhir/sid/icd-10-cm",
            "code": "I63.00"
          } ]
        },
        "type": [ {
          "coding": [ {
            "system": "http://terminology.hl7.org/CodeSystem/ex-diagnosistype",
            "code": "principal"
          } ]
        } ]
      } ],
      "insurance": [ {
        "sequence": 1,
        "focal": true,
        "coverage": {
          "reference": "Coverage/5fa041661c76ba66d9959367"
        }
      } ],
      "item": [ {
        "sequence": 1,
        "diagnosisSequence": [ 1 ],
        "productOrService": {
          "coding": [ {
            "system": "http://terminology.hl7.org/CodeSystem/ex-USCLS",
            "code": "99555"
          } ]
        },
        "encounter": [ {
          "reference": "Encounter/e981a873-7970-4f94-93bb-bbaa36195a22"
        } ]
      } ]
    },
    "request": {
      "method": "PUT",
      "url": "Claim/5ca62962b8484628b8de1ec5"
    }
  }, {
    "fullUrl": "https://madie.cms.gov/Observation/e31e940f-8c82-46e2-9eb2-0d279ecfdc9d",
    "resource": {
      "resourceType": "Observation",
      "id": "e31e940f-8c82-46e2-9eb2-0d279ecfdc9d",
      "meta": {
        "profile": [ "http://hl7.org/fhir/us/qicore/StructureDefinition/qicore-observation-lab" ]
      },
      "status": "final",
      "category": [ {
        "coding": [ {
          "system": "http://terminology.hl7.org/CodeSystem/observation-category",
          "code": "laboratory",
          "display": "Laboratory"
        } ]
      } ],
      "code": {
        "coding": [ {
          "system": "http://loinc.org",
          "code": "34714-6"
        } ]
      },
      "subject": {
        "reference": "Patient/11fc1901-7cc7-46c6-bbd0-58b614082170"
      },
      "effectiveDateTime": "2026-10-10T06:14:00Z",
      "issued": "2026-10-10T06:13:00.000+00:00",
      "valueQuantity": {
        "value": 3.6
      }
    },
    "request": {
      "method": "PUT",
      "url": "Observation/e31e940f-8c82-46e2-9eb2-0d279ecfdc9d"
    }
  }, {
    "fullUrl": "https://madie.cms.gov/Coverage/13b6378e-0cf2-4465-ab9d-d06450aa7011",
    "resource": {
      "resourceType": "Coverage",
      "id": "13b6378e-0cf2-4465-ab9d-d06450aa7011",
      "status": "active",
      "subscriberId": "523435",
      "beneficiary": {
        "reference": "Patient/11fc1901-7cc7-46c6-bbd0-58b614082170"
      },
      "relationship": {
        "coding": [ {
          "system": "http://terminology.hl7.org/CodeSystem/subscriber-relationship",
          "code": "self"
        } ]
      },
      "period": {
        "start": "1976-09-26T08:00:00Z"
      },
      "payor": [ {
        "reference": "Organization/9fca8461-cb01-4809-a849-c0a164c7150a"
      } ]
    },
    "request": {
      "method": "PUT",
      "url": "Coverage/13b6378e-0cf2-4465-ab9d-d06450aa7011"
    }
  }, {
    "fullUrl": "https://madie.cms.gov/Condition/57bad2e8-74f0-4d70-a22e-cfd70bce6a67",
    "resource": {
      "resourceType": "Condition",
      "id": "57bad2e8-74f0-4d70-a22e-cfd70bce6a67",
      "meta": {
        "profile": [ "http://hl7.org/fhir/us/qicore/StructureDefinition/qicore-condition-encounter-diagnosis" ]
      },
      "clinicalStatus": {
        "coding": [ {
          "system": "http://terminology.hl7.org/CodeSystem/condition-clinical",
          "code": "active"
        } ]
      },
      "verificationStatus": {
        "coding": [ {
          "system": "http://terminology.hl7.org/CodeSystem/condition-ver-status",
          "code": "confirmed"
        } ]
      },
      "category": [ {
        "coding": [ {
          "system": "http://terminology.hl7.org/CodeSystem/condition-category",
          "code": "encounter-diagnosis",
          "display": "Encounter Diagnosis"
        } ]
      } ],
      "code": {
        "coding": [ {
          "system": "http://snomed.info/sct",
          "version": "2020-09",
          "code": "111297002",
          "display": "Nonparalytic stroke (disorder)",
          "userSelected": true
        } ]
      },
      "subject": {
        "reference": "Patient/11fc1901-7cc7-46c6-bbd0-58b614082170"
      },
      "recordedDate": "2026-07-28T08:00:00Z"
    },
    "request": {
      "method": "PUT",
      "url": "Condition/57bad2e8-74f0-4d70-a22e-cfd70bce6a67"
    }
  }, {
    "fullUrl": "https://madie.cms.gov/Organization/9fca8461-cb01-4809-a849-c0a164c7150a",
    "resource": {
      "resourceType": "Organization",
      "id": "9fca8461-cb01-4809-a849-c0a164c7150a",
      "meta": {
        "profile": [ "http://hl7.org/fhir/us/qicore/StructureDefinition/qicore-organization" ]
      },
      "identifier": [ {
        "use": "temp",
        "system": "urn:oid:2.16.840.1.113883.4.4",
        "value": "21-3259825"
      } ],
      "active": true,
      "type": [ {
        "coding": [ {
          "system": "http://terminology.hl7.org/CodeSystem/organization-type",
          "code": "pay",
          "display": "Payer"
        } ]
      } ],
      "name": "Blue Cross Blue Shield of Texas",
      "telecom": [ {
        "system": "phone",
        "value": "(+1) 972-766-6900"
      } ],
      "address": [ {
        "use": "billing",
        "type": "postal",
        "line": [ "P.O. Box 660044" ],
        "city": "Dallas",
        "state": "TX",
        "postalCode": "75266-0044",
        "country": "USA"
      } ]
    },
    "request": {
      "method": "PUT",
      "url": "Organization/9fca8461-cb01-4809-a849-c0a164c7150a"
    }
  }, {
    "fullUrl": "https://madie.cms.gov/MeasureReport/bb5abab8-8549-4ced-8588-736ad38cfe8b",
    "resource": {
      "resourceType": "MeasureReport",
      "id": "bb5abab8-8549-4ced-8588-736ad38cfe8b",
      "meta": {
        "profile": [ "http://hl7.org/fhir/us/cqfmeasures/StructureDefinition/test-case-cqfm" ]
      },
      "contained": [ {
        "resourceType": "Parameters",
        "id": "37574650-5509-432c-8f8c-a5b137eb4a36-parameters",
        "parameter": [ {
          "name": "subject",
          "valueString": "11fc1901-7cc7-46c6-bbd0-58b614082170"
        } ]
      } ],
      "extension": [ {
        "url": "http://hl7.org/fhir/StructureDefinition/cqf-inputParameters",
        "valueReference": {
          "reference": "#37574650-5509-432c-8f8c-a5b137eb4a36-parameters"
        }
      }, {
        "url": "http://hl7.org/fhir/us/cqfmeasures/StructureDefinition/cqfm-testCaseDescription",
        "valueMarkdown": "Patient receives INR 1 day before IP start. No ED. No Obs. Testing Day of operator with HospitalizationWithObservation function.\n"
      } ],
      "modifierExtension": [ {
        "url": "http://hl7.org/fhir/us/cqfmeasures/StructureDefinition/cqfm-isTestCase",
        "valueBoolean": true
      } ],
      "status": "complete",
      "type": "individual",
      "measure": "https://madie.cms.gov/Measure/CMS72FHIRSTKAntithromboticDay2",
      "period": {
        "start": "2026-01-01",
        "end": "2026-12-31"
      },
      "group": [ {
        "id": "Group_1",
        "population": [ {
          "id": "InitialPopulation_1",
          "code": {
            "coding": [ {
              "system": "http://terminology.hl7.org/CodeSystem/measure-population",
              "code": "initial-population",
              "display": "Initial Population"
            } ]
          },
          "count": 1
        }, {
          "id": "Denominator_1",
          "code": {
            "coding": [ {
              "system": "http://terminology.hl7.org/CodeSystem/measure-population",
              "code": "denominator",
              "display": "Denominator"
            } ]
          },
          "count": 1
        }, {
          "id": "DenominatorExclusion_1",
          "code": {
            "coding": [ {
              "system": "http://terminology.hl7.org/CodeSystem/measure-population",
              "code": "denominator-exclusion",
              "display": "Denominator Exclusion"
            } ]
          },
          "count": 0
        }, {
          "id": "Numerator_1",
          "code": {
            "coding": [ {
              "system": "http://terminology.hl7.org/CodeSystem/measure-population",
              "code": "numerator",
              "display": "Numerator"
            } ]
          },
          "count": 0
        }, {
          "id": "DenominatorException_1",
          "code": {
            "coding": [ {
              "system": "http://terminology.hl7.org/CodeSystem/measure-population",
              "code": "denominator-exception",
              "display": "Denominator Exception"
            } ]
          },
          "count": 0
        } ],
        "measureScore": {
          "value": 0.0
        }
      } ],
      "evaluatedResource": [ {
        "reference": "Patient/11fc1901-7cc7-46c6-bbd0-58b614082170"
      }, {
        "reference": "Encounter/e981a873-7970-4f94-93bb-bbaa36195a22"
      }, {
        "reference": "Claim/5ca62962b8484628b8de1ec5"
      }, {
        "reference": "Observation/e31e940f-8c82-46e2-9eb2-0d279ecfdc9d"
      }, {
        "reference": "Coverage/13b6378e-0cf2-4465-ab9d-d06450aa7011"
      }, {
        "reference": "Condition/57bad2e8-74f0-4d70-a22e-cfd70bce6a67"
      }, {
        "reference": "Organization/9fca8461-cb01-4809-a849-c0a164c7150a"
      } ]
    },
    "request": {
      "method": "PUT",
      "url": "MeasureReport/bb5abab8-8549-4ced-8588-736ad38cfe8b"
    }
  } ]
}