{"resourceType":"Bundle","id":"tests-e64fd85a-d643-423d-9e3f-d4838e181aa9-bundle","type":"transaction","entry":[{"resource":{"resourceType":"Patient","id":"e64fd85a-d643-423d-9e3f-d4838e181aa9","meta":{"profile":["http://hl7.org/fhir/us/qicore/StructureDefinition/qicore-patient"]},"extension":[{"url":"http://hl7.org/fhir/us/core/StructureDefinition/us-core-race","extension":[{"url":"ombCategory","valueCoding":{"system":"urn:oid:2.16.840.1.113883.6.238","code":"1002-5","display":"American Indian or Alaska Native"}},{"url":"text","valueString":"American Indian or Alaska Native"}]},{"url":"http://hl7.org/fhir/us/core/StructureDefinition/us-core-ethnicity","extension":[{"url":"ombCategory","valueCoding":{"system":"urn:oid:2.16.840.1.113883.6.238","code":"2186-5","display":"Not Hispanic or Latino"}},{"url":"text","valueString":"Not Hispanic or Latino"}]}],"identifier":[{"type":{"coding":[{"system":"http://terminology.hl7.org/CodeSystem/v2-0203","code":"MR"}]},"system":"https://bonnie-fhir.healthit.gov/","value":"7846135168496841685"}],"active":true,"name":[{"use":"usual","family":"NUMERPop2Pass","given":["BetaBlockerOrderEachEnc"]}],"gender":"male","birthDate":"1983-09-11"},"request":{"method":"PUT","url":"Patient/e64fd85a-d643-423d-9e3f-d4838e181aa9"}},{"resource":{"resourceType":"MedicationRequest","id":"aebaf496-163d-437d-8279-2643e821478f","meta":{"profile":["http://hl7.org/fhir/us/qicore/StructureDefinition/qicore-medicationrequest"]},"status":"completed","intent":"order","medicationCodeableConcept":{"coding":[{"system":"http://www.nlm.nih.gov/research/umls/rxnorm","version":"04012024","code":"1234256","display":"4 ML labetalol hydrochloride 5 MG/ML Cartridge"}]},"subject":{"reference":"Patient/e64fd85a-d643-423d-9e3f-d4838e181aa9"},"authoredOn":"2026-08-16T16:00:00.000+00:00","requester":{"reference":"Practitioner/413bf0c2-1899-4a8e-b4af-b093f99aa077"},"dosageInstruction":[{"timing":{"repeat":{"boundsPeriod":{"start":"2026-08-16T16:00:00.000+00:00","end":"2026-12-02T16:00:00.000+00:00"}}}}]},"request":{"method":"PUT","url":"MedicationRequest/aebaf496-163d-437d-8279-2643e821478f"}},{"resource":{"resourceType":"MedicationRequest","id":"8f280da0-e28b-46fa-9213-981b768fe6a9","meta":{"profile":["http://hl7.org/fhir/us/qicore/StructureDefinition/qicore-medicationrequest"]},"status":"active","intent":"order","medicationCodeableConcept":{"coding":[{"system":"http://www.nlm.nih.gov/research/umls/rxnorm","version":"04012024","code":"198007","display":"nadolol 40 MG Oral Tablet"}]},"subject":{"reference":"Patient/e64fd85a-d643-423d-9e3f-d4838e181aa9"},"authoredOn":"2026-12-03T16:45:00.000+00:00","requester":{"reference":"Practitioner/413bf0c2-1899-4a8e-b4af-b093f99aa077"},"dosageInstruction":[{"timing":{"repeat":{"boundsPeriod":{"start":"2026-12-03T16:45:00.000+00:00","end":"2027-04-04T16:45:00.000+00:00"}}}}]},"request":{"method":"PUT","url":"MedicationRequest/8f280da0-e28b-46fa-9213-981b768fe6a9"}},{"resource":{"resourceType":"Condition","id":"a4b4b958-dbe6-4a24-a600-d656277e7158","meta":{"profile":["http://hl7.org/fhir/us/qicore/StructureDefinition/qicore-condition-problems-health-concerns"]},"clinicalStatus":{"coding":[{"system":"http://terminology.hl7.org/CodeSystem/condition-clinical","code":"active","display":"Active"}]},"verificationStatus":{"coding":[{"system":"http://terminology.hl7.org/CodeSystem/condition-ver-status","code":"confirmed","display":"Confirmed"}]},"category":[{"coding":[{"system":"http://terminology.hl7.org/CodeSystem/condition-category","code":"problem-list-item","display":"Problem List Item"}]}],"code":{"coding":[{"system":"http://hl7.org/fhir/sid/icd-10-cm","version":"2020","code":"I21.09"}]},"subject":{"reference":"Patient/e64fd85a-d643-423d-9e3f-d4838e181aa9"},"onsetPeriod":{"start":"2026-12-01T16:45:00.000+00:00","end":"2026-12-01T17:00:00.000+00:00"}},"request":{"method":"PUT","url":"Condition/a4b4b958-dbe6-4a24-a600-d656277e7158"}},{"resource":{"resourceType":"Encounter","id":"92f71d7c-8ca8-4c6d-a5e3-992614c4935f","meta":{"profile":["http://hl7.org/fhir/us/qicore/StructureDefinition/qicore-encounter"]},"status":"finished","class":{"system":"http://terminology.hl7.org/CodeSystem/v3-ActCode","code":"AMB","display":"ambulatory encounter"},"type":[{"coding":[{"system":"http://www.ama-assn.org/go/cpt","version":"2024","code":"99205"}]}],"subject":{"reference":"Patient/e64fd85a-d643-423d-9e3f-d4838e181aa9"},"period":{"start":"2026-12-03T16:45:00.000+00:00","end":"2026-12-03T17:45:00.000+00:00"}},"request":{"method":"PUT","url":"Encounter/92f71d7c-8ca8-4c6d-a5e3-992614c4935f"}},{"resource":{"resourceType":"Encounter","id":"54d71350-70bd-4855-973e-0c5b168245a2","meta":{"profile":["http://hl7.org/fhir/us/qicore/StructureDefinition/qicore-encounter"]},"status":"finished","class":{"system":"http://terminology.hl7.org/CodeSystem/v3-ActCode","code":"AMB","display":"ambulatory encounter"},"type":[{"coding":[{"system":"http://snomed.info/sct","version":"http://snomed.info/sct/731000124108/version/20230901","code":"185463005"}]}],"subject":{"reference":"Patient/e64fd85a-d643-423d-9e3f-d4838e181aa9"},"period":{"start":"2026-08-16T16:00:00.000+00:00","end":"2026-08-16T17:00:00.000+00:00"}},"request":{"method":"PUT","url":"Encounter/54d71350-70bd-4855-973e-0c5b168245a2"}},{"resource":{"resourceType":"Bundle","id":"4684631316468163498","type":"transaction","entry":[{"fullUrl":"https://madie.cms.gov/Patient/e64fd85a-d643-423d-9e3f-d4838e181aa9","resource":{"resourceType":"Patient","id":"e64fd85a-d643-423d-9e3f-d4838e181aa9","meta":{"profile":["http://hl7.org/fhir/us/qicore/StructureDefinition/qicore-patient"]},"extension":[{"url":"http://hl7.org/fhir/us/core/StructureDefinition/us-core-race","extension":[{"url":"ombCategory","valueCoding":{"system":"urn:oid:2.16.840.1.113883.6.238","code":"1002-5","display":"American Indian or Alaska Native"}},{"url":"text","valueString":"American Indian or Alaska Native"}]},{"url":"http://hl7.org/fhir/us/core/StructureDefinition/us-core-ethnicity","extension":[{"url":"ombCategory","valueCoding":{"system":"urn:oid:2.16.840.1.113883.6.238","code":"2186-5","display":"Not Hispanic or Latino"}},{"url":"text","valueString":"Not Hispanic or Latino"}]}],"identifier":[{"type":{"coding":[{"system":"http://terminology.hl7.org/CodeSystem/v2-0203","code":"MR"}]},"system":"https://bonnie-fhir.healthit.gov/","value":"7846135168496841685"}],"active":true,"name":[{"use":"usual","family":"NUMERPop2Pass","given":["BetaBlockerOrderEachEnc"]}],"gender":"male","birthDate":"1983-09-11"},"request":{"method":"PUT","url":"Patient/e64fd85a-d643-423d-9e3f-d4838e181aa9"}},{"fullUrl":"https://madie.cms.gov/Encounter/54d71350-70bd-4855-973e-0c5b168245a2","resource":{"resourceType":"Encounter","id":"54d71350-70bd-4855-973e-0c5b168245a2","meta":{"profile":["http://hl7.org/fhir/us/qicore/StructureDefinition/qicore-encounter"]},"status":"finished","class":{"system":"http://terminology.hl7.org/CodeSystem/v3-ActCode","code":"AMB","display":"ambulatory encounter"},"type":[{"coding":[{"system":"http://snomed.info/sct","version":"http://snomed.info/sct/731000124108/version/20230901","code":"185463005"}]}],"subject":{"reference":"Patient/e64fd85a-d643-423d-9e3f-d4838e181aa9"},"period":{"start":"2026-08-16T16:00:00.000+00:00","end":"2026-08-16T17:00:00.000+00:00"}},"request":{"method":"PUT","url":"Encounter/54d71350-70bd-4855-973e-0c5b168245a2"}},{"fullUrl":"https://madie.cms.gov/Encounter/92f71d7c-8ca8-4c6d-a5e3-992614c4935f","resource":{"resourceType":"Encounter","id":"92f71d7c-8ca8-4c6d-a5e3-992614c4935f","meta":{"profile":["http://hl7.org/fhir/us/qicore/StructureDefinition/qicore-encounter"]},"status":"finished","class":{"system":"http://terminology.hl7.org/CodeSystem/v3-ActCode","code":"AMB","display":"ambulatory encounter"},"type":[{"coding":[{"system":"http://www.ama-assn.org/go/cpt","version":"2024","code":"99205"}]}],"subject":{"reference":"Patient/e64fd85a-d643-423d-9e3f-d4838e181aa9"},"period":{"start":"2026-12-03T16:45:00.000+00:00","end":"2026-12-03T17:45:00.000+00:00"}},"request":{"method":"PUT","url":"Encounter/92f71d7c-8ca8-4c6d-a5e3-992614c4935f"}},{"fullUrl":"https://madie.cms.gov/Condition/a4b4b958-dbe6-4a24-a600-d656277e7158","resource":{"resourceType":"Condition","id":"a4b4b958-dbe6-4a24-a600-d656277e7158","meta":{"profile":["http://hl7.org/fhir/us/qicore/StructureDefinition/qicore-condition-problems-health-concerns"]},"clinicalStatus":{"coding":[{"system":"http://terminology.hl7.org/CodeSystem/condition-clinical","code":"active","display":"Active"}]},"verificationStatus":{"coding":[{"system":"http://terminology.hl7.org/CodeSystem/condition-ver-status","code":"confirmed","display":"Confirmed"}]},"category":[{"coding":[{"system":"http://terminology.hl7.org/CodeSystem/condition-category","code":"problem-list-item","display":"Problem List Item"}]}],"code":{"coding":[{"system":"http://hl7.org/fhir/sid/icd-10-cm","version":"2020","code":"I21.09"}]},"subject":{"reference":"Patient/e64fd85a-d643-423d-9e3f-d4838e181aa9"},"onsetPeriod":{"start":"2026-12-01T16:45:00.000+00:00","end":"2026-12-01T17:00:00.000+00:00"}},"request":{"method":"PUT","url":"Condition/a4b4b958-dbe6-4a24-a600-d656277e7158"}},{"fullUrl":"https://madie.cms.gov/MedicationRequest/aebaf496-163d-437d-8279-2643e821478f","resource":{"resourceType":"MedicationRequest","id":"aebaf496-163d-437d-8279-2643e821478f","meta":{"profile":["http://hl7.org/fhir/us/qicore/StructureDefinition/qicore-medicationrequest"]},"status":"completed","intent":"order","medicationCodeableConcept":{"coding":[{"system":"http://www.nlm.nih.gov/research/umls/rxnorm","version":"04012024","code":"1234256","display":"4 ML labetalol hydrochloride 5 MG/ML Cartridge"}]},"subject":{"reference":"Patient/e64fd85a-d643-423d-9e3f-d4838e181aa9"},"authoredOn":"2026-08-16T16:00:00.000+00:00","requester":{"reference":"Practitioner/413bf0c2-1899-4a8e-b4af-b093f99aa077"},"dosageInstruction":[{"timing":{"repeat":{"boundsPeriod":{"start":"2026-08-16T16:00:00.000+00:00","end":"2026-12-02T16:00:00.000+00:00"}}}}]},"request":{"method":"PUT","url":"MedicationRequest/aebaf496-163d-437d-8279-2643e821478f"}},{"fullUrl":"https://madie.cms.gov/Practitioner/413bf0c2-1899-4a8e-b4af-b093f99aa077","resource":{"resourceType":"Practitioner","id":"413bf0c2-1899-4a8e-b4af-b093f99aa077","meta":{"profile":["http://hl7.org/fhir/us/qicore/StructureDefinition/qicore-practitioner"]},"identifier":[{"use":"temp","system":"urn:oid:2.16.840.1.113883.4.336","value":"Practitioner-23"}],"active":true,"name":[{"family":"Careful","given":["Adam"],"prefix":["Dr"]}],"address":[{"use":"home","line":["534 Erewhon St"],"city":"PleasantVille","state":"UT","postalCode":"84414"}],"qualification":[{"identifier":[{"system":"http://example.org/UniversityIdentifier","value":"12345"}],"code":{"coding":[{"system":"http://terminology.hl7.org/CodeSystem/v2-0360|2.7","code":"BS","display":"Bachelor of Science"}],"text":"Bachelor of Science"},"period":{"start":"1996"},"issuer":{"display":"Example University"}}]},"request":{"method":"PUT","url":"Practitioner/413bf0c2-1899-4a8e-b4af-b093f99aa077"}},{"fullUrl":"https://madie.cms.gov/MedicationRequest/8f280da0-e28b-46fa-9213-981b768fe6a9","resource":{"resourceType":"MedicationRequest","id":"8f280da0-e28b-46fa-9213-981b768fe6a9","meta":{"profile":["http://hl7.org/fhir/us/qicore/StructureDefinition/qicore-medicationrequest"]},"status":"active","intent":"order","medicationCodeableConcept":{"coding":[{"system":"http://www.nlm.nih.gov/research/umls/rxnorm","version":"04012024","code":"198007","display":"nadolol 40 MG Oral Tablet"}]},"subject":{"reference":"Patient/e64fd85a-d643-423d-9e3f-d4838e181aa9"},"authoredOn":"2026-12-03T16:45:00.000+00:00","requester":{"reference":"Practitioner/413bf0c2-1899-4a8e-b4af-b093f99aa077"},"dosageInstruction":[{"timing":{"repeat":{"boundsPeriod":{"start":"2026-12-03T16:45:00.000+00:00","end":"2027-04-04T16:45:00.000+00:00"}}}}]},"request":{"method":"PUT","url":"MedicationRequest/8f280da0-e28b-46fa-9213-981b768fe6a9"}},{"fullUrl":"https://madie.cms.gov/Condition/a612ca84-f9dc-4253-873d-5fc1c7873598","resource":{"resourceType":"Condition","id":"a612ca84-f9dc-4253-873d-5fc1c7873598","meta":{"profile":["http://hl7.org/fhir/us/qicore/StructureDefinition/qicore-condition-problems-health-concerns"]},"clinicalStatus":{"coding":[{"system":"http://terminology.hl7.org/CodeSystem/condition-clinical","code":"active","display":"Active"}]},"verificationStatus":{"coding":[{"system":"http://terminology.hl7.org/CodeSystem/condition-ver-status","code":"confirmed","display":"Confirmed"}]},"category":[{"coding":[{"system":"http://terminology.hl7.org/CodeSystem/condition-category","code":"problem-list-item","display":"Problem List Item"}]}],"code":{"coding":[{"system":"http://snomed.info/sct","version":"http://snomed.info/sct/731000124108/version/20240301","code":"10365005","display":"Right main coronary artery thrombosis (disorder)"}]},"subject":{"reference":"Patient/e64fd85a-d643-423d-9e3f-d4838e181aa9"},"onsetPeriod":{"start":"2026-12-02T16:45:00.000+00:00"}},"request":{"method":"PUT","url":"Condition/a612ca84-f9dc-4253-873d-5fc1c7873598"}},{"fullUrl":"https://madie.cms.gov/MeasureReport/aa14e9b6-0c24-48ca-ba99-7554545e21b1","resource":{"resourceType":"MeasureReport","id":"aa14e9b6-0c24-48ca-ba99-7554545e21b1","meta":{"profile":["http://hl7.org/fhir/us/cqfmeasures/StructureDefinition/test-case-cqfm"]},"contained":[{"resourceType":"Parameters","id":"d8ca2ef3-753a-4adf-87e2-6b6e3c939842-parameters","parameter":[{"name":"subject","valueString":"e64fd85a-d643-423d-9e3f-d4838e181aa9"}]}],"extension":[{"url":"http://hl7.org/fhir/StructureDefinition/cqf-inputParameters","valueReference":{"reference":"#d8ca2ef3-753a-4adf-87e2-6b6e3c939842-parameters"}},{"url":"http://hl7.org/fhir/us/cqfmeasures/StructureDefinition/cqfm-testCaseDescription","valueMarkdown":"Pt > 18, has two qualifying ambulatory visits, a CAD Encounter, no history of moderate or severe LVSD, a prior MI and beta blocker therapy ordered during 2nd visit"}],"modifierExtension":[{"url":"http://hl7.org/fhir/us/cqfmeasures/StructureDefinition/cqfm-isTestCase","valueBoolean":true}],"status":"complete","type":"individual","measure":"https://madie.cms.gov/Measure/CMS145FHIRCADBetaBlockerTherapyPriorMIorLVSD","period":{"start":"2026-01-01","end":"2026-12-31"},"group":[{"id":"Group_1","population":[{"id":"InitialPopulation_1","code":{"coding":[{"system":"http://terminology.hl7.org/CodeSystem/measure-population","code":"initial-population","display":"Initial Population"}]},"count":1},{"id":"Denominator_1","code":{"coding":[{"system":"http://terminology.hl7.org/CodeSystem/measure-population","code":"denominator","display":"Denominator"}]},"count":0},{"id":"Numerator_1","code":{"coding":[{"system":"http://terminology.hl7.org/CodeSystem/measure-population","code":"numerator","display":"Numerator"}]},"count":0},{"id":"DenominatorException_1","code":{"coding":[{"system":"http://terminology.hl7.org/CodeSystem/measure-population","code":"denominator-exception","display":"Denominator Exception"}]},"count":0}],"measureScore":{"value":1.0}},{"id":"Group_2","population":[{"id":"InitialPopulation_2","code":{"coding":[{"system":"http://terminology.hl7.org/CodeSystem/measure-population","code":"initial-population","display":"Initial Population"}]},"count":1},{"id":"Denominator_2","code":{"coding":[{"system":"http://terminology.hl7.org/CodeSystem/measure-population","code":"denominator","display":"Denominator"}]},"count":1},{"id":"Numerator_2","code":{"coding":[{"system":"http://terminology.hl7.org/CodeSystem/measure-population","code":"numerator","display":"Numerator"}]},"count":1},{"id":"DenominatorException_2","code":{"coding":[{"system":"http://terminology.hl7.org/CodeSystem/measure-population","code":"denominator-exception","display":"Denominator Exception"}]},"count":0}],"measureScore":{"value":1.0}}],"evaluatedResource":[{"reference":"Patient/e64fd85a-d643-423d-9e3f-d4838e181aa9"},{"reference":"Encounter/54d71350-70bd-4855-973e-0c5b168245a2"},{"reference":"Encounter/92f71d7c-8ca8-4c6d-a5e3-992614c4935f"},{"reference":"Condition/a4b4b958-dbe6-4a24-a600-d656277e7158"},{"reference":"MedicationRequest/aebaf496-163d-437d-8279-2643e821478f"},{"reference":"Practitioner/413bf0c2-1899-4a8e-b4af-b093f99aa077"},{"reference":"MedicationRequest/8f280da0-e28b-46fa-9213-981b768fe6a9"},{"reference":"Condition/a612ca84-f9dc-4253-873d-5fc1c7873598"}]},"request":{"method":"PUT","url":"MeasureReport/aa14e9b6-0c24-48ca-ba99-7554545e21b1"}}]},"request":{"method":"PUT","url":"Bundle/4684631316468163498"}},{"resource":{"resourceType":"Condition","id":"a612ca84-f9dc-4253-873d-5fc1c7873598","meta":{"profile":["http://hl7.org/fhir/us/qicore/StructureDefinition/qicore-condition-problems-health-concerns"]},"clinicalStatus":{"coding":[{"system":"http://terminology.hl7.org/CodeSystem/condition-clinical","code":"active","display":"Active"}]},"verificationStatus":{"coding":[{"system":"http://terminology.hl7.org/CodeSystem/condition-ver-status","code":"confirmed","display":"Confirmed"}]},"category":[{"coding":[{"system":"http://terminology.hl7.org/CodeSystem/condition-category","code":"problem-list-item","display":"Problem List Item"}]}],"code":{"coding":[{"system":"http://snomed.info/sct","version":"http://snomed.info/sct/731000124108/version/20240301","code":"10365005","display":"Right main coronary artery thrombosis (disorder)"}]},"subject":{"reference":"Patient/e64fd85a-d643-423d-9e3f-d4838e181aa9"},"onsetPeriod":{"start":"2026-12-02T16:45:00.000+00:00"}},"request":{"method":"PUT","url":"Condition/a612ca84-f9dc-4253-873d-5fc1c7873598"}},{"resource":{"resourceType":"Practitioner","id":"413bf0c2-1899-4a8e-b4af-b093f99aa077","meta":{"profile":["http://hl7.org/fhir/us/qicore/StructureDefinition/qicore-practitioner"]},"identifier":[{"use":"temp","system":"urn:oid:2.16.840.1.113883.4.336","value":"Practitioner-23"}],"active":true,"name":[{"family":"Careful","given":["Adam"],"prefix":["Dr"]}],"address":[{"use":"home","line":["534 Erewhon St"],"city":"PleasantVille","state":"UT","postalCode":"84414"}],"qualification":[{"identifier":[{"system":"http://example.org/UniversityIdentifier","value":"12345"}],"code":{"coding":[{"system":"http://terminology.hl7.org/CodeSystem/v2-0360|2.7","code":"BS","display":"Bachelor of Science"}],"text":"Bachelor of Science"},"period":{"start":"1996"},"issuer":{"display":"Example University"}}]},"request":{"method":"PUT","url":"Practitioner/413bf0c2-1899-4a8e-b4af-b093f99aa077"}},{"resource":{"resourceType":"MeasureReport","id":"aa14e9b6-0c24-48ca-ba99-7554545e21b1","meta":{"profile":["http://hl7.org/fhir/us/cqfmeasures/StructureDefinition/test-case-cqfm"]},"contained":[{"resourceType":"Parameters","id":"d8ca2ef3-753a-4adf-87e2-6b6e3c939842-parameters","parameter":[{"name":"subject","valueString":"e64fd85a-d643-423d-9e3f-d4838e181aa9"}]}],"extension":[{"url":"http://hl7.org/fhir/StructureDefinition/cqf-inputParameters","valueReference":{"reference":"#d8ca2ef3-753a-4adf-87e2-6b6e3c939842-parameters"}},{"url":"http://hl7.org/fhir/us/cqfmeasures/StructureDefinition/cqfm-testCaseDescription","valueMarkdown":"Pt > 18, has two qualifying ambulatory visits, a CAD Encounter, no history of moderate or severe LVSD, a prior MI and beta blocker therapy ordered during 2nd visit"}],"modifierExtension":[{"url":"http://hl7.org/fhir/us/cqfmeasures/StructureDefinition/cqfm-isTestCase","valueBoolean":true}],"status":"complete","type":"individual","measure":"https://madie.cms.gov/Measure/CMS145FHIRCADBetaBlockerTherapyPriorMIorLVSD","period":{"start":"2026-01-01","end":"2026-12-31"},"group":[{"id":"Group_1","population":[{"id":"InitialPopulation_1","code":{"coding":[{"system":"http://terminology.hl7.org/CodeSystem/measure-population","code":"initial-population","display":"Initial Population"}]},"count":1},{"id":"Denominator_1","code":{"coding":[{"system":"http://terminology.hl7.org/CodeSystem/measure-population","code":"denominator","display":"Denominator"}]},"count":0},{"id":"Numerator_1","code":{"coding":[{"system":"http://terminology.hl7.org/CodeSystem/measure-population","code":"numerator","display":"Numerator"}]},"count":0},{"id":"DenominatorException_1","code":{"coding":[{"system":"http://terminology.hl7.org/CodeSystem/measure-population","code":"denominator-exception","display":"Denominator Exception"}]},"count":0}],"measureScore":{"value":1.0}},{"id":"Group_2","population":[{"id":"InitialPopulation_2","code":{"coding":[{"system":"http://terminology.hl7.org/CodeSystem/measure-population","code":"initial-population","display":"Initial Population"}]},"count":1},{"id":"Denominator_2","code":{"coding":[{"system":"http://terminology.hl7.org/CodeSystem/measure-population","code":"denominator","display":"Denominator"}]},"count":1},{"id":"Numerator_2","code":{"coding":[{"system":"http://terminology.hl7.org/CodeSystem/measure-population","code":"numerator","display":"Numerator"}]},"count":1},{"id":"DenominatorException_2","code":{"coding":[{"system":"http://terminology.hl7.org/CodeSystem/measure-population","code":"denominator-exception","display":"Denominator Exception"}]},"count":0}],"measureScore":{"value":1.0}}],"evaluatedResource":[{"reference":"Patient/e64fd85a-d643-423d-9e3f-d4838e181aa9"},{"reference":"Encounter/54d71350-70bd-4855-973e-0c5b168245a2"},{"reference":"Encounter/92f71d7c-8ca8-4c6d-a5e3-992614c4935f"},{"reference":"Condition/a4b4b958-dbe6-4a24-a600-d656277e7158"},{"reference":"MedicationRequest/aebaf496-163d-437d-8279-2643e821478f"},{"reference":"Practitioner/413bf0c2-1899-4a8e-b4af-b093f99aa077"},{"reference":"MedicationRequest/8f280da0-e28b-46fa-9213-981b768fe6a9"},{"reference":"Condition/a612ca84-f9dc-4253-873d-5fc1c7873598"}]},"request":{"method":"PUT","url":"MeasureReport/aa14e9b6-0c24-48ca-ba99-7554545e21b1"}}]}