{"resourceType":"Bundle","id":"tests-dd4e465a-3796-4d5d-af53-3e2ab1e4041b-bundle","type":"transaction","entry":[{"resource":{"resourceType":"MeasureReport","id":"1e0e8575-f208-45f6-9e9c-9b78bc17ac7a","meta":{"profile":["http://hl7.org/fhir/us/cqfmeasures/StructureDefinition/test-case-cqfm"]},"contained":[{"resourceType":"Parameters","id":"cf541d6f-dda9-4f9b-9cd8-f357bff170c4-parameters","parameter":[{"name":"subject","valueString":"dd4e465a-3796-4d5d-af53-3e2ab1e4041b"}]}],"extension":[{"url":"http://hl7.org/fhir/StructureDefinition/cqf-inputParameters","valueReference":{"reference":"#cf541d6f-dda9-4f9b-9cd8-f357bff170c4-parameters"}},{"url":"http://hl7.org/fhir/us/cqfmeasures/StructureDefinition/cqfm-testCaseDescription","valueMarkdown":"Pt > 18, 2 visits in MP, Severe LVSD onset during MP b4 1st visit, CAD and Cardia Pacer in Situ (both with onset after 2nd visit (next day 12 AM)), and Med not ordered during 1st visit *CQL-Execution Issue 296*,"}],"modifierExtension":[{"url":"http://hl7.org/fhir/us/cqfmeasures/StructureDefinition/cqfm-isTestCase","valueBoolean":true}],"status":"complete","type":"individual","measure":"https://madie.cms.gov/Measure/CMS145FHIRCADBetaBlockerTherapyPriorMIorLVSD","period":{"start":"2026-01-01","end":"2026-12-31"},"group":[{"id":"Group_1","population":[{"id":"InitialPopulation_1","code":{"coding":[{"system":"http://terminology.hl7.org/CodeSystem/measure-population","code":"initial-population","display":"Initial Population"}]},"count":1},{"id":"Denominator_1","code":{"coding":[{"system":"http://terminology.hl7.org/CodeSystem/measure-population","code":"denominator","display":"Denominator"}]},"count":1},{"id":"Numerator_1","code":{"coding":[{"system":"http://terminology.hl7.org/CodeSystem/measure-population","code":"numerator","display":"Numerator"}]},"count":0},{"id":"DenominatorException_1","code":{"coding":[{"system":"http://terminology.hl7.org/CodeSystem/measure-population","code":"denominator-exception","display":"Denominator Exception"}]},"count":0}],"measureScore":{"value":1.0}},{"id":"Group_2","population":[{"id":"InitialPopulation_2","code":{"coding":[{"system":"http://terminology.hl7.org/CodeSystem/measure-population","code":"initial-population","display":"Initial Population"}]},"count":1},{"id":"Denominator_2","code":{"coding":[{"system":"http://terminology.hl7.org/CodeSystem/measure-population","code":"denominator","display":"Denominator"}]},"count":0},{"id":"Numerator_2","code":{"coding":[{"system":"http://terminology.hl7.org/CodeSystem/measure-population","code":"numerator","display":"Numerator"}]},"count":0},{"id":"DenominatorException_2","code":{"coding":[{"system":"http://terminology.hl7.org/CodeSystem/measure-population","code":"denominator-exception","display":"Denominator Exception"}]},"count":0}],"measureScore":{"value":1.0}}],"evaluatedResource":[{"reference":"Patient/dd4e465a-3796-4d5d-af53-3e2ab1e4041b"},{"reference":"Encounter/c97bb780-596d-4518-a9e1-b71e0ac40f96"},{"reference":"Encounter/b5d16b23-b739-4820-9515-142a8a3418bc"},{"reference":"Condition/789394f8-de68-4a7b-bc05-cc05a5256efe"},{"reference":"Condition/6d6d20e9-3d2f-49ca-b779-fac95473902d"},{"reference":"Condition/31310b22-c4d8-40ff-9b42-081aad2f0797"},{"reference":"MedicationRequest/2e61d93e-51b8-4f9f-a201-acdfe429e596"},{"reference":"Practitioner/01448bd8-96c8-42ad-9c9e-cf5efa801d12"},{"reference":"Procedure/31c3f596-c055-43de-9017-45689d3388af"}]},"request":{"method":"PUT","url":"MeasureReport/1e0e8575-f208-45f6-9e9c-9b78bc17ac7a"}},{"resource":{"resourceType":"Procedure","id":"31c3f596-c055-43de-9017-45689d3388af","meta":{"profile":["http://hl7.org/fhir/us/qicore/StructureDefinition/qicore-procedure"]},"extension":[{"url":"http://hl7.org/fhir/us/qicore/StructureDefinition/qicore-recorded","valueDateTime":"2026-02-01T12:00:00.000+00:00"}],"status":"completed","code":{"coding":[{"system":"http://www.ama-assn.org/go/cpt","version":"2024","code":"33536"}]},"subject":{"reference":"Patient/dd4e465a-3796-4d5d-af53-3e2ab1e4041b"},"performedPeriod":{"start":"2026-02-01T12:00:00.000+00:00","end":"2026-02-01T12:00:00.000+00:00"}},"request":{"method":"PUT","url":"Procedure/31c3f596-c055-43de-9017-45689d3388af"}},{"resource":{"resourceType":"Patient","id":"dd4e465a-3796-4d5d-af53-3e2ab1e4041b","meta":{"profile":["http://hl7.org/fhir/us/qicore/StructureDefinition/qicore-patient"]},"extension":[{"url":"http://hl7.org/fhir/us/core/StructureDefinition/us-core-race","extension":[{"url":"ombCategory","valueCoding":{"system":"urn:oid:2.16.840.1.113883.6.238","code":"1002-5","display":"American Indian or Alaska Native"}},{"url":"text","valueString":"American Indian or Alaska Native"}]},{"url":"http://hl7.org/fhir/us/core/StructureDefinition/us-core-ethnicity","extension":[{"url":"ombCategory","valueCoding":{"system":"urn:oid:2.16.840.1.113883.6.238","code":"2186-5","display":"Not Hispanic or Latino"}},{"url":"text","valueString":"Not Hispanic or Latino"}]}],"identifier":[{"type":{"coding":[{"system":"http://terminology.hl7.org/CodeSystem/v2-0203","code":"MR"}]},"system":"https://bonnie-fhir.healthit.gov/","value":"24649676746413464"}],"active":true,"name":[{"use":"usual","family":"DENEXCEPPop1Pass","given":["Carvedilol25MGOralTabletPatRsn"]}],"gender":"male","birthDate":"1968-12-14"},"request":{"method":"PUT","url":"Patient/dd4e465a-3796-4d5d-af53-3e2ab1e4041b"}},{"resource":{"resourceType":"Condition","id":"31310b22-c4d8-40ff-9b42-081aad2f0797","meta":{"profile":["http://hl7.org/fhir/us/qicore/StructureDefinition/qicore-condition-problems-health-concerns"]},"clinicalStatus":{"coding":[{"system":"http://terminology.hl7.org/CodeSystem/condition-clinical","code":"active","display":"Active"}]},"category":[{"coding":[{"system":"http://terminology.hl7.org/CodeSystem/condition-category","code":"problem-list-item","display":"Problem List Item"}]}],"code":{"coding":[{"system":"http://snomed.info/sct","version":"http://snomed.info/sct/731000124108/version/20240301","code":"441509002","display":"Cardiac pacemaker in situ"}]},"subject":{"reference":"Patient/dd4e465a-3796-4d5d-af53-3e2ab1e4041b"},"onsetPeriod":{"start":"2026-10-16T00:00:00.000+00:00"}},"request":{"method":"PUT","url":"Condition/31310b22-c4d8-40ff-9b42-081aad2f0797"}},{"resource":{"resourceType":"Bundle","id":"6346598964316463464163","type":"transaction","entry":[{"fullUrl":"https://madie.cms.gov/Patient/dd4e465a-3796-4d5d-af53-3e2ab1e4041b","resource":{"resourceType":"Patient","id":"dd4e465a-3796-4d5d-af53-3e2ab1e4041b","meta":{"profile":["http://hl7.org/fhir/us/qicore/StructureDefinition/qicore-patient"]},"extension":[{"url":"http://hl7.org/fhir/us/core/StructureDefinition/us-core-race","extension":[{"url":"ombCategory","valueCoding":{"system":"urn:oid:2.16.840.1.113883.6.238","code":"1002-5","display":"American Indian or Alaska Native"}},{"url":"text","valueString":"American Indian or Alaska Native"}]},{"url":"http://hl7.org/fhir/us/core/StructureDefinition/us-core-ethnicity","extension":[{"url":"ombCategory","valueCoding":{"system":"urn:oid:2.16.840.1.113883.6.238","code":"2186-5","display":"Not Hispanic or Latino"}},{"url":"text","valueString":"Not Hispanic or Latino"}]}],"identifier":[{"type":{"coding":[{"system":"http://terminology.hl7.org/CodeSystem/v2-0203","code":"MR"}]},"system":"https://bonnie-fhir.healthit.gov/","value":"24649676746413464"}],"active":true,"name":[{"use":"usual","family":"DENEXCEPPop1Pass","given":["Carvedilol25MGOralTabletPatRsn"]}],"gender":"male","birthDate":"1968-12-14"},"request":{"method":"PUT","url":"Patient/dd4e465a-3796-4d5d-af53-3e2ab1e4041b"}},{"fullUrl":"https://madie.cms.gov/Encounter/c97bb780-596d-4518-a9e1-b71e0ac40f96","resource":{"resourceType":"Encounter","id":"c97bb780-596d-4518-a9e1-b71e0ac40f96","meta":{"profile":["http://hl7.org/fhir/us/qicore/StructureDefinition/qicore-encounter"]},"status":"finished","class":{"system":"http://terminology.hl7.org/CodeSystem/v3-ActCode","code":"AMB","display":"ambulatory"},"type":[{"coding":[{"system":"http://www.ama-assn.org/go/cpt","version":"2024","code":"99202","display":"Office or other outpatient visit for the evaluation and management of a new patient, which requires a medically appropriate history and/or examination and straightforward medical decision making. When using time for code selection, 15-29 minutes of total time is spent on the date of the encounter."}]}],"subject":{"reference":"Patient/dd4e465a-3796-4d5d-af53-3e2ab1e4041b"},"period":{"start":"2026-02-01T12:00:00.000+00:00","end":"2026-02-01T13:00:00.000+00:00"},"length":{"value":0,"unit":"days"}},"request":{"method":"PUT","url":"Encounter/c97bb780-596d-4518-a9e1-b71e0ac40f96"}},{"fullUrl":"https://madie.cms.gov/Encounter/b5d16b23-b739-4820-9515-142a8a3418bc","resource":{"resourceType":"Encounter","id":"b5d16b23-b739-4820-9515-142a8a3418bc","meta":{"profile":["http://hl7.org/fhir/us/qicore/StructureDefinition/qicore-encounter"]},"status":"finished","class":{"system":"http://terminology.hl7.org/CodeSystem/v3-ActCode","code":"AMB","display":"ambulatory"},"type":[{"coding":[{"system":"http://www.ama-assn.org/go/cpt","version":"2024","code":"99212","display":"Office or other outpatient visit for the evaluation and management of an established patient, which requires a medically appropriate history and/or examination and straightforward medical decision making. When using time for code selection, 10-19 minutes of total time is spent on the date of the encounter."}]}],"subject":{"reference":"Patient/dd4e465a-3796-4d5d-af53-3e2ab1e4041b"},"period":{"start":"2026-10-15T12:15:00.000+00:00","end":"2026-10-15T13:15:00.000+00:00"},"length":{"value":0,"unit":"days"}},"request":{"method":"PUT","url":"Encounter/b5d16b23-b739-4820-9515-142a8a3418bc"}},{"fullUrl":"https://madie.cms.gov/Condition/789394f8-de68-4a7b-bc05-cc05a5256efe","resource":{"resourceType":"Condition","id":"789394f8-de68-4a7b-bc05-cc05a5256efe","meta":{"profile":["http://hl7.org/fhir/us/qicore/StructureDefinition/qicore-condition-problems-health-concerns"]},"clinicalStatus":{"coding":[{"system":"http://terminology.hl7.org/CodeSystem/condition-clinical","code":"active","display":"Active"}]},"verificationStatus":{"coding":[{"system":"http://terminology.hl7.org/CodeSystem/condition-ver-status","code":"confirmed","display":"Confirmed"}]},"category":[{"coding":[{"system":"http://terminology.hl7.org/CodeSystem/condition-category","code":"problem-list-item","display":"Problem List Item"}]}],"severity":{"coding":[{"system":"http://snomed.info/sct","version":"http://snomed.info/sct/731000124108/version/20240301","code":"24484000","display":"Severe (severity modifier) (qualifier value)"}]},"code":{"coding":[{"system":"http://snomed.info/sct","version":"http://snomed.info/sct/731000124108/version/20240301","code":"134401001"}]},"subject":{"reference":"Patient/dd4e465a-3796-4d5d-af53-3e2ab1e4041b"},"onsetPeriod":{"start":"2026-01-31T12:00:00.000+00:00"}},"request":{"method":"PUT","url":"Condition/789394f8-de68-4a7b-bc05-cc05a5256efe"}},{"fullUrl":"https://madie.cms.gov/Condition/6d6d20e9-3d2f-49ca-b779-fac95473902d","resource":{"resourceType":"Condition","id":"6d6d20e9-3d2f-49ca-b779-fac95473902d","meta":{"profile":["http://hl7.org/fhir/us/qicore/StructureDefinition/qicore-condition-problems-health-concerns"]},"clinicalStatus":{"coding":[{"system":"http://terminology.hl7.org/CodeSystem/condition-clinical","code":"active","display":"Active"}]},"verificationStatus":{"coding":[{"system":"http://terminology.hl7.org/CodeSystem/condition-ver-status","code":"confirmed","display":"Confirmed"}]},"category":[{"coding":[{"system":"http://terminology.hl7.org/CodeSystem/condition-category","code":"problem-list-item","display":"Problem List Item"}]}],"code":{"coding":[{"system":"http://snomed.info/sct","version":"http://snomed.info/sct/731000124108/version/20240301","code":"10365005","display":"Right main coronary artery thrombosis (disorder)"}]},"subject":{"reference":"Patient/dd4e465a-3796-4d5d-af53-3e2ab1e4041b"},"onsetPeriod":{"start":"2026-10-16T00:00:00.000+00:00"}},"request":{"method":"PUT","url":"Condition/6d6d20e9-3d2f-49ca-b779-fac95473902d"}},{"fullUrl":"https://madie.cms.gov/Condition/31310b22-c4d8-40ff-9b42-081aad2f0797","resource":{"resourceType":"Condition","id":"31310b22-c4d8-40ff-9b42-081aad2f0797","meta":{"profile":["http://hl7.org/fhir/us/qicore/StructureDefinition/qicore-condition-problems-health-concerns"]},"clinicalStatus":{"coding":[{"system":"http://terminology.hl7.org/CodeSystem/condition-clinical","code":"active","display":"Active"}]},"category":[{"coding":[{"system":"http://terminology.hl7.org/CodeSystem/condition-category","code":"problem-list-item","display":"Problem List Item"}]}],"code":{"coding":[{"system":"http://snomed.info/sct","version":"http://snomed.info/sct/731000124108/version/20240301","code":"441509002","display":"Cardiac pacemaker in situ"}]},"subject":{"reference":"Patient/dd4e465a-3796-4d5d-af53-3e2ab1e4041b"},"onsetPeriod":{"start":"2026-10-16T00:00:00.000+00:00"}},"request":{"method":"PUT","url":"Condition/31310b22-c4d8-40ff-9b42-081aad2f0797"}},{"fullUrl":"https://madie.cms.gov/MedicationRequest/2e61d93e-51b8-4f9f-a201-acdfe429e596","resource":{"resourceType":"MedicationRequest","id":"2e61d93e-51b8-4f9f-a201-acdfe429e596","meta":{"profile":["http://hl7.org/fhir/us/qicore/StructureDefinition/qicore-mednotrequested"]},"status":"completed","intent":"order","doNotPerform":true,"medicationCodeableConcept":{"coding":[{"system":"http://www.nlm.nih.gov/research/umls/rxnorm","version":"04032023","code":"200033","display":"carvedilol 25 MG Oral Tablet"}]},"subject":{"reference":"Patient/dd4e465a-3796-4d5d-af53-3e2ab1e4041b"},"authoredOn":"2026-02-01T12:00:00.000+00:00","requester":{"reference":"Practitioner/01448bd8-96c8-42ad-9c9e-cf5efa801d12"},"reasonCode":[{"coding":[{"system":"http://snomed.info/sct","version":"http://snomed.info/sct/731000124108/version/20240301","code":"406149000","display":"Medication declined (situation)"}]}]},"request":{"method":"PUT","url":"MedicationRequest/2e61d93e-51b8-4f9f-a201-acdfe429e596"}},{"fullUrl":"https://madie.cms.gov/Practitioner/01448bd8-96c8-42ad-9c9e-cf5efa801d12","resource":{"resourceType":"Practitioner","id":"01448bd8-96c8-42ad-9c9e-cf5efa801d12","meta":{"profile":["http://hl7.org/fhir/us/qicore/StructureDefinition/qicore-practitioner"]},"identifier":[{"use":"temp","system":"urn:oid:2.16.840.1.113883.4.336","value":"Practitioner-45"}],"active":true,"name":[{"family":"Strangelove","given":["Adam"],"prefix":["Dr"]}],"qualification":[{"identifier":[{"system":"http://example.org/UniversityIdentifier","value":"12345"}],"code":{"coding":[{"system":"http://terminology.hl7.org/CodeSystem/v2-0360","version":"2.7","code":"BS","display":"Bachelor of Science"}],"text":"Bachelor of Science"},"period":{"start":"1996"},"issuer":{"display":"Example University"}}]},"request":{"method":"PUT","url":"Practitioner/01448bd8-96c8-42ad-9c9e-cf5efa801d12"}},{"fullUrl":"https://madie.cms.gov/Procedure/31c3f596-c055-43de-9017-45689d3388af","resource":{"resourceType":"Procedure","id":"31c3f596-c055-43de-9017-45689d3388af","meta":{"profile":["http://hl7.org/fhir/us/qicore/StructureDefinition/qicore-procedure"]},"extension":[{"url":"http://hl7.org/fhir/us/qicore/StructureDefinition/qicore-recorded","valueDateTime":"2026-02-01T12:00:00.000+00:00"}],"status":"completed","code":{"coding":[{"system":"http://www.ama-assn.org/go/cpt","version":"2024","code":"33536"}]},"subject":{"reference":"Patient/dd4e465a-3796-4d5d-af53-3e2ab1e4041b"},"performedPeriod":{"start":"2026-02-01T12:00:00.000+00:00","end":"2026-02-01T12:00:00.000+00:00"}},"request":{"method":"PUT","url":"Procedure/31c3f596-c055-43de-9017-45689d3388af"}},{"fullUrl":"https://madie.cms.gov/MeasureReport/1e0e8575-f208-45f6-9e9c-9b78bc17ac7a","resource":{"resourceType":"MeasureReport","id":"1e0e8575-f208-45f6-9e9c-9b78bc17ac7a","meta":{"profile":["http://hl7.org/fhir/us/cqfmeasures/StructureDefinition/test-case-cqfm"]},"contained":[{"resourceType":"Parameters","id":"cf541d6f-dda9-4f9b-9cd8-f357bff170c4-parameters","parameter":[{"name":"subject","valueString":"dd4e465a-3796-4d5d-af53-3e2ab1e4041b"}]}],"extension":[{"url":"http://hl7.org/fhir/StructureDefinition/cqf-inputParameters","valueReference":{"reference":"#cf541d6f-dda9-4f9b-9cd8-f357bff170c4-parameters"}},{"url":"http://hl7.org/fhir/us/cqfmeasures/StructureDefinition/cqfm-testCaseDescription","valueMarkdown":"Pt > 18, 2 visits in MP, Severe LVSD onset during MP b4 1st visit, CAD and Cardia Pacer in Situ (both with onset after 2nd visit (next day 12 AM)), and Med not ordered during 1st visit *CQL-Execution Issue 296*,"}],"modifierExtension":[{"url":"http://hl7.org/fhir/us/cqfmeasures/StructureDefinition/cqfm-isTestCase","valueBoolean":true}],"status":"complete","type":"individual","measure":"https://madie.cms.gov/Measure/CMS145FHIRCADBetaBlockerTherapyPriorMIorLVSD","period":{"start":"2026-01-01","end":"2026-12-31"},"group":[{"id":"Group_1","population":[{"id":"InitialPopulation_1","code":{"coding":[{"system":"http://terminology.hl7.org/CodeSystem/measure-population","code":"initial-population","display":"Initial Population"}]},"count":1},{"id":"Denominator_1","code":{"coding":[{"system":"http://terminology.hl7.org/CodeSystem/measure-population","code":"denominator","display":"Denominator"}]},"count":1},{"id":"Numerator_1","code":{"coding":[{"system":"http://terminology.hl7.org/CodeSystem/measure-population","code":"numerator","display":"Numerator"}]},"count":0},{"id":"DenominatorException_1","code":{"coding":[{"system":"http://terminology.hl7.org/CodeSystem/measure-population","code":"denominator-exception","display":"Denominator Exception"}]},"count":0}],"measureScore":{"value":1.0}},{"id":"Group_2","population":[{"id":"InitialPopulation_2","code":{"coding":[{"system":"http://terminology.hl7.org/CodeSystem/measure-population","code":"initial-population","display":"Initial Population"}]},"count":1},{"id":"Denominator_2","code":{"coding":[{"system":"http://terminology.hl7.org/CodeSystem/measure-population","code":"denominator","display":"Denominator"}]},"count":0},{"id":"Numerator_2","code":{"coding":[{"system":"http://terminology.hl7.org/CodeSystem/measure-population","code":"numerator","display":"Numerator"}]},"count":0},{"id":"DenominatorException_2","code":{"coding":[{"system":"http://terminology.hl7.org/CodeSystem/measure-population","code":"denominator-exception","display":"Denominator Exception"}]},"count":0}],"measureScore":{"value":1.0}}],"evaluatedResource":[{"reference":"Patient/dd4e465a-3796-4d5d-af53-3e2ab1e4041b"},{"reference":"Encounter/c97bb780-596d-4518-a9e1-b71e0ac40f96"},{"reference":"Encounter/b5d16b23-b739-4820-9515-142a8a3418bc"},{"reference":"Condition/789394f8-de68-4a7b-bc05-cc05a5256efe"},{"reference":"Condition/6d6d20e9-3d2f-49ca-b779-fac95473902d"},{"reference":"Condition/31310b22-c4d8-40ff-9b42-081aad2f0797"},{"reference":"MedicationRequest/2e61d93e-51b8-4f9f-a201-acdfe429e596"},{"reference":"Practitioner/01448bd8-96c8-42ad-9c9e-cf5efa801d12"},{"reference":"Procedure/31c3f596-c055-43de-9017-45689d3388af"}]},"request":{"method":"PUT","url":"MeasureReport/1e0e8575-f208-45f6-9e9c-9b78bc17ac7a"}}]},"request":{"method":"PUT","url":"Bundle/6346598964316463464163"}},{"resource":{"resourceType":"Condition","id":"789394f8-de68-4a7b-bc05-cc05a5256efe","meta":{"profile":["http://hl7.org/fhir/us/qicore/StructureDefinition/qicore-condition-problems-health-concerns"]},"clinicalStatus":{"coding":[{"system":"http://terminology.hl7.org/CodeSystem/condition-clinical","code":"active","display":"Active"}]},"verificationStatus":{"coding":[{"system":"http://terminology.hl7.org/CodeSystem/condition-ver-status","code":"confirmed","display":"Confirmed"}]},"category":[{"coding":[{"system":"http://terminology.hl7.org/CodeSystem/condition-category","code":"problem-list-item","display":"Problem List Item"}]}],"severity":{"coding":[{"system":"http://snomed.info/sct","version":"http://snomed.info/sct/731000124108/version/20240301","code":"24484000","display":"Severe (severity modifier) (qualifier value)"}]},"code":{"coding":[{"system":"http://snomed.info/sct","version":"http://snomed.info/sct/731000124108/version/20240301","code":"134401001"}]},"subject":{"reference":"Patient/dd4e465a-3796-4d5d-af53-3e2ab1e4041b"},"onsetPeriod":{"start":"2026-01-31T12:00:00.000+00:00"}},"request":{"method":"PUT","url":"Condition/789394f8-de68-4a7b-bc05-cc05a5256efe"}},{"resource":{"resourceType":"Encounter","id":"b5d16b23-b739-4820-9515-142a8a3418bc","meta":{"profile":["http://hl7.org/fhir/us/qicore/StructureDefinition/qicore-encounter"]},"status":"finished","class":{"system":"http://terminology.hl7.org/CodeSystem/v3-ActCode","code":"AMB","display":"ambulatory"},"type":[{"coding":[{"system":"http://www.ama-assn.org/go/cpt","version":"2024","code":"99212","display":"Office or other outpatient visit for the evaluation and management of an established patient, which requires a medically appropriate history and/or examination and straightforward medical decision making. When using time for code selection, 10-19 minutes of total time is spent on the date of the encounter."}]}],"subject":{"reference":"Patient/dd4e465a-3796-4d5d-af53-3e2ab1e4041b"},"period":{"start":"2026-10-15T12:15:00.000+00:00","end":"2026-10-15T13:15:00.000+00:00"},"length":{"value":0,"unit":"days"}},"request":{"method":"PUT","url":"Encounter/b5d16b23-b739-4820-9515-142a8a3418bc"}},{"resource":{"resourceType":"Practitioner","id":"01448bd8-96c8-42ad-9c9e-cf5efa801d12","meta":{"profile":["http://hl7.org/fhir/us/qicore/StructureDefinition/qicore-practitioner"]},"identifier":[{"use":"temp","system":"urn:oid:2.16.840.1.113883.4.336","value":"Practitioner-45"}],"active":true,"name":[{"family":"Strangelove","given":["Adam"],"prefix":["Dr"]}],"qualification":[{"identifier":[{"system":"http://example.org/UniversityIdentifier","value":"12345"}],"code":{"coding":[{"system":"http://terminology.hl7.org/CodeSystem/v2-0360","version":"2.7","code":"BS","display":"Bachelor of Science"}],"text":"Bachelor of Science"},"period":{"start":"1996"},"issuer":{"display":"Example University"}}]},"request":{"method":"PUT","url":"Practitioner/01448bd8-96c8-42ad-9c9e-cf5efa801d12"}},{"resource":{"resourceType":"MedicationRequest","id":"2e61d93e-51b8-4f9f-a201-acdfe429e596","meta":{"profile":["http://hl7.org/fhir/us/qicore/StructureDefinition/qicore-mednotrequested"]},"status":"completed","intent":"order","doNotPerform":true,"medicationCodeableConcept":{"coding":[{"system":"http://www.nlm.nih.gov/research/umls/rxnorm","version":"04032023","code":"200033","display":"carvedilol 25 MG Oral Tablet"}]},"subject":{"reference":"Patient/dd4e465a-3796-4d5d-af53-3e2ab1e4041b"},"authoredOn":"2026-02-01T12:00:00.000+00:00","requester":{"reference":"Practitioner/01448bd8-96c8-42ad-9c9e-cf5efa801d12"},"reasonCode":[{"coding":[{"system":"http://snomed.info/sct","version":"http://snomed.info/sct/731000124108/version/20240301","code":"406149000","display":"Medication declined (situation)"}]}]},"request":{"method":"PUT","url":"MedicationRequest/2e61d93e-51b8-4f9f-a201-acdfe429e596"}},{"resource":{"resourceType":"Encounter","id":"c97bb780-596d-4518-a9e1-b71e0ac40f96","meta":{"profile":["http://hl7.org/fhir/us/qicore/StructureDefinition/qicore-encounter"]},"status":"finished","class":{"system":"http://terminology.hl7.org/CodeSystem/v3-ActCode","code":"AMB","display":"ambulatory"},"type":[{"coding":[{"system":"http://www.ama-assn.org/go/cpt","version":"2024","code":"99202","display":"Office or other outpatient visit for the evaluation and management of a new patient, which requires a medically appropriate history and/or examination and straightforward medical decision making. When using time for code selection, 15-29 minutes of total time is spent on the date of the encounter."}]}],"subject":{"reference":"Patient/dd4e465a-3796-4d5d-af53-3e2ab1e4041b"},"period":{"start":"2026-02-01T12:00:00.000+00:00","end":"2026-02-01T13:00:00.000+00:00"},"length":{"value":0,"unit":"days"}},"request":{"method":"PUT","url":"Encounter/c97bb780-596d-4518-a9e1-b71e0ac40f96"}},{"resource":{"resourceType":"Condition","id":"6d6d20e9-3d2f-49ca-b779-fac95473902d","meta":{"profile":["http://hl7.org/fhir/us/qicore/StructureDefinition/qicore-condition-problems-health-concerns"]},"clinicalStatus":{"coding":[{"system":"http://terminology.hl7.org/CodeSystem/condition-clinical","code":"active","display":"Active"}]},"verificationStatus":{"coding":[{"system":"http://terminology.hl7.org/CodeSystem/condition-ver-status","code":"confirmed","display":"Confirmed"}]},"category":[{"coding":[{"system":"http://terminology.hl7.org/CodeSystem/condition-category","code":"problem-list-item","display":"Problem List Item"}]}],"code":{"coding":[{"system":"http://snomed.info/sct","version":"http://snomed.info/sct/731000124108/version/20240301","code":"10365005","display":"Right main coronary artery thrombosis (disorder)"}]},"subject":{"reference":"Patient/dd4e465a-3796-4d5d-af53-3e2ab1e4041b"},"onsetPeriod":{"start":"2026-10-16T00:00:00.000+00:00"}},"request":{"method":"PUT","url":"Condition/6d6d20e9-3d2f-49ca-b779-fac95473902d"}}]}