{"resourceType":"Bundle","id":"tests-8677cbf1-30b5-4a75-b7d9-b5651757a2b7-bundle","type":"transaction","entry":[{"resource":{"resourceType":"Patient","id":"8677cbf1-30b5-4a75-b7d9-b5651757a2b7","meta":{"profile":["http://hl7.org/fhir/us/qicore/StructureDefinition/qicore-patient"]},"text":{"status":"generated","div":"<div xmlns=\"http://www.w3.org/1999/xhtml\"><div class=\"hapiHeaderText\">Age@18 <b>DENOMPASS </b></div><table class=\"hapiPropertyTable\"><tbody><tr><td>Identifier</td><td>67f3e33acf17bcb386e754d726ed064ccd48ba21ff0ffb2eb678740a684398be</td></tr><tr><td>Date of birth</td><td><span>01 January 1994</span></td></tr></tbody></table></div>"},"extension":[{"url":"http://hl7.org/fhir/us/core/StructureDefinition/us-core-race","extension":[{"url":"ombCategory","valueCoding":{"system":"urn:oid:2.16.840.1.113883.6.238","code":"1002-5","display":"American Indian or Alaska Native","userSelected":true}},{"url":"text","valueString":"American Indian or Alaska Native"}]},{"url":"http://hl7.org/fhir/us/core/StructureDefinition/us-core-ethnicity","extension":[{"url":"ombCategory","valueCoding":{"system":"urn:oid:2.16.840.1.113883.6.238","code":"2135-2","display":"Hispanic or Latino","userSelected":true}},{"url":"text","valueString":"Hispanic or Latino"}]}],"identifier":[{"type":{"coding":[{"system":"http://terminology.hl7.org/CodeSystem/v2-0203","code":"MR"}]},"system":"https://bonnie-fhir.healthit.gov/","value":"61095b0998086b53805591a5"}],"active":true,"name":[{"use":"usual","family":"DENEXPASS","given":["RetrolentalFibroplasiasWithCatSurg"]}],"gender":"female","birthDate":"1996-01-01"},"request":{"method":"PUT","url":"Patient/8677cbf1-30b5-4a75-b7d9-b5651757a2b7"}},{"resource":{"resourceType":"Practitioner","id":"50036be3-eac3-417f-98a1-2b07b57caccb","meta":{"profile":["http://hl7.org/fhir/us/qicore/StructureDefinition/qicore-practitioner"]},"identifier":[{"system":"http://hl7.org/fhir/sid/us-npi","value":"123456"}],"name":[{"family":"Evil","prefix":["Dr"]}]},"request":{"method":"PUT","url":"Practitioner/50036be3-eac3-417f-98a1-2b07b57caccb"}},{"resource":{"resourceType":"MeasureReport","id":"80282ccb-f78d-4e91-837c-62874018b3ff","meta":{"profile":["http://hl7.org/fhir/us/cqfmeasures/StructureDefinition/test-case-cqfm"]},"contained":[{"resourceType":"Parameters","id":"b0044df9-9fe3-445b-bc5c-5120be56a184-parameters","parameter":[{"name":"subject","valueString":"8677cbf1-30b5-4a75-b7d9-b5651757a2b7"}]}],"extension":[{"url":"http://hl7.org/fhir/StructureDefinition/cqf-inputParameters","valueReference":{"reference":"#b0044df9-9fe3-445b-bc5c-5120be56a184-parameters"}},{"url":"http://hl7.org/fhir/us/cqfmeasures/StructureDefinition/cqfm-testCaseDescription","valueMarkdown":"Patient with Retrolental Fibroplasias with cataract surgery. "}],"modifierExtension":[{"url":"http://hl7.org/fhir/us/cqfmeasures/StructureDefinition/cqfm-isTestCase","valueBoolean":true}],"status":"complete","type":"individual","measure":"https://madie.cms.gov/Measure/CMS133FHIRCataracts2040BCVAwithin90Days","period":{"start":"2026-01-01","end":"2026-12-31"},"group":[{"id":"Group_1","population":[{"id":"InitialPopulation_1","code":{"coding":[{"system":"http://terminology.hl7.org/CodeSystem/measure-population","code":"initial-population","display":"Initial Population"}]},"count":1},{"id":"Denominator_1","code":{"coding":[{"system":"http://terminology.hl7.org/CodeSystem/measure-population","code":"denominator","display":"Denominator"}]},"count":1},{"id":"DenominatorExclusion_1","code":{"coding":[{"system":"http://terminology.hl7.org/CodeSystem/measure-population","code":"denominator-exclusion","display":"Denominator Exclusion"}]},"count":1},{"id":"Numerator_1","code":{"coding":[{"system":"http://terminology.hl7.org/CodeSystem/measure-population","code":"numerator","display":"Numerator"}]},"count":0}],"measureScore":{"value":0.0}}],"evaluatedResource":[{"reference":"Patient/8677cbf1-30b5-4a75-b7d9-b5651757a2b7"},{"reference":"Observation/b3299dd5-1635-46e4-b33d-9683831cea71"},{"reference":"Procedure/8660b91d-2ccc-483c-ad17-fa437575b621"},{"reference":"Condition/3666d4cd-e1a5-436e-ab37-30d0ac2951d2"},{"reference":"Coverage/c865bb23-e4eb-4790-8d5a-270207f5d1d2"},{"reference":"Organization/52b6de06-24d2-4a5a-b236-77787e34fc95"},{"reference":"Practitioner/50036be3-eac3-417f-98a1-2b07b57caccb"}]},"request":{"method":"PUT","url":"MeasureReport/80282ccb-f78d-4e91-837c-62874018b3ff"}},{"resource":{"resourceType":"Organization","id":"52b6de06-24d2-4a5a-b236-77787e34fc95","meta":{"profile":["http://hl7.org/fhir/us/qicore/StructureDefinition/qicore-organization"]},"identifier":[{"use":"temp","system":"urn:oid:2.16.840.1.113883.4.4","value":"21-3259825"}],"active":true,"type":[{"coding":[{"system":"http://terminology.hl7.org/CodeSystem/organization-type","code":"pay","display":"Payer"}]}],"name":"Blue Cross Blue Shield of Texas","telecom":[{"system":"phone","value":"(+1) 972-766-6900"}],"address":[{"use":"billing","type":"postal","line":["P.O. Box 660044"],"city":"Dallas","state":"TX","postalCode":"75266-0044","country":"USA"}]},"request":{"method":"PUT","url":"Organization/52b6de06-24d2-4a5a-b236-77787e34fc95"}},{"resource":{"resourceType":"Coverage","id":"c865bb23-e4eb-4790-8d5a-270207f5d1d2","meta":{"profile":["http://hl7.org/fhir/us/qicore/StructureDefinition/qicore-coverage"]},"status":"active","beneficiary":{"reference":"Patient/8677cbf1-30b5-4a75-b7d9-b5651757a2b7"},"payor":[{"reference":"Organization/52b6de06-24d2-4a5a-b236-77787e34fc95"}]},"request":{"method":"PUT","url":"Coverage/c865bb23-e4eb-4790-8d5a-270207f5d1d2"}},{"resource":{"resourceType":"Observation","id":"b3299dd5-1635-46e4-b33d-9683831cea71","meta":{"profile":["http://hl7.org/fhir/us/qicore/StructureDefinition/qicore-observation-clinical-result"]},"status":"final","category":[{"coding":[{"system":"http://terminology.hl7.org/CodeSystem/observation-category","code":"exam","display":"exam"}]}],"code":{"coding":[{"system":"http://snomed.info/sct","code":"419775003"}]},"subject":{"reference":"Patient/8677cbf1-30b5-4a75-b7d9-b5651757a2b7"},"effectivePeriod":{"start":"2026-03-13T09:00:00+00:00","end":"2026-03-13T09:30:00+00:00"}},"request":{"method":"PUT","url":"Observation/b3299dd5-1635-46e4-b33d-9683831cea71"}},{"resource":{"resourceType":"Procedure","id":"8660b91d-2ccc-483c-ad17-fa437575b621","meta":{"profile":["http://hl7.org/fhir/us/qicore/StructureDefinition/qicore-procedure"]},"extension":[{"url":"http://hl7.org/fhir/us/qicore/StructureDefinition/qicore-recorded","valueDateTime":"2026-03-05T09:35:00-04:00"}],"status":"completed","code":{"coding":[{"system":"http://snomed.info/sct","code":"84149000"}]},"subject":{"reference":"Patient/8677cbf1-30b5-4a75-b7d9-b5651757a2b7"},"performedPeriod":{"start":"2026-03-05T09:20:00-04:00","end":"2026-04-05T10:30:00-04:00"}},"request":{"method":"PUT","url":"Procedure/8660b91d-2ccc-483c-ad17-fa437575b621"}},{"resource":{"resourceType":"Condition","id":"3666d4cd-e1a5-436e-ab37-30d0ac2951d2","meta":{"profile":["http://hl7.org/fhir/us/qicore/StructureDefinition/qicore-condition-encounter-diagnosis"]},"clinicalStatus":{"coding":[{"system":"http://terminology.hl7.org/CodeSystem/condition-clinical","code":"active","display":"active","userSelected":true}]},"category":[{"coding":[{"system":"http://terminology.hl7.org/CodeSystem/condition-clinical","code":"active","display":"active","userSelected":true}]}],"code":{"coding":[{"system":"http://hl7.org/fhir/sid/icd-10-cm","code":"H35.171","userSelected":true},{"system":"http://snomed.info/sct","code":"408847006","userSelected":true}]},"subject":{"reference":"Patient/8677cbf1-30b5-4a75-b7d9-b5651757a2b7"},"onsetDateTime":"2024-11-01T08:00:00.000+00:00"},"request":{"method":"PUT","url":"Condition/3666d4cd-e1a5-436e-ab37-30d0ac2951d2"}},{"resource":{"resourceType":"Bundle","id":"61095b0998086b53805591a5","type":"transaction","entry":[{"fullUrl":"https://madie.cms.gov/Patient/8677cbf1-30b5-4a75-b7d9-b5651757a2b7","resource":{"resourceType":"Patient","id":"8677cbf1-30b5-4a75-b7d9-b5651757a2b7","meta":{"profile":["http://hl7.org/fhir/us/qicore/StructureDefinition/qicore-patient"]},"text":{"status":"generated","div":"<div xmlns=\"http://www.w3.org/1999/xhtml\"><div class=\"hapiHeaderText\">Age@18 <b>DENOMPASS </b></div><table class=\"hapiPropertyTable\"><tbody><tr><td>Identifier</td><td>67f3e33acf17bcb386e754d726ed064ccd48ba21ff0ffb2eb678740a684398be</td></tr><tr><td>Date of birth</td><td><span>01 January 1994</span></td></tr></tbody></table></div>"},"extension":[{"url":"http://hl7.org/fhir/us/core/StructureDefinition/us-core-race","extension":[{"url":"ombCategory","valueCoding":{"system":"urn:oid:2.16.840.1.113883.6.238","code":"1002-5","display":"American Indian or Alaska Native","userSelected":true}},{"url":"text","valueString":"American Indian or Alaska Native"}]},{"url":"http://hl7.org/fhir/us/core/StructureDefinition/us-core-ethnicity","extension":[{"url":"ombCategory","valueCoding":{"system":"urn:oid:2.16.840.1.113883.6.238","code":"2135-2","display":"Hispanic or Latino","userSelected":true}},{"url":"text","valueString":"Hispanic or Latino"}]}],"identifier":[{"type":{"coding":[{"system":"http://terminology.hl7.org/CodeSystem/v2-0203","code":"MR"}]},"system":"https://bonnie-fhir.healthit.gov/","value":"61095b0998086b53805591a5"}],"active":true,"name":[{"use":"usual","family":"DENEXPASS","given":["RetrolentalFibroplasiasWithCatSurg"]}],"gender":"female","birthDate":"1996-01-01"},"request":{"method":"PUT","url":"Patient/8677cbf1-30b5-4a75-b7d9-b5651757a2b7"}},{"fullUrl":"https://madie.cms.gov/Observation/b3299dd5-1635-46e4-b33d-9683831cea71","resource":{"resourceType":"Observation","id":"b3299dd5-1635-46e4-b33d-9683831cea71","meta":{"profile":["http://hl7.org/fhir/us/qicore/StructureDefinition/qicore-observation-clinical-result"]},"status":"final","category":[{"coding":[{"system":"http://terminology.hl7.org/CodeSystem/observation-category","code":"exam","display":"exam"}]}],"code":{"coding":[{"system":"http://snomed.info/sct","code":"419775003"}]},"subject":{"reference":"Patient/8677cbf1-30b5-4a75-b7d9-b5651757a2b7"},"effectivePeriod":{"start":"2026-03-13T09:00:00+00:00","end":"2026-03-13T09:30:00+00:00"}},"request":{"method":"PUT","url":"Observation/b3299dd5-1635-46e4-b33d-9683831cea71"}},{"fullUrl":"https://madie.cms.gov/Procedure/8660b91d-2ccc-483c-ad17-fa437575b621","resource":{"resourceType":"Procedure","id":"8660b91d-2ccc-483c-ad17-fa437575b621","meta":{"profile":["http://hl7.org/fhir/us/qicore/StructureDefinition/qicore-procedure"]},"extension":[{"url":"http://hl7.org/fhir/us/qicore/StructureDefinition/qicore-recorded","valueDateTime":"2026-03-05T09:35:00-04:00"}],"status":"completed","code":{"coding":[{"system":"http://snomed.info/sct","code":"84149000"}]},"subject":{"reference":"Patient/8677cbf1-30b5-4a75-b7d9-b5651757a2b7"},"performedPeriod":{"start":"2026-03-05T09:20:00-04:00","end":"2026-04-05T10:30:00-04:00"}},"request":{"method":"PUT","url":"Procedure/8660b91d-2ccc-483c-ad17-fa437575b621"}},{"fullUrl":"https://madie.cms.gov/Condition/3666d4cd-e1a5-436e-ab37-30d0ac2951d2","resource":{"resourceType":"Condition","id":"3666d4cd-e1a5-436e-ab37-30d0ac2951d2","meta":{"profile":["http://hl7.org/fhir/us/qicore/StructureDefinition/qicore-condition-encounter-diagnosis"]},"clinicalStatus":{"coding":[{"system":"http://terminology.hl7.org/CodeSystem/condition-clinical","code":"active","display":"active","userSelected":true}]},"category":[{"coding":[{"system":"http://terminology.hl7.org/CodeSystem/condition-clinical","code":"active","display":"active","userSelected":true}]}],"code":{"coding":[{"system":"http://hl7.org/fhir/sid/icd-10-cm","code":"H35.171","userSelected":true},{"system":"http://snomed.info/sct","code":"408847006","userSelected":true}]},"subject":{"reference":"Patient/8677cbf1-30b5-4a75-b7d9-b5651757a2b7"},"onsetDateTime":"2024-11-01T08:00:00.000+00:00"},"request":{"method":"PUT","url":"Condition/3666d4cd-e1a5-436e-ab37-30d0ac2951d2"}},{"fullUrl":"https://madie.cms.gov/Coverage/c865bb23-e4eb-4790-8d5a-270207f5d1d2","resource":{"resourceType":"Coverage","id":"c865bb23-e4eb-4790-8d5a-270207f5d1d2","meta":{"profile":["http://hl7.org/fhir/us/qicore/StructureDefinition/qicore-coverage"]},"status":"active","beneficiary":{"reference":"Patient/8677cbf1-30b5-4a75-b7d9-b5651757a2b7"},"payor":[{"reference":"Organization/52b6de06-24d2-4a5a-b236-77787e34fc95"}]},"request":{"method":"PUT","url":"Coverage/c865bb23-e4eb-4790-8d5a-270207f5d1d2"}},{"fullUrl":"https://madie.cms.gov/Organization/52b6de06-24d2-4a5a-b236-77787e34fc95","resource":{"resourceType":"Organization","id":"52b6de06-24d2-4a5a-b236-77787e34fc95","meta":{"profile":["http://hl7.org/fhir/us/qicore/StructureDefinition/qicore-organization"]},"identifier":[{"use":"temp","system":"urn:oid:2.16.840.1.113883.4.4","value":"21-3259825"}],"active":true,"type":[{"coding":[{"system":"http://terminology.hl7.org/CodeSystem/organization-type","code":"pay","display":"Payer"}]}],"name":"Blue Cross Blue Shield of Texas","telecom":[{"system":"phone","value":"(+1) 972-766-6900"}],"address":[{"use":"billing","type":"postal","line":["P.O. Box 660044"],"city":"Dallas","state":"TX","postalCode":"75266-0044","country":"USA"}]},"request":{"method":"PUT","url":"Organization/52b6de06-24d2-4a5a-b236-77787e34fc95"}},{"fullUrl":"https://madie.cms.gov/Practitioner/50036be3-eac3-417f-98a1-2b07b57caccb","resource":{"resourceType":"Practitioner","id":"50036be3-eac3-417f-98a1-2b07b57caccb","meta":{"profile":["http://hl7.org/fhir/us/qicore/StructureDefinition/qicore-practitioner"]},"identifier":[{"system":"http://hl7.org/fhir/sid/us-npi","value":"123456"}],"name":[{"family":"Evil","prefix":["Dr"]}]},"request":{"method":"PUT","url":"Practitioner/50036be3-eac3-417f-98a1-2b07b57caccb"}},{"fullUrl":"https://madie.cms.gov/MeasureReport/80282ccb-f78d-4e91-837c-62874018b3ff","resource":{"resourceType":"MeasureReport","id":"80282ccb-f78d-4e91-837c-62874018b3ff","meta":{"profile":["http://hl7.org/fhir/us/cqfmeasures/StructureDefinition/test-case-cqfm"]},"contained":[{"resourceType":"Parameters","id":"b0044df9-9fe3-445b-bc5c-5120be56a184-parameters","parameter":[{"name":"subject","valueString":"8677cbf1-30b5-4a75-b7d9-b5651757a2b7"}]}],"extension":[{"url":"http://hl7.org/fhir/StructureDefinition/cqf-inputParameters","valueReference":{"reference":"#b0044df9-9fe3-445b-bc5c-5120be56a184-parameters"}},{"url":"http://hl7.org/fhir/us/cqfmeasures/StructureDefinition/cqfm-testCaseDescription","valueMarkdown":"Patient with Retrolental Fibroplasias with cataract surgery. "}],"modifierExtension":[{"url":"http://hl7.org/fhir/us/cqfmeasures/StructureDefinition/cqfm-isTestCase","valueBoolean":true}],"status":"complete","type":"individual","measure":"https://madie.cms.gov/Measure/CMS133FHIRCataracts2040BCVAwithin90Days","period":{"start":"2026-01-01","end":"2026-12-31"},"group":[{"id":"Group_1","population":[{"id":"InitialPopulation_1","code":{"coding":[{"system":"http://terminology.hl7.org/CodeSystem/measure-population","code":"initial-population","display":"Initial Population"}]},"count":1},{"id":"Denominator_1","code":{"coding":[{"system":"http://terminology.hl7.org/CodeSystem/measure-population","code":"denominator","display":"Denominator"}]},"count":1},{"id":"DenominatorExclusion_1","code":{"coding":[{"system":"http://terminology.hl7.org/CodeSystem/measure-population","code":"denominator-exclusion","display":"Denominator Exclusion"}]},"count":1},{"id":"Numerator_1","code":{"coding":[{"system":"http://terminology.hl7.org/CodeSystem/measure-population","code":"numerator","display":"Numerator"}]},"count":0}],"measureScore":{"value":0.0}}],"evaluatedResource":[{"reference":"Patient/8677cbf1-30b5-4a75-b7d9-b5651757a2b7"},{"reference":"Observation/b3299dd5-1635-46e4-b33d-9683831cea71"},{"reference":"Procedure/8660b91d-2ccc-483c-ad17-fa437575b621"},{"reference":"Condition/3666d4cd-e1a5-436e-ab37-30d0ac2951d2"},{"reference":"Coverage/c865bb23-e4eb-4790-8d5a-270207f5d1d2"},{"reference":"Organization/52b6de06-24d2-4a5a-b236-77787e34fc95"},{"reference":"Practitioner/50036be3-eac3-417f-98a1-2b07b57caccb"}]},"request":{"method":"PUT","url":"MeasureReport/80282ccb-f78d-4e91-837c-62874018b3ff"}}]},"request":{"method":"PUT","url":"Bundle/61095b0998086b53805591a5"}}]}