{"resourceType":"Bundle","id":"tests-4dd85cf1-18a3-44ed-8a72-096694776335-bundle","type":"transaction","entry":[{"resource":{"resourceType":"MeasureReport","id":"53a5801d-93fb-44b8-85f4-9c3e0df055e5","meta":{"profile":["http://hl7.org/fhir/us/cqfmeasures/StructureDefinition/test-case-cqfm"]},"contained":[{"resourceType":"Parameters","id":"56a0b59c-d936-4ed6-a4d0-a853370810c0-parameters","parameter":[{"name":"subject","valueString":"4dd85cf1-18a3-44ed-8a72-096694776335"}]}],"extension":[{"url":"http://hl7.org/fhir/StructureDefinition/cqf-inputParameters","valueReference":{"reference":"#56a0b59c-d936-4ed6-a4d0-a853370810c0-parameters"}},{"url":"http://hl7.org/fhir/us/cqfmeasures/StructureDefinition/cqfm-testCaseDescription","valueMarkdown":"Patient with Visual Acuity Exam Performed in Dec 2023"}],"modifierExtension":[{"url":"http://hl7.org/fhir/us/cqfmeasures/StructureDefinition/cqfm-isTestCase","valueBoolean":true}],"status":"complete","type":"individual","measure":"https://madie.cms.gov/Measure/CMS133FHIRCataracts2040BCVAwithin90Days","period":{"start":"2026-01-01","end":"2026-12-31"},"group":[{"id":"Group_1","population":[{"id":"InitialPopulation_1","code":{"coding":[{"system":"http://terminology.hl7.org/CodeSystem/measure-population","code":"initial-population","display":"Initial Population"}]},"count":1},{"id":"Denominator_1","code":{"coding":[{"system":"http://terminology.hl7.org/CodeSystem/measure-population","code":"denominator","display":"Denominator"}]},"count":1},{"id":"DenominatorExclusion_1","code":{"coding":[{"system":"http://terminology.hl7.org/CodeSystem/measure-population","code":"denominator-exclusion","display":"Denominator Exclusion"}]},"count":0},{"id":"Numerator_1","code":{"coding":[{"system":"http://terminology.hl7.org/CodeSystem/measure-population","code":"numerator","display":"Numerator"}]},"count":0}],"measureScore":{"value":0.0}}],"evaluatedResource":[{"reference":"Patient/4dd85cf1-18a3-44ed-8a72-096694776335"},{"reference":"Observation/839cc8b4-ed27-45a2-8f52-ce60bab51bd1"},{"reference":"Procedure/bd700a71-0550-4328-ac7a-62cc78f323be"},{"reference":"Coverage/7d50cc9f-92bc-4893-8ffa-ff4e2c032390"},{"reference":"Organization/6e49d531-ac0f-4e36-9184-6421794fbbeb"},{"reference":"Observation/bc40807c-9586-497e-8e49-e644e1fe0161"},{"reference":"Practitioner/0ff89ef2-60d8-47d9-8615-351a6a7b4ab7"}]},"request":{"method":"PUT","url":"MeasureReport/53a5801d-93fb-44b8-85f4-9c3e0df055e5"}},{"resource":{"resourceType":"Procedure","id":"bd700a71-0550-4328-ac7a-62cc78f323be","meta":{"profile":["http://hl7.org/fhir/us/qicore/StructureDefinition/qicore-procedure"]},"extension":[{"url":"http://hl7.org/fhir/us/qicore/StructureDefinition/qicore-recorded","valueDateTime":"2026-03-05T09:35:00-04:00"}],"status":"completed","code":{"coding":[{"system":"http://snomed.info/sct","code":"84149000"}]},"subject":{"reference":"Patient/4dd85cf1-18a3-44ed-8a72-096694776335"},"performedPeriod":{"start":"2026-03-05T09:20:00-04:00","end":"2026-03-05T10:30:00-04:00"}},"request":{"method":"PUT","url":"Procedure/bd700a71-0550-4328-ac7a-62cc78f323be"}},{"resource":{"resourceType":"Observation","id":"bc40807c-9586-497e-8e49-e644e1fe0161","meta":{"profile":["http://hl7.org/fhir/us/qicore/StructureDefinition/qicore-observation-clinical-result"]},"status":"final","category":[{"coding":[{"system":"http://terminology.hl7.org/CodeSystem/observation-category","code":"exam","display":"Exam"}]}],"code":{"coding":[{"system":"http://snomed.info/sct","code":"419775003","display":"Best corrected visual acuity (observable entity)","userSelected":true}]},"subject":{"reference":"Patient/4dd85cf1-18a3-44ed-8a72-096694776335"},"effectiveDateTime":"2026-12-16T08:00:00.000+00:00","issued":"2026-12-16T08:00:00.000+00:00","valueCodeableConcept":{"coding":[{"system":"http://snomed.info/sct","code":"422497000","display":"Distance vision 20/20 (finding)","userSelected":true}]}},"request":{"method":"PUT","url":"Observation/bc40807c-9586-497e-8e49-e644e1fe0161"}},{"resource":{"resourceType":"Bundle","id":"61095b0998086b53805591a5","type":"transaction","entry":[{"fullUrl":"https://madie.cms.gov/Patient/4dd85cf1-18a3-44ed-8a72-096694776335","resource":{"resourceType":"Patient","id":"4dd85cf1-18a3-44ed-8a72-096694776335","meta":{"profile":["http://hl7.org/fhir/us/qicore/StructureDefinition/qicore-patient"]},"text":{"status":"generated","div":"<div xmlns=\"http://www.w3.org/1999/xhtml\"><div class=\"hapiHeaderText\">Age@18 <b>DENOMPASS </b></div><table class=\"hapiPropertyTable\"><tbody><tr><td>Identifier</td><td>67f3e33acf17bcb386e754d726ed064ccd48ba21ff0ffb2eb678740a684398be</td></tr><tr><td>Date of birth</td><td><span>01 January 1994</span></td></tr></tbody></table></div>"},"extension":[{"url":"http://hl7.org/fhir/us/core/StructureDefinition/us-core-race","extension":[{"url":"ombCategory","valueCoding":{"system":"urn:oid:2.16.840.1.113883.6.238","code":"1002-5","display":"American Indian or Alaska Native","userSelected":true}},{"url":"text","valueString":"American Indian or Alaska Native"},{"url":"detailed","valueCoding":{"system":"urn:oid:2.16.840.1.113883.6.238","code":"1653-5","display":"Tohono O'Odham"}}]},{"url":"http://hl7.org/fhir/us/core/StructureDefinition/us-core-ethnicity","extension":[{"url":"ombCategory","valueCoding":{"system":"urn:oid:2.16.840.1.113883.6.238","code":"2135-2","display":"Hispanic or Latino","userSelected":true}},{"url":"text","valueString":"Hispanic or Latino"},{"url":"detailed","valueCoding":{"system":"urn:oid:2.16.840.1.113883.6.238","code":"2153-5","display":"Mexican American Indian"}}]}],"identifier":[{"type":{"coding":[{"system":"http://terminology.hl7.org/CodeSystem/v2-0203","code":"MR"}]},"system":"https://bonnie-fhir.healthit.gov/","value":"61095b0998086b53805591a5"}],"active":true,"name":[{"use":"usual","family":"NUMFail","given":["VisualAcuityExamPerformedinDec"]}],"gender":"female","birthDate":"1996-01-01"},"request":{"method":"PUT","url":"Patient/4dd85cf1-18a3-44ed-8a72-096694776335"}},{"fullUrl":"https://madie.cms.gov/Observation/839cc8b4-ed27-45a2-8f52-ce60bab51bd1","resource":{"resourceType":"Observation","id":"839cc8b4-ed27-45a2-8f52-ce60bab51bd1","meta":{"profile":["http://hl7.org/fhir/us/qicore/StructureDefinition/qicore-observation-clinical-result"]},"status":"final","category":[{"coding":[{"system":"http://terminology.hl7.org/CodeSystem/observation-category","code":"exam","display":"Exam"}]}],"code":{"coding":[{"system":"http://snomed.info/sct","code":"419775003"}]},"subject":{"reference":"Patient/4dd85cf1-18a3-44ed-8a72-096694776335"},"effectivePeriod":{"start":"2026-03-13T09:00:00+00:00","end":"2026-03-13T09:30:00+00:00"}},"request":{"method":"PUT","url":"Observation/839cc8b4-ed27-45a2-8f52-ce60bab51bd1"}},{"fullUrl":"https://madie.cms.gov/Procedure/bd700a71-0550-4328-ac7a-62cc78f323be","resource":{"resourceType":"Procedure","id":"bd700a71-0550-4328-ac7a-62cc78f323be","meta":{"profile":["http://hl7.org/fhir/us/qicore/StructureDefinition/qicore-procedure"]},"extension":[{"url":"http://hl7.org/fhir/us/qicore/StructureDefinition/qicore-recorded","valueDateTime":"2026-03-05T09:35:00-04:00"}],"status":"completed","code":{"coding":[{"system":"http://snomed.info/sct","code":"84149000"}]},"subject":{"reference":"Patient/4dd85cf1-18a3-44ed-8a72-096694776335"},"performedPeriod":{"start":"2026-03-05T09:20:00-04:00","end":"2026-03-05T10:30:00-04:00"}},"request":{"method":"PUT","url":"Procedure/bd700a71-0550-4328-ac7a-62cc78f323be"}},{"fullUrl":"https://madie.cms.gov/Coverage/7d50cc9f-92bc-4893-8ffa-ff4e2c032390","resource":{"resourceType":"Coverage","id":"7d50cc9f-92bc-4893-8ffa-ff4e2c032390","meta":{"profile":["http://hl7.org/fhir/us/qicore/StructureDefinition/qicore-coverage"]},"status":"active","type":{"coding":[{"system":"https://nahdo.org/sopt","code":"1","display":"MEDICARE"}]},"beneficiary":{"reference":"Patient/4dd85cf1-18a3-44ed-8a72-096694776335"},"period":{"start":"2025-12-01T00:00:00+00:00"},"payor":[{"reference":"Organization/6e49d531-ac0f-4e36-9184-6421794fbbeb"}]},"request":{"method":"PUT","url":"Coverage/7d50cc9f-92bc-4893-8ffa-ff4e2c032390"}},{"fullUrl":"https://madie.cms.gov/Organization/6e49d531-ac0f-4e36-9184-6421794fbbeb","resource":{"resourceType":"Organization","id":"6e49d531-ac0f-4e36-9184-6421794fbbeb","meta":{"profile":["http://hl7.org/fhir/us/qicore/StructureDefinition/qicore-organization"]},"identifier":[{"use":"temp","system":"urn:oid:2.16.840.1.113883.4.4","value":"21-3259825"}],"active":true,"type":[{"coding":[{"system":"http://terminology.hl7.org/CodeSystem/organization-type","code":"pay","display":"Payer"}]}],"name":"Blue Cross Blue Shield of Texas","telecom":[{"system":"phone","value":"(+1) 972-766-6900"}],"address":[{"use":"billing","type":"postal","line":["P.O. Box 660044"],"city":"Dallas","state":"TX","postalCode":"75266-0044","country":"USA"}]},"request":{"method":"PUT","url":"Organization/6e49d531-ac0f-4e36-9184-6421794fbbeb"}},{"fullUrl":"https://madie.cms.gov/Observation/bc40807c-9586-497e-8e49-e644e1fe0161","resource":{"resourceType":"Observation","id":"bc40807c-9586-497e-8e49-e644e1fe0161","meta":{"profile":["http://hl7.org/fhir/us/qicore/StructureDefinition/qicore-observation-clinical-result"]},"status":"final","category":[{"coding":[{"system":"http://terminology.hl7.org/CodeSystem/observation-category","code":"exam","display":"Exam"}]}],"code":{"coding":[{"system":"http://snomed.info/sct","code":"419775003","display":"Best corrected visual acuity (observable entity)","userSelected":true}]},"subject":{"reference":"Patient/4dd85cf1-18a3-44ed-8a72-096694776335"},"effectiveDateTime":"2026-12-16T08:00:00.000+00:00","issued":"2026-12-16T08:00:00.000+00:00","valueCodeableConcept":{"coding":[{"system":"http://snomed.info/sct","code":"422497000","display":"Distance vision 20/20 (finding)","userSelected":true}]}},"request":{"method":"PUT","url":"Observation/bc40807c-9586-497e-8e49-e644e1fe0161"}},{"fullUrl":"https://madie.cms.gov/Practitioner/0ff89ef2-60d8-47d9-8615-351a6a7b4ab7","resource":{"resourceType":"Practitioner","id":"0ff89ef2-60d8-47d9-8615-351a6a7b4ab7","meta":{"profile":["http://hl7.org/fhir/us/qicore/StructureDefinition/qicore-practitioner"]},"identifier":[{"system":"http://hl7.org/fhir/sid/us-npi","value":"123456"}],"name":[{"family":"Evil","prefix":["Dr"]}]},"request":{"method":"PUT","url":"Practitioner/0ff89ef2-60d8-47d9-8615-351a6a7b4ab7"}},{"fullUrl":"https://madie.cms.gov/MeasureReport/53a5801d-93fb-44b8-85f4-9c3e0df055e5","resource":{"resourceType":"MeasureReport","id":"53a5801d-93fb-44b8-85f4-9c3e0df055e5","meta":{"profile":["http://hl7.org/fhir/us/cqfmeasures/StructureDefinition/test-case-cqfm"]},"contained":[{"resourceType":"Parameters","id":"56a0b59c-d936-4ed6-a4d0-a853370810c0-parameters","parameter":[{"name":"subject","valueString":"4dd85cf1-18a3-44ed-8a72-096694776335"}]}],"extension":[{"url":"http://hl7.org/fhir/StructureDefinition/cqf-inputParameters","valueReference":{"reference":"#56a0b59c-d936-4ed6-a4d0-a853370810c0-parameters"}},{"url":"http://hl7.org/fhir/us/cqfmeasures/StructureDefinition/cqfm-testCaseDescription","valueMarkdown":"Patient with Visual Acuity Exam Performed in Dec 2023"}],"modifierExtension":[{"url":"http://hl7.org/fhir/us/cqfmeasures/StructureDefinition/cqfm-isTestCase","valueBoolean":true}],"status":"complete","type":"individual","measure":"https://madie.cms.gov/Measure/CMS133FHIRCataracts2040BCVAwithin90Days","period":{"start":"2026-01-01","end":"2026-12-31"},"group":[{"id":"Group_1","population":[{"id":"InitialPopulation_1","code":{"coding":[{"system":"http://terminology.hl7.org/CodeSystem/measure-population","code":"initial-population","display":"Initial Population"}]},"count":1},{"id":"Denominator_1","code":{"coding":[{"system":"http://terminology.hl7.org/CodeSystem/measure-population","code":"denominator","display":"Denominator"}]},"count":1},{"id":"DenominatorExclusion_1","code":{"coding":[{"system":"http://terminology.hl7.org/CodeSystem/measure-population","code":"denominator-exclusion","display":"Denominator Exclusion"}]},"count":0},{"id":"Numerator_1","code":{"coding":[{"system":"http://terminology.hl7.org/CodeSystem/measure-population","code":"numerator","display":"Numerator"}]},"count":0}],"measureScore":{"value":0.0}}],"evaluatedResource":[{"reference":"Patient/4dd85cf1-18a3-44ed-8a72-096694776335"},{"reference":"Observation/839cc8b4-ed27-45a2-8f52-ce60bab51bd1"},{"reference":"Procedure/bd700a71-0550-4328-ac7a-62cc78f323be"},{"reference":"Coverage/7d50cc9f-92bc-4893-8ffa-ff4e2c032390"},{"reference":"Organization/6e49d531-ac0f-4e36-9184-6421794fbbeb"},{"reference":"Observation/bc40807c-9586-497e-8e49-e644e1fe0161"},{"reference":"Practitioner/0ff89ef2-60d8-47d9-8615-351a6a7b4ab7"}]},"request":{"method":"PUT","url":"MeasureReport/53a5801d-93fb-44b8-85f4-9c3e0df055e5"}}]},"request":{"method":"PUT","url":"Bundle/61095b0998086b53805591a5"}},{"resource":{"resourceType":"Observation","id":"839cc8b4-ed27-45a2-8f52-ce60bab51bd1","meta":{"profile":["http://hl7.org/fhir/us/qicore/StructureDefinition/qicore-observation-clinical-result"]},"status":"final","category":[{"coding":[{"system":"http://terminology.hl7.org/CodeSystem/observation-category","code":"exam","display":"Exam"}]}],"code":{"coding":[{"system":"http://snomed.info/sct","code":"419775003"}]},"subject":{"reference":"Patient/4dd85cf1-18a3-44ed-8a72-096694776335"},"effectivePeriod":{"start":"2026-03-13T09:00:00+00:00","end":"2026-03-13T09:30:00+00:00"}},"request":{"method":"PUT","url":"Observation/839cc8b4-ed27-45a2-8f52-ce60bab51bd1"}},{"resource":{"resourceType":"Organization","id":"6e49d531-ac0f-4e36-9184-6421794fbbeb","meta":{"profile":["http://hl7.org/fhir/us/qicore/StructureDefinition/qicore-organization"]},"identifier":[{"use":"temp","system":"urn:oid:2.16.840.1.113883.4.4","value":"21-3259825"}],"active":true,"type":[{"coding":[{"system":"http://terminology.hl7.org/CodeSystem/organization-type","code":"pay","display":"Payer"}]}],"name":"Blue Cross Blue Shield of Texas","telecom":[{"system":"phone","value":"(+1) 972-766-6900"}],"address":[{"use":"billing","type":"postal","line":["P.O. Box 660044"],"city":"Dallas","state":"TX","postalCode":"75266-0044","country":"USA"}]},"request":{"method":"PUT","url":"Organization/6e49d531-ac0f-4e36-9184-6421794fbbeb"}},{"resource":{"resourceType":"Patient","id":"4dd85cf1-18a3-44ed-8a72-096694776335","meta":{"profile":["http://hl7.org/fhir/us/qicore/StructureDefinition/qicore-patient"]},"text":{"status":"generated","div":"<div xmlns=\"http://www.w3.org/1999/xhtml\"><div class=\"hapiHeaderText\">Age@18 <b>DENOMPASS </b></div><table class=\"hapiPropertyTable\"><tbody><tr><td>Identifier</td><td>67f3e33acf17bcb386e754d726ed064ccd48ba21ff0ffb2eb678740a684398be</td></tr><tr><td>Date of birth</td><td><span>01 January 1994</span></td></tr></tbody></table></div>"},"extension":[{"url":"http://hl7.org/fhir/us/core/StructureDefinition/us-core-race","extension":[{"url":"ombCategory","valueCoding":{"system":"urn:oid:2.16.840.1.113883.6.238","code":"1002-5","display":"American Indian or Alaska Native","userSelected":true}},{"url":"text","valueString":"American Indian or Alaska Native"},{"url":"detailed","valueCoding":{"system":"urn:oid:2.16.840.1.113883.6.238","code":"1653-5","display":"Tohono O'Odham"}}]},{"url":"http://hl7.org/fhir/us/core/StructureDefinition/us-core-ethnicity","extension":[{"url":"ombCategory","valueCoding":{"system":"urn:oid:2.16.840.1.113883.6.238","code":"2135-2","display":"Hispanic or Latino","userSelected":true}},{"url":"text","valueString":"Hispanic or Latino"},{"url":"detailed","valueCoding":{"system":"urn:oid:2.16.840.1.113883.6.238","code":"2153-5","display":"Mexican American Indian"}}]}],"identifier":[{"type":{"coding":[{"system":"http://terminology.hl7.org/CodeSystem/v2-0203","code":"MR"}]},"system":"https://bonnie-fhir.healthit.gov/","value":"61095b0998086b53805591a5"}],"active":true,"name":[{"use":"usual","family":"NUMFail","given":["VisualAcuityExamPerformedinDec"]}],"gender":"female","birthDate":"1996-01-01"},"request":{"method":"PUT","url":"Patient/4dd85cf1-18a3-44ed-8a72-096694776335"}},{"resource":{"resourceType":"Coverage","id":"7d50cc9f-92bc-4893-8ffa-ff4e2c032390","meta":{"profile":["http://hl7.org/fhir/us/qicore/StructureDefinition/qicore-coverage"]},"status":"active","type":{"coding":[{"system":"https://nahdo.org/sopt","code":"1","display":"MEDICARE"}]},"beneficiary":{"reference":"Patient/4dd85cf1-18a3-44ed-8a72-096694776335"},"period":{"start":"2025-12-01T00:00:00+00:00"},"payor":[{"reference":"Organization/6e49d531-ac0f-4e36-9184-6421794fbbeb"}]},"request":{"method":"PUT","url":"Coverage/7d50cc9f-92bc-4893-8ffa-ff4e2c032390"}},{"resource":{"resourceType":"Practitioner","id":"0ff89ef2-60d8-47d9-8615-351a6a7b4ab7","meta":{"profile":["http://hl7.org/fhir/us/qicore/StructureDefinition/qicore-practitioner"]},"identifier":[{"system":"http://hl7.org/fhir/sid/us-npi","value":"123456"}],"name":[{"family":"Evil","prefix":["Dr"]}]},"request":{"method":"PUT","url":"Practitioner/0ff89ef2-60d8-47d9-8615-351a6a7b4ab7"}}]}