{"resourceType":"Bundle","id":"tests-2739e533-471c-4ded-b5e5-9e0715d6371d-bundle","type":"transaction","entry":[{"resource":{"resourceType":"Bundle","id":"61095b0998086b53805591a5","type":"transaction","entry":[{"fullUrl":"https://madie.cms.gov/Patient/2739e533-471c-4ded-b5e5-9e0715d6371d","resource":{"resourceType":"Patient","id":"2739e533-471c-4ded-b5e5-9e0715d6371d","meta":{"profile":["http://hl7.org/fhir/us/qicore/StructureDefinition/qicore-patient"]},"text":{"status":"generated","div":"<div xmlns=\"http://www.w3.org/1999/xhtml\"><div class=\"hapiHeaderText\">Age@18 <b>DENOMPASS </b></div><table class=\"hapiPropertyTable\"><tbody><tr><td>Identifier</td><td>67f3e33acf17bcb386e754d726ed064ccd48ba21ff0ffb2eb678740a684398be</td></tr><tr><td>Date of birth</td><td><span>01 January 1994</span></td></tr></tbody></table></div>"},"extension":[{"url":"http://hl7.org/fhir/us/core/StructureDefinition/us-core-race","extension":[{"url":"ombCategory","valueCoding":{"system":"urn:oid:2.16.840.1.113883.6.238","code":"1002-5","display":"American Indian or Alaska Native","userSelected":true}},{"url":"text","valueString":"American Indian or Alaska Native"}]},{"url":"http://hl7.org/fhir/us/core/StructureDefinition/us-core-ethnicity","extension":[{"url":"ombCategory","valueCoding":{"system":"urn:oid:2.16.840.1.113883.6.238","code":"2135-2","display":"Hispanic or Latino","userSelected":true}},{"url":"text","valueString":"Hispanic or Latino"}]},{"url":"http://hl7.org/fhir/us/core/StructureDefinition/us-core-sex","valueCode":"248153007"}],"identifier":[{"type":{"coding":[{"system":"http://terminology.hl7.org/CodeSystem/v2-0203","code":"MR"}]},"system":"https://bonnie-fhir.healthit.gov/","value":"61095b0998086b53805591a5"}],"active":true,"name":[{"use":"usual","family":"DENEXPASS","given":["DENEXPassAmblyopiaOverlapsCatSurg"]}],"gender":"male","birthDate":"1996-01-01"},"request":{"method":"PUT","url":"Patient/2739e533-471c-4ded-b5e5-9e0715d6371d"}},{"fullUrl":"https://madie.cms.gov/Observation/613a06d7-58e8-40ab-88aa-aa9bae596316","resource":{"resourceType":"Observation","id":"613a06d7-58e8-40ab-88aa-aa9bae596316","meta":{"profile":["http://hl7.org/fhir/us/qicore/StructureDefinition/qicore-observation-clinical-result"]},"status":"final","category":[{"coding":[{"system":"http://terminology.hl7.org/CodeSystem/observation-category","code":"exam","display":"exam"}]}],"code":{"coding":[{"system":"http://snomed.info/sct","code":"419775003"}]},"subject":{"reference":"Patient/2739e533-471c-4ded-b5e5-9e0715d6371d"},"effectivePeriod":{"start":"2026-03-13T09:00:00+00:00","end":"2026-03-13T09:30:00+00:00"}},"request":{"method":"PUT","url":"Observation/613a06d7-58e8-40ab-88aa-aa9bae596316"}},{"fullUrl":"https://madie.cms.gov/Procedure/91c4ea9d-50c7-4e64-be58-437f6f00ec49","resource":{"resourceType":"Procedure","id":"91c4ea9d-50c7-4e64-be58-437f6f00ec49","meta":{"profile":["http://hl7.org/fhir/us/qicore/StructureDefinition/qicore-procedure"]},"extension":[{"url":"http://hl7.org/fhir/us/qicore/StructureDefinition/qicore-recorded","valueDateTime":"2026-03-05T09:35:00-04:00"}],"status":"completed","code":{"coding":[{"system":"http://snomed.info/sct","code":"84149000"}]},"subject":{"reference":"Patient/2739e533-471c-4ded-b5e5-9e0715d6371d"},"performedPeriod":{"start":"2026-03-05T09:20:00-04:00","end":"2026-04-05T10:30:00-04:00"}},"request":{"method":"PUT","url":"Procedure/91c4ea9d-50c7-4e64-be58-437f6f00ec49"}},{"fullUrl":"https://madie.cms.gov/Condition/490431f8-1604-452c-a3a3-f0d2b8354a4c","resource":{"resourceType":"Condition","id":"490431f8-1604-452c-a3a3-f0d2b8354a4c","meta":{"profile":["http://hl7.org/fhir/us/qicore/StructureDefinition/qicore-condition-encounter-diagnosis"]},"clinicalStatus":{"coding":[{"system":"http://terminology.hl7.org/CodeSystem/condition-clinical","code":"active","display":"active","userSelected":true}]},"category":[{"coding":[{"system":"http://terminology.hl7.org/CodeSystem/condition-clinical","code":"active","display":"active","userSelected":true}]}],"code":{"coding":[{"system":"http://hl7.org/fhir/sid/icd-10-cm","code":"H53.013","userSelected":true},{"system":"http://snomed.info/sct","code":"965003","userSelected":true}]},"subject":{"reference":"Patient/2739e533-471c-4ded-b5e5-9e0715d6371d"},"onsetDateTime":"2024-11-01T08:00:00.000+00:00"},"request":{"method":"PUT","url":"Condition/490431f8-1604-452c-a3a3-f0d2b8354a4c"}},{"fullUrl":"https://madie.cms.gov/Coverage/14d6a366-410c-4e63-86b4-362d5eaaf8d1","resource":{"resourceType":"Coverage","id":"14d6a366-410c-4e63-86b4-362d5eaaf8d1","meta":{"profile":["http://hl7.org/fhir/us/qicore/StructureDefinition/qicore-coverage"]},"status":"active","beneficiary":{"reference":"Patient/2739e533-471c-4ded-b5e5-9e0715d6371d"},"payor":[{"reference":"Organization/964e3a06-0c9d-4d5e-ae6a-03cf2a90ca07"}]},"request":{"method":"PUT","url":"Coverage/14d6a366-410c-4e63-86b4-362d5eaaf8d1"}},{"fullUrl":"https://madie.cms.gov/Organization/964e3a06-0c9d-4d5e-ae6a-03cf2a90ca07","resource":{"resourceType":"Organization","id":"964e3a06-0c9d-4d5e-ae6a-03cf2a90ca07","meta":{"profile":["http://hl7.org/fhir/us/qicore/StructureDefinition/qicore-organization"]},"identifier":[{"use":"temp","system":"urn:oid:2.16.840.1.113883.4.4","value":"21-3259825"}],"active":true,"type":[{"coding":[{"system":"http://terminology.hl7.org/CodeSystem/organization-type","code":"pay","display":"Payer"}]}],"name":"Blue Cross Blue Shield of Texas","telecom":[{"system":"phone","value":"(+1) 972-766-6900"}],"address":[{"use":"billing","type":"postal","line":["P.O. Box 660044"],"city":"Dallas","state":"TX","postalCode":"75266-0044","country":"USA"}]},"request":{"method":"PUT","url":"Organization/964e3a06-0c9d-4d5e-ae6a-03cf2a90ca07"}},{"fullUrl":"https://madie.cms.gov/Practitioner/be90a5c9-f6ee-459a-aafc-4de5f64b3411","resource":{"resourceType":"Practitioner","id":"be90a5c9-f6ee-459a-aafc-4de5f64b3411","meta":{"profile":["http://hl7.org/fhir/us/qicore/StructureDefinition/qicore-practitioner"]},"identifier":[{"system":"http://hl7.org/fhir/sid/us-npi","value":"123456"}],"name":[{"family":"Evil","prefix":["Dr"]}]},"request":{"method":"PUT","url":"Practitioner/be90a5c9-f6ee-459a-aafc-4de5f64b3411"}},{"fullUrl":"https://madie.cms.gov/MeasureReport/ee99ac96-83a3-4c15-ad05-ccebb73087e2","resource":{"resourceType":"MeasureReport","id":"ee99ac96-83a3-4c15-ad05-ccebb73087e2","meta":{"profile":["http://hl7.org/fhir/us/cqfmeasures/StructureDefinition/test-case-cqfm"]},"contained":[{"resourceType":"Parameters","id":"4298f6b4-b567-4b9f-836b-bdb8ff46253d-parameters","parameter":[{"name":"subject","valueString":"2739e533-471c-4ded-b5e5-9e0715d6371d"}]}],"extension":[{"url":"http://hl7.org/fhir/StructureDefinition/cqf-inputParameters","valueReference":{"reference":"#4298f6b4-b567-4b9f-836b-bdb8ff46253d-parameters"}},{"url":"http://hl7.org/fhir/us/cqfmeasures/StructureDefinition/cqfm-testCaseDescription","valueMarkdown":"Patient with amblyopia overlapping cataract surgery."}],"modifierExtension":[{"url":"http://hl7.org/fhir/us/cqfmeasures/StructureDefinition/cqfm-isTestCase","valueBoolean":true}],"status":"complete","type":"individual","measure":"https://madie.cms.gov/Measure/CMS133FHIRCataracts2040BCVAwithin90Days","period":{"start":"2026-01-01","end":"2026-12-31"},"group":[{"id":"Group_1","population":[{"id":"InitialPopulation_1","code":{"coding":[{"system":"http://terminology.hl7.org/CodeSystem/measure-population","code":"initial-population","display":"Initial Population"}]},"count":1},{"id":"Denominator_1","code":{"coding":[{"system":"http://terminology.hl7.org/CodeSystem/measure-population","code":"denominator","display":"Denominator"}]},"count":1},{"id":"DenominatorExclusion_1","code":{"coding":[{"system":"http://terminology.hl7.org/CodeSystem/measure-population","code":"denominator-exclusion","display":"Denominator Exclusion"}]},"count":1},{"id":"Numerator_1","code":{"coding":[{"system":"http://terminology.hl7.org/CodeSystem/measure-population","code":"numerator","display":"Numerator"}]},"count":0}],"measureScore":{"value":0.0}}],"evaluatedResource":[{"reference":"Patient/2739e533-471c-4ded-b5e5-9e0715d6371d"},{"reference":"Observation/613a06d7-58e8-40ab-88aa-aa9bae596316"},{"reference":"Procedure/91c4ea9d-50c7-4e64-be58-437f6f00ec49"},{"reference":"Condition/490431f8-1604-452c-a3a3-f0d2b8354a4c"},{"reference":"Coverage/14d6a366-410c-4e63-86b4-362d5eaaf8d1"},{"reference":"Organization/964e3a06-0c9d-4d5e-ae6a-03cf2a90ca07"},{"reference":"Practitioner/be90a5c9-f6ee-459a-aafc-4de5f64b3411"}]},"request":{"method":"PUT","url":"MeasureReport/ee99ac96-83a3-4c15-ad05-ccebb73087e2"}}]},"request":{"method":"PUT","url":"Bundle/61095b0998086b53805591a5"}},{"resource":{"resourceType":"MeasureReport","id":"ee99ac96-83a3-4c15-ad05-ccebb73087e2","meta":{"profile":["http://hl7.org/fhir/us/cqfmeasures/StructureDefinition/test-case-cqfm"]},"contained":[{"resourceType":"Parameters","id":"4298f6b4-b567-4b9f-836b-bdb8ff46253d-parameters","parameter":[{"name":"subject","valueString":"2739e533-471c-4ded-b5e5-9e0715d6371d"}]}],"extension":[{"url":"http://hl7.org/fhir/StructureDefinition/cqf-inputParameters","valueReference":{"reference":"#4298f6b4-b567-4b9f-836b-bdb8ff46253d-parameters"}},{"url":"http://hl7.org/fhir/us/cqfmeasures/StructureDefinition/cqfm-testCaseDescription","valueMarkdown":"Patient with amblyopia overlapping cataract surgery."}],"modifierExtension":[{"url":"http://hl7.org/fhir/us/cqfmeasures/StructureDefinition/cqfm-isTestCase","valueBoolean":true}],"status":"complete","type":"individual","measure":"https://madie.cms.gov/Measure/CMS133FHIRCataracts2040BCVAwithin90Days","period":{"start":"2026-01-01","end":"2026-12-31"},"group":[{"id":"Group_1","population":[{"id":"InitialPopulation_1","code":{"coding":[{"system":"http://terminology.hl7.org/CodeSystem/measure-population","code":"initial-population","display":"Initial Population"}]},"count":1},{"id":"Denominator_1","code":{"coding":[{"system":"http://terminology.hl7.org/CodeSystem/measure-population","code":"denominator","display":"Denominator"}]},"count":1},{"id":"DenominatorExclusion_1","code":{"coding":[{"system":"http://terminology.hl7.org/CodeSystem/measure-population","code":"denominator-exclusion","display":"Denominator Exclusion"}]},"count":1},{"id":"Numerator_1","code":{"coding":[{"system":"http://terminology.hl7.org/CodeSystem/measure-population","code":"numerator","display":"Numerator"}]},"count":0}],"measureScore":{"value":0.0}}],"evaluatedResource":[{"reference":"Patient/2739e533-471c-4ded-b5e5-9e0715d6371d"},{"reference":"Observation/613a06d7-58e8-40ab-88aa-aa9bae596316"},{"reference":"Procedure/91c4ea9d-50c7-4e64-be58-437f6f00ec49"},{"reference":"Condition/490431f8-1604-452c-a3a3-f0d2b8354a4c"},{"reference":"Coverage/14d6a366-410c-4e63-86b4-362d5eaaf8d1"},{"reference":"Organization/964e3a06-0c9d-4d5e-ae6a-03cf2a90ca07"},{"reference":"Practitioner/be90a5c9-f6ee-459a-aafc-4de5f64b3411"}]},"request":{"method":"PUT","url":"MeasureReport/ee99ac96-83a3-4c15-ad05-ccebb73087e2"}},{"resource":{"resourceType":"Practitioner","id":"be90a5c9-f6ee-459a-aafc-4de5f64b3411","meta":{"profile":["http://hl7.org/fhir/us/qicore/StructureDefinition/qicore-practitioner"]},"identifier":[{"system":"http://hl7.org/fhir/sid/us-npi","value":"123456"}],"name":[{"family":"Evil","prefix":["Dr"]}]},"request":{"method":"PUT","url":"Practitioner/be90a5c9-f6ee-459a-aafc-4de5f64b3411"}},{"resource":{"resourceType":"Patient","id":"2739e533-471c-4ded-b5e5-9e0715d6371d","meta":{"profile":["http://hl7.org/fhir/us/qicore/StructureDefinition/qicore-patient"]},"text":{"status":"generated","div":"<div xmlns=\"http://www.w3.org/1999/xhtml\"><div class=\"hapiHeaderText\">Age@18 <b>DENOMPASS </b></div><table class=\"hapiPropertyTable\"><tbody><tr><td>Identifier</td><td>67f3e33acf17bcb386e754d726ed064ccd48ba21ff0ffb2eb678740a684398be</td></tr><tr><td>Date of birth</td><td><span>01 January 1994</span></td></tr></tbody></table></div>"},"extension":[{"url":"http://hl7.org/fhir/us/core/StructureDefinition/us-core-race","extension":[{"url":"ombCategory","valueCoding":{"system":"urn:oid:2.16.840.1.113883.6.238","code":"1002-5","display":"American Indian or Alaska Native","userSelected":true}},{"url":"text","valueString":"American Indian or Alaska Native"}]},{"url":"http://hl7.org/fhir/us/core/StructureDefinition/us-core-ethnicity","extension":[{"url":"ombCategory","valueCoding":{"system":"urn:oid:2.16.840.1.113883.6.238","code":"2135-2","display":"Hispanic or Latino","userSelected":true}},{"url":"text","valueString":"Hispanic or Latino"}]},{"url":"http://hl7.org/fhir/us/core/StructureDefinition/us-core-sex","valueCode":"248153007"}],"identifier":[{"type":{"coding":[{"system":"http://terminology.hl7.org/CodeSystem/v2-0203","code":"MR"}]},"system":"https://bonnie-fhir.healthit.gov/","value":"61095b0998086b53805591a5"}],"active":true,"name":[{"use":"usual","family":"DENEXPASS","given":["DENEXPassAmblyopiaOverlapsCatSurg"]}],"gender":"male","birthDate":"1996-01-01"},"request":{"method":"PUT","url":"Patient/2739e533-471c-4ded-b5e5-9e0715d6371d"}},{"resource":{"resourceType":"Procedure","id":"91c4ea9d-50c7-4e64-be58-437f6f00ec49","meta":{"profile":["http://hl7.org/fhir/us/qicore/StructureDefinition/qicore-procedure"]},"extension":[{"url":"http://hl7.org/fhir/us/qicore/StructureDefinition/qicore-recorded","valueDateTime":"2026-03-05T09:35:00-04:00"}],"status":"completed","code":{"coding":[{"system":"http://snomed.info/sct","code":"84149000"}]},"subject":{"reference":"Patient/2739e533-471c-4ded-b5e5-9e0715d6371d"},"performedPeriod":{"start":"2026-03-05T09:20:00-04:00","end":"2026-04-05T10:30:00-04:00"}},"request":{"method":"PUT","url":"Procedure/91c4ea9d-50c7-4e64-be58-437f6f00ec49"}},{"resource":{"resourceType":"Condition","id":"490431f8-1604-452c-a3a3-f0d2b8354a4c","meta":{"profile":["http://hl7.org/fhir/us/qicore/StructureDefinition/qicore-condition-encounter-diagnosis"]},"clinicalStatus":{"coding":[{"system":"http://terminology.hl7.org/CodeSystem/condition-clinical","code":"active","display":"active","userSelected":true}]},"category":[{"coding":[{"system":"http://terminology.hl7.org/CodeSystem/condition-clinical","code":"active","display":"active","userSelected":true}]}],"code":{"coding":[{"system":"http://hl7.org/fhir/sid/icd-10-cm","code":"H53.013","userSelected":true},{"system":"http://snomed.info/sct","code":"965003","userSelected":true}]},"subject":{"reference":"Patient/2739e533-471c-4ded-b5e5-9e0715d6371d"},"onsetDateTime":"2024-11-01T08:00:00.000+00:00"},"request":{"method":"PUT","url":"Condition/490431f8-1604-452c-a3a3-f0d2b8354a4c"}},{"resource":{"resourceType":"Coverage","id":"14d6a366-410c-4e63-86b4-362d5eaaf8d1","meta":{"profile":["http://hl7.org/fhir/us/qicore/StructureDefinition/qicore-coverage"]},"status":"active","beneficiary":{"reference":"Patient/2739e533-471c-4ded-b5e5-9e0715d6371d"},"payor":[{"reference":"Organization/964e3a06-0c9d-4d5e-ae6a-03cf2a90ca07"}]},"request":{"method":"PUT","url":"Coverage/14d6a366-410c-4e63-86b4-362d5eaaf8d1"}},{"resource":{"resourceType":"Organization","id":"964e3a06-0c9d-4d5e-ae6a-03cf2a90ca07","meta":{"profile":["http://hl7.org/fhir/us/qicore/StructureDefinition/qicore-organization"]},"identifier":[{"use":"temp","system":"urn:oid:2.16.840.1.113883.4.4","value":"21-3259825"}],"active":true,"type":[{"coding":[{"system":"http://terminology.hl7.org/CodeSystem/organization-type","code":"pay","display":"Payer"}]}],"name":"Blue Cross Blue Shield of Texas","telecom":[{"system":"phone","value":"(+1) 972-766-6900"}],"address":[{"use":"billing","type":"postal","line":["P.O. Box 660044"],"city":"Dallas","state":"TX","postalCode":"75266-0044","country":"USA"}]},"request":{"method":"PUT","url":"Organization/964e3a06-0c9d-4d5e-ae6a-03cf2a90ca07"}},{"resource":{"resourceType":"Observation","id":"613a06d7-58e8-40ab-88aa-aa9bae596316","meta":{"profile":["http://hl7.org/fhir/us/qicore/StructureDefinition/qicore-observation-clinical-result"]},"status":"final","category":[{"coding":[{"system":"http://terminology.hl7.org/CodeSystem/observation-category","code":"exam","display":"exam"}]}],"code":{"coding":[{"system":"http://snomed.info/sct","code":"419775003"}]},"subject":{"reference":"Patient/2739e533-471c-4ded-b5e5-9e0715d6371d"},"effectivePeriod":{"start":"2026-03-13T09:00:00+00:00","end":"2026-03-13T09:30:00+00:00"}},"request":{"method":"PUT","url":"Observation/613a06d7-58e8-40ab-88aa-aa9bae596316"}}]}