{
  "resourceType": "Bundle",
  "id": "60f82c2e98086b570510e263",
  "type": "transaction",
  "entry": [ {
    "fullUrl": "https://madie.cms.gov/Patient/54381296-da32-4474-85b7-209d99c52e7e",
    "resource": {
      "resourceType": "Patient",
      "id": "54381296-da32-4474-85b7-209d99c52e7e",
      "meta": {
        "profile": [ "http://hl7.org/fhir/us/qicore/StructureDefinition/qicore-patient" ]
      },
      "text": {
        "status": "generated",
        "div": "<div xmlns=\"http://www.w3.org/1999/xhtml\"><div class=\"hapiHeaderText\">MedTPAStart_After_EncIPEnd <b>DENEXFAIL </b></div><table class=\"hapiPropertyTable\"><tbody><tr><td>Identifier</td><td>4a2b2274b0d09f11067c460fe3a5f7ec</td></tr><tr><td>Date of birth</td><td><span>26 September 1975</span></td></tr></tbody></table></div>"
      },
      "extension": [ {
        "url": "http://hl7.org/fhir/us/core/StructureDefinition/us-core-race",
        "extension": [ {
          "url": "ombCategory",
          "valueCoding": {
            "system": "urn:oid:2.16.840.1.113883.6.238",
            "code": "2054-5",
            "display": "Black or African American",
            "userSelected": true
          }
        }, {
          "url": "text",
          "valueString": "Black or African American"
        } ]
      }, {
        "url": "http://hl7.org/fhir/us/core/StructureDefinition/us-core-ethnicity",
        "extension": [ {
          "url": "ombCategory",
          "valueCoding": {
            "system": "urn:oid:2.16.840.1.113883.6.238",
            "code": "2186-5",
            "display": "Not Hispanic or Latino",
            "userSelected": true
          }
        }, {
          "url": "text",
          "valueString": "Not Hispanic or Latino"
        } ]
      } ],
      "identifier": [ {
        "type": {
          "coding": [ {
            "system": "http://terminology.hl7.org/CodeSystem/v2-0203",
            "code": "MR"
          } ]
        },
        "system": "https://bonnie-fhir.healthit.gov/",
        "value": "60f82c2e98086b570510e263"
      } ],
      "active": true,
      "name": [ {
        "use": "usual",
        "family": "DENEXFail",
        "given": [ "MedTPAStartAfterEncIPEnd" ]
      } ],
      "gender": "female",
      "birthDate": "1976-09-26"
    },
    "request": {
      "method": "PUT",
      "url": "Patient/54381296-da32-4474-85b7-209d99c52e7e"
    }
  }, {
    "fullUrl": "https://madie.cms.gov/Encounter/d61d0abf-2344-40db-8cea-8bcf5a1883df",
    "resource": {
      "resourceType": "Encounter",
      "id": "d61d0abf-2344-40db-8cea-8bcf5a1883df",
      "meta": {
        "profile": [ "http://hl7.org/fhir/us/qicore/StructureDefinition/qicore-encounter" ]
      },
      "status": "finished",
      "class": {
        "system": "http://terminology.hl7.org/CodeSystem/v3-ActCode",
        "code": "IMP",
        "display": "inpatient encounter",
        "userSelected": true
      },
      "type": [ {
        "coding": [ {
          "system": "http://snomed.info/sct",
          "code": "32485007"
        } ]
      } ],
      "subject": {
        "reference": "Patient/54381296-da32-4474-85b7-209d99c52e7e"
      },
      "period": {
        "start": "2026-10-10T09:00:00Z",
        "end": "2026-10-12T11:15:00.000+00:00"
      },
      "length": {
        "value": 2,
        "unit": "days"
      },
      "reasonReference": [ {
        "reference": "Condition/01a90d1e-0213-4f4b-819a-18196ba01cbb"
      } ]
    },
    "request": {
      "method": "PUT",
      "url": "Encounter/d61d0abf-2344-40db-8cea-8bcf5a1883df"
    }
  }, {
    "fullUrl": "https://madie.cms.gov/MedicationAdministration/91a13734-b9bb-4c96-a246-516524283528",
    "resource": {
      "resourceType": "MedicationAdministration",
      "id": "91a13734-b9bb-4c96-a246-516524283528",
      "meta": {
        "profile": [ "http://hl7.org/fhir/us/qicore/StructureDefinition/qicore-medicationadministration" ]
      },
      "status": "completed",
      "medicationCodeableConcept": {
        "coding": [ {
          "system": "http://www.nlm.nih.gov/research/umls/rxnorm",
          "code": "1804799"
        } ]
      },
      "subject": {
        "reference": "Patient/54381296-da32-4474-85b7-209d99c52e7e"
      },
      "effectivePeriod": {
        "start": "2026-10-12T11:16:00Z"
      }
    },
    "request": {
      "method": "PUT",
      "url": "MedicationAdministration/91a13734-b9bb-4c96-a246-516524283528"
    }
  }, {
    "fullUrl": "https://madie.cms.gov/Coverage/aaede131-7a5e-4fac-9003-7ed316c188b4",
    "resource": {
      "resourceType": "Coverage",
      "id": "aaede131-7a5e-4fac-9003-7ed316c188b4",
      "status": "active",
      "beneficiary": {
        "reference": "Patient/54381296-da32-4474-85b7-209d99c52e7e"
      },
      "period": {
        "start": "1976-09-26T08:00:00Z"
      },
      "payor": [ {
        "reference": "Organization/ef9a9f87-2670-4d96-852d-47bebb31178a"
      } ]
    },
    "request": {
      "method": "PUT",
      "url": "Coverage/aaede131-7a5e-4fac-9003-7ed316c188b4"
    }
  }, {
    "fullUrl": "https://madie.cms.gov/Condition/01a90d1e-0213-4f4b-819a-18196ba01cbb",
    "resource": {
      "resourceType": "Condition",
      "id": "01a90d1e-0213-4f4b-819a-18196ba01cbb",
      "meta": {
        "profile": [ "http://hl7.org/fhir/us/qicore/StructureDefinition/qicore-condition-encounter-diagnosis" ]
      },
      "clinicalStatus": {
        "coding": [ {
          "system": "http://terminology.hl7.org/CodeSystem/condition-clinical",
          "code": "active"
        } ]
      },
      "verificationStatus": {
        "coding": [ {
          "system": "http://terminology.hl7.org/CodeSystem/condition-ver-status",
          "code": "confirmed"
        } ]
      },
      "category": [ {
        "coding": [ {
          "system": "http://terminology.hl7.org/CodeSystem/condition-category",
          "code": "encounter-diagnosis",
          "display": "Encounter Diagnosis"
        } ]
      } ],
      "code": {
        "coding": [ {
          "system": "http://snomed.info/sct",
          "version": "2020-09",
          "code": "111297002",
          "display": "Nonparalytic stroke (disorder)",
          "userSelected": true
        } ]
      },
      "subject": {
        "reference": "Patient/54381296-da32-4474-85b7-209d99c52e7e"
      },
      "encounter": {
        "reference": "Encounter/d61d0abf-2344-40db-8cea-8bcf5a1883df"
      },
      "recordedDate": "2026-08-12T08:00:00Z"
    },
    "request": {
      "method": "PUT",
      "url": "Condition/01a90d1e-0213-4f4b-819a-18196ba01cbb"
    }
  }, {
    "fullUrl": "https://madie.cms.gov/claim/5ca62962b8484628b8de1ec5",
    "resource": {
      "resourceType": "Claim",
      "id": "5ca62962b8484628b8de1ec5",
      "meta": {
        "profile": [ "http://hl7.org/fhir/us/qicore/StructureDefinition/qicore-claim" ]
      },
      "status": "active",
      "type": {
        "coding": [ {
          "system": "http://terminology.hl7.org/CodeSystem/claim-type",
          "code": "institutional"
        } ]
      },
      "use": "claim",
      "patient": {
        "reference": "Patient/5450abfd-a667-4eb9-9b59-e85feed4865c"
      },
      "created": "2026-12-01",
      "provider": {
        "reference": "Practitioner/practitioner-123456"
      },
      "priority": {
        "coding": [ {
          "system": "http://terminology.hl7.org/CodeSystem/processpriority",
          "code": "normal"
        } ]
      },
      "diagnosis": [ {
        "sequence": 1,
        "diagnosisCodeableConcept": {
          "coding": [ {
            "system": "http://hl7.org/fhir/sid/icd-10-cm",
            "code": "I63.00"
          } ]
        },
        "type": [ {
          "coding": [ {
            "system": "http://terminology.hl7.org/CodeSystem/ex-diagnosistype",
            "code": "principal"
          } ]
        } ]
      } ],
      "insurance": [ {
        "sequence": 1,
        "focal": true,
        "coverage": {
          "reference": "Coverage/5fa041661c76ba66d9959367"
        }
      } ],
      "item": [ {
        "sequence": 1,
        "diagnosisSequence": [ 1 ],
        "productOrService": {
          "coding": [ {
            "system": "http://terminology.hl7.org/CodeSystem/ex-USCLS",
            "code": "99555"
          } ]
        },
        "encounter": [ {
          "reference": "Encounter/d61d0abf-2344-40db-8cea-8bcf5a1883df"
        } ]
      } ]
    },
    "request": {
      "method": "PUT",
      "url": "Claim/5ca62962b8484628b8de1ec5"
    }
  }, {
    "fullUrl": "https://madie.cms.gov/Organization/ef9a9f87-2670-4d96-852d-47bebb31178a",
    "resource": {
      "resourceType": "Organization",
      "id": "ef9a9f87-2670-4d96-852d-47bebb31178a",
      "meta": {
        "profile": [ "http://hl7.org/fhir/us/qicore/StructureDefinition/qicore-organization" ]
      },
      "identifier": [ {
        "use": "temp",
        "system": "urn:oid:2.16.840.1.113883.4.4",
        "value": "21-3259825"
      } ],
      "active": true,
      "type": [ {
        "coding": [ {
          "system": "http://terminology.hl7.org/CodeSystem/organization-type",
          "code": "pay",
          "display": "Payer"
        } ]
      } ],
      "name": "Blue Cross Blue Shield of Texas",
      "telecom": [ {
        "system": "phone",
        "value": "(+1) 972-766-6900"
      } ],
      "address": [ {
        "use": "billing",
        "type": "postal",
        "line": [ "P.O. Box 660044" ],
        "city": "Dallas",
        "state": "TX",
        "postalCode": "75266-0044",
        "country": "USA"
      } ]
    },
    "request": {
      "method": "PUT",
      "url": "Organization/ef9a9f87-2670-4d96-852d-47bebb31178a"
    }
  }, {
    "fullUrl": "https://madie.cms.gov/MeasureReport/35e074f3-7b0a-4f6e-a300-75bd1cb5760d",
    "resource": {
      "resourceType": "MeasureReport",
      "id": "35e074f3-7b0a-4f6e-a300-75bd1cb5760d",
      "meta": {
        "profile": [ "http://hl7.org/fhir/us/cqfmeasures/StructureDefinition/test-case-cqfm" ]
      },
      "contained": [ {
        "resourceType": "Parameters",
        "id": "6c3ca524-5578-44b6-bf12-90d9896786f4-parameters",
        "parameter": [ {
          "name": "subject",
          "valueString": "54381296-da32-4474-85b7-209d99c52e7e"
        } ]
      } ],
      "extension": [ {
        "url": "http://hl7.org/fhir/StructureDefinition/cqf-inputParameters",
        "valueReference": {
          "reference": "#6c3ca524-5578-44b6-bf12-90d9896786f4-parameters"
        }
      }, {
        "url": "http://hl7.org/fhir/us/cqfmeasures/StructureDefinition/cqfm-testCaseDescription",
        "valueMarkdown": "Patient receives TPA after IP encounter\n"
      } ],
      "modifierExtension": [ {
        "url": "http://hl7.org/fhir/us/cqfmeasures/StructureDefinition/cqfm-isTestCase",
        "valueBoolean": true
      } ],
      "status": "complete",
      "type": "individual",
      "measure": "https://madie.cms.gov/Measure/CMS72FHIRSTKAntithromboticDay2",
      "period": {
        "start": "2026-01-01",
        "end": "2026-12-31"
      },
      "group": [ {
        "id": "Group_1",
        "population": [ {
          "id": "InitialPopulation_1",
          "code": {
            "coding": [ {
              "system": "http://terminology.hl7.org/CodeSystem/measure-population",
              "code": "initial-population",
              "display": "Initial Population"
            } ]
          },
          "count": 1
        }, {
          "id": "Denominator_1",
          "code": {
            "coding": [ {
              "system": "http://terminology.hl7.org/CodeSystem/measure-population",
              "code": "denominator",
              "display": "Denominator"
            } ]
          },
          "count": 1
        }, {
          "id": "DenominatorExclusion_1",
          "code": {
            "coding": [ {
              "system": "http://terminology.hl7.org/CodeSystem/measure-population",
              "code": "denominator-exclusion",
              "display": "Denominator Exclusion"
            } ]
          },
          "count": 0
        }, {
          "id": "Numerator_1",
          "code": {
            "coding": [ {
              "system": "http://terminology.hl7.org/CodeSystem/measure-population",
              "code": "numerator",
              "display": "Numerator"
            } ]
          },
          "count": 0
        }, {
          "id": "DenominatorException_1",
          "code": {
            "coding": [ {
              "system": "http://terminology.hl7.org/CodeSystem/measure-population",
              "code": "denominator-exception",
              "display": "Denominator Exception"
            } ]
          },
          "count": 0
        } ],
        "measureScore": {
          "value": 0.0
        }
      } ],
      "evaluatedResource": [ {
        "reference": "Patient/54381296-da32-4474-85b7-209d99c52e7e"
      }, {
        "reference": "Encounter/d61d0abf-2344-40db-8cea-8bcf5a1883df"
      }, {
        "reference": "MedicationAdministration/91a13734-b9bb-4c96-a246-516524283528"
      }, {
        "reference": "Coverage/aaede131-7a5e-4fac-9003-7ed316c188b4"
      }, {
        "reference": "Condition/01a90d1e-0213-4f4b-819a-18196ba01cbb"
      }, {
        "reference": "Claim/5ca62962b8484628b8de1ec5"
      }, {
        "reference": "Organization/ef9a9f87-2670-4d96-852d-47bebb31178a"
      } ]
    },
    "request": {
      "method": "PUT",
      "url": "MeasureReport/35e074f3-7b0a-4f6e-a300-75bd1cb5760d"
    }
  } ]
}