{
  "resourceType": "Bundle",
  "id": "633b3f9f0968f80122503cdb",
  "type": "transaction",
  "entry": [ {
    "fullUrl": "https://madie.cms.gov/Patient/d96cb018-5b4a-46d7-808f-a4ff0e3ecca6",
    "resource": {
      "resourceType": "Patient",
      "id": "d96cb018-5b4a-46d7-808f-a4ff0e3ecca6",
      "meta": {
        "profile": [ "http://hl7.org/fhir/us/qicore/StructureDefinition/qicore-patient" ]
      },
      "text": {
        "status": "generated",
        "div": "<div xmlns=\"http://www.w3.org/1999/xhtml\"><div class=\"hapiHeaderText\">SMMProcedureDayOfEDVist6HRB4Enc<b>NUMERFail </b></div><table class=\"hapiPropertyTable\"><tbody><tr><td>Date of birth</td><td><span>01 February 2004</span></td></tr></tbody></table></div>"
      },
      "extension": [ {
        "url": "http://hl7.org/fhir/us/core/StructureDefinition/us-core-race",
        "extension": [ {
          "url": "ombCategory",
          "valueCoding": {
            "system": "urn:oid:2.16.840.1.113883.6.238",
            "code": "1002-5",
            "display": "American Indian or Alaska Native",
            "userSelected": true
          }
        }, {
          "url": "text",
          "valueString": "American Indian or Alaska Native"
        } ]
      }, {
        "url": "http://hl7.org/fhir/us/core/StructureDefinition/us-core-ethnicity",
        "extension": [ {
          "url": "ombCategory",
          "valueCoding": {
            "system": "urn:oid:2.16.840.1.113883.6.238",
            "code": "2135-2",
            "display": "Hispanic or Latino",
            "userSelected": true
          }
        }, {
          "url": "text",
          "valueString": "Hispanic or Latino"
        } ]
      } ],
      "identifier": [ {
        "type": {
          "coding": [ {
            "system": "http://terminology.hl7.org/CodeSystem/v2-0203",
            "code": "MR"
          } ]
        },
        "system": "https://bonnie-fhir.healthit.gov/",
        "value": "633b3f9f0968f80122503cdb"
      } ],
      "active": true,
      "name": [ {
        "use": "usual",
        "family": "NUMERFailFail",
        "given": [ "SMMProcedureDayOfEDVist6HRB4Enc" ]
      } ],
      "gender": "female",
      "birthDate": "2005-02-01"
    },
    "request": {
      "method": "PUT",
      "url": "Patient/d96cb018-5b4a-46d7-808f-a4ff0e3ecca6"
    }
  }, {
    "fullUrl": "https://madie.cms.gov/Observation/51a11a5b-8f1b-4a10-b28c-ac1c926af523",
    "resource": {
      "resourceType": "Observation",
      "id": "51a11a5b-8f1b-4a10-b28c-ac1c926af523",
      "meta": {
        "profile": [ "http://hl7.org/fhir/us/qicore/StructureDefinition/qicore-simple-observation" ]
      },
      "status": "final",
      "category": [ {
        "coding": [ {
          "system": "http://terminology.hl7.org/CodeSystem/observation-category",
          "code": "exam",
          "display": "exam",
          "userSelected": true
        } ]
      } ],
      "code": {
        "coding": [ {
          "system": "http://loinc.org",
          "code": "93857-1"
        } ]
      },
      "subject": {
        "reference": "Patient/d96cb018-5b4a-46d7-808f-a4ff0e3ecca6"
      },
      "effectiveDateTime": "2026-02-01T08:00:00Z",
      "performer": [ {
        "reference": "Organization/example1",
        "display": "Hendricks Country Hospital"
      } ],
      "valueDateTime": "2026-02-01T08:00:00Z"
    },
    "request": {
      "method": "PUT",
      "url": "Observation/51a11a5b-8f1b-4a10-b28c-ac1c926af523"
    }
  }, {
    "fullUrl": "https://madie.cms.gov/Observation/ebd2674c-03a5-4dbf-a5c0-9f5dd0583bb7",
    "resource": {
      "resourceType": "Observation",
      "id": "ebd2674c-03a5-4dbf-a5c0-9f5dd0583bb7",
      "meta": {
        "profile": [ "http://hl7.org/fhir/us/qicore/StructureDefinition/qicore-simple-observation" ]
      },
      "status": "final",
      "category": [ {
        "coding": [ {
          "system": "http://terminology.hl7.org/CodeSystem/observation-category",
          "code": "exam",
          "display": "exam",
          "userSelected": true
        } ]
      } ],
      "code": {
        "coding": [ {
          "system": "http://loinc.org",
          "code": "11884-4"
        } ]
      },
      "subject": {
        "reference": "Patient/d96cb018-5b4a-46d7-808f-a4ff0e3ecca6"
      },
      "effectiveDateTime": "2026-02-01T08:00:00Z",
      "performer": [ {
        "reference": "Organization/example1",
        "display": "Hendricks Country Hospital"
      } ],
      "valueQuantity": {
        "value": 21,
        "system": "http://unitsofmeasure.org",
        "code": "wk"
      }
    },
    "request": {
      "method": "PUT",
      "url": "Observation/ebd2674c-03a5-4dbf-a5c0-9f5dd0583bb7"
    }
  }, {
    "fullUrl": "https://madie.cms.gov/Encounter/8e660ecc-8c05-46bb-99c5-20332158e9ed",
    "resource": {
      "resourceType": "Encounter",
      "id": "8e660ecc-8c05-46bb-99c5-20332158e9ed",
      "meta": {
        "profile": [ "http://hl7.org/fhir/us/qicore/StructureDefinition/qicore-encounter" ]
      },
      "status": "finished",
      "class": {
        "system": "http://terminology.hl7.org/CodeSystem/v3-ActCode",
        "code": "IMP",
        "display": "inpatient encounter"
      },
      "type": [ {
        "coding": [ {
          "system": "http://snomed.info/sct",
          "code": "183452005"
        } ]
      } ],
      "subject": {
        "reference": "Patient/d96cb018-5b4a-46d7-808f-a4ff0e3ecca6"
      },
      "period": {
        "start": "2026-02-01T08:00:00Z",
        "end": "2026-02-05T08:15:00Z"
      }
    },
    "request": {
      "method": "PUT",
      "url": "Encounter/8e660ecc-8c05-46bb-99c5-20332158e9ed"
    }
  }, {
    "fullUrl": "https://madie.cms.gov/Coverage/f97f7a86-1ff0-40a0-b41d-4a06ca2d93d7",
    "resource": {
      "resourceType": "Coverage",
      "id": "f97f7a86-1ff0-40a0-b41d-4a06ca2d93d7",
      "status": "active",
      "subscriberId": "523435",
      "beneficiary": {
        "reference": "Patient/d96cb018-5b4a-46d7-808f-a4ff0e3ecca6"
      },
      "relationship": {
        "coding": [ {
          "system": "http://terminology.hl7.org/CodeSystem/subscriber-relationship",
          "code": "self"
        } ]
      },
      "period": {
        "start": "2005-02-01T08:00:00Z"
      },
      "payor": [ {
        "reference": "Organization/e722252e-7eb4-48e9-962d-f43936e5a69d"
      } ]
    },
    "request": {
      "method": "PUT",
      "url": "Coverage/f97f7a86-1ff0-40a0-b41d-4a06ca2d93d7"
    }
  }, {
    "fullUrl": "https://madie.cms.gov/Procedure/d7937feb-2e00-40c7-85a3-878562904e48",
    "resource": {
      "resourceType": "Procedure",
      "id": "d7937feb-2e00-40c7-85a3-878562904e48",
      "meta": {
        "profile": [ "http://hl7.org/fhir/us/qicore/StructureDefinition/qicore-procedure" ]
      },
      "extension": [ {
        "url": "http://hl7.org/fhir/us/qicore/StructureDefinition/qicore-recorded",
        "valueDateTime": "2014-04-05T13:35:00Z"
      } ],
      "status": "completed",
      "code": {
        "coding": [ {
          "system": "http://snomed.info/sct",
          "code": "10745001"
        } ]
      },
      "subject": {
        "reference": "Patient/d96cb018-5b4a-46d7-808f-a4ff0e3ecca6"
      },
      "performedPeriod": {
        "start": "2026-02-01T08:00:00Z",
        "end": "2026-02-01T08:15:00Z"
      }
    },
    "request": {
      "method": "PUT",
      "url": "Procedure/d7937feb-2e00-40c7-85a3-878562904e48"
    }
  }, {
    "fullUrl": "https://madie.cms.gov/Encounter/8111d26d-8136-4e28-8d19-bd86ec075f7d",
    "resource": {
      "resourceType": "Encounter",
      "id": "8111d26d-8136-4e28-8d19-bd86ec075f7d",
      "meta": {
        "profile": [ "http://hl7.org/fhir/us/qicore/StructureDefinition/qicore-encounter" ]
      },
      "status": "finished",
      "class": {
        "system": "http://terminology.hl7.org/CodeSystem/v3-ActCode",
        "code": "IMP",
        "display": "inpatient encounter"
      },
      "type": [ {
        "coding": [ {
          "system": "http://snomed.info/sct",
          "code": "183452005"
        } ]
      } ],
      "subject": {
        "reference": "Patient/d96cb018-5b4a-46d7-808f-a4ff0e3ecca6"
      },
      "period": {
        "start": "2026-02-01T01:00:00Z",
        "end": "2026-02-01T03:15:00Z"
      },
      "diagnosis": [ {
        "extension": [ {
          "url": "http://hl7.org/fhir/us/qicore/StructureDefinition/qicore-encounter-diagnosisPresentOnAdmission",
          "valueCodeableConcept": {
            "coding": [ {
              "system": "https://www.cms.gov/Medicare/Medicare-Fee-for-Service-Payment/HospitalAcqCond/Coding",
              "code": "N"
            } ]
          }
        } ],
        "condition": {
          "reference": "Condition/severe-maternal-morbidity-diagnoses-adc2"
        }
      } ]
    },
    "request": {
      "method": "PUT",
      "url": "Encounter/8111d26d-8136-4e28-8d19-bd86ec075f7d"
    }
  }, {
    "fullUrl": "https://madie.cms.gov/Procedure/33de9ea3-465f-47e8-9b9f-a4689682fb25",
    "resource": {
      "resourceType": "Procedure",
      "id": "33de9ea3-465f-47e8-9b9f-a4689682fb25",
      "meta": {
        "profile": [ "http://hl7.org/fhir/us/qicore/StructureDefinition/qicore-procedure" ]
      },
      "extension": [ {
        "url": "http://hl7.org/fhir/us/qicore/StructureDefinition/qicore-recorded",
        "valueDateTime": "2026-02-06T00:00:00Z"
      } ],
      "status": "completed",
      "code": {
        "coding": [ {
          "system": "http://www.cms.gov/Medicare/Coding/ICD10",
          "code": "0B110F4",
          "display": "Bypass Trachea to Cutaneous with Tracheostomy Device, Open Approach"
        } ]
      },
      "subject": {
        "reference": "Patient/d96cb018-5b4a-46d7-808f-a4ff0e3ecca6"
      },
      "performedPeriod": {
        "start": "2026-02-01T02:00:00Z",
        "end": "2026-02-01T02:30:00Z"
      }
    },
    "request": {
      "method": "PUT",
      "url": "Procedure/33de9ea3-465f-47e8-9b9f-a4689682fb25"
    }
  }, {
    "fullUrl": "https://madie.cms.gov/Organization/e722252e-7eb4-48e9-962d-f43936e5a69d",
    "resource": {
      "resourceType": "Organization",
      "id": "e722252e-7eb4-48e9-962d-f43936e5a69d",
      "meta": {
        "profile": [ "http://hl7.org/fhir/us/qicore/StructureDefinition/qicore-organization" ]
      },
      "identifier": [ {
        "use": "temp",
        "system": "urn:oid:2.16.840.1.113883.4.4",
        "value": "21-3259825"
      } ],
      "active": true,
      "type": [ {
        "coding": [ {
          "system": "http://terminology.hl7.org/CodeSystem/organization-type",
          "code": "pay",
          "display": "Payer"
        } ]
      } ],
      "name": "Blue Cross Blue Shield of Texas",
      "telecom": [ {
        "system": "phone",
        "value": "(+1) 972-766-6900"
      } ],
      "address": [ {
        "use": "billing",
        "type": "postal",
        "line": [ "P.O. Box 660044" ],
        "city": "Dallas",
        "state": "TX",
        "postalCode": "75266-0044",
        "country": "USA"
      } ]
    },
    "request": {
      "method": "PUT",
      "url": "Organization/e722252e-7eb4-48e9-962d-f43936e5a69d"
    }
  }, {
    "fullUrl": "https://madie.cms.gov/Practitioner/b56bded7-afde-4cea-acef-2b181e56a682",
    "resource": {
      "resourceType": "Practitioner",
      "id": "b56bded7-afde-4cea-acef-2b181e56a682",
      "meta": {
        "profile": [ "http://hl7.org/fhir/us/qicore/StructureDefinition/qicore-practitioner" ]
      },
      "identifier": [ {
        "system": "http://hl7.org/fhir/sid/us-npi",
        "value": "9999999896"
      } ],
      "name": [ {
        "family": "Evil",
        "prefix": [ "Dr" ]
      } ]
    },
    "request": {
      "method": "PUT",
      "url": "Practitioner/b56bded7-afde-4cea-acef-2b181e56a682"
    }
  }, {
    "fullUrl": "https://madie.cms.gov/MeasureReport/dad57b2b-a1ea-4b2f-8767-6722b18752b8",
    "resource": {
      "resourceType": "MeasureReport",
      "id": "dad57b2b-a1ea-4b2f-8767-6722b18752b8",
      "meta": {
        "profile": [ "http://hl7.org/fhir/us/cqfmeasures/StructureDefinition/test-case-cqfm" ]
      },
      "contained": [ {
        "resourceType": "Parameters",
        "id": "b797c928-aa93-48cd-9b5a-4aa326d68823-parameters",
        "parameter": [ {
          "name": "subject",
          "valueString": "d96cb018-5b4a-46d7-808f-a4ff0e3ecca6"
        } ]
      } ],
      "extension": [ {
        "url": "http://hl7.org/fhir/StructureDefinition/cqf-inputParameters",
        "valueReference": {
          "reference": "#b797c928-aa93-48cd-9b5a-4aa326d68823-parameters"
        }
      }, {
        "url": "http://hl7.org/fhir/us/cqfmeasures/StructureDefinition/cqfm-testCaseDescription",
        "valueMarkdown": "SMM Procedure (Temp Trach) on day of ED visit 6 hours before delivery encounter begins"
      } ],
      "modifierExtension": [ {
        "url": "http://hl7.org/fhir/us/cqfmeasures/StructureDefinition/cqfm-isTestCase",
        "valueBoolean": true
      } ],
      "status": "complete",
      "type": "individual",
      "measure": "https://madie.cms.gov/Measure/CMS1028FHIRPCSevereOBComps",
      "period": {
        "start": "2026-01-01",
        "end": "2026-12-31"
      },
      "group": [ {
        "id": "Group_1",
        "population": [ {
          "id": "InitialPopulation_1",
          "code": {
            "coding": [ {
              "system": "http://terminology.hl7.org/CodeSystem/measure-population",
              "code": "initial-population",
              "display": "Initial Population"
            } ]
          },
          "count": 1
        }, {
          "id": "Denominator_1",
          "code": {
            "coding": [ {
              "system": "http://terminology.hl7.org/CodeSystem/measure-population",
              "code": "denominator",
              "display": "Denominator"
            } ]
          },
          "count": 1
        }, {
          "id": "Numerator_1",
          "code": {
            "coding": [ {
              "system": "http://terminology.hl7.org/CodeSystem/measure-population",
              "code": "numerator",
              "display": "Numerator"
            } ]
          },
          "count": 0
        }, {
          "id": "NumeratorExclusion_1",
          "code": {
            "coding": [ {
              "system": "http://terminology.hl7.org/CodeSystem/measure-population",
              "code": "numerator-exclusion",
              "display": "Numerator Exclusion"
            } ]
          },
          "count": 0
        } ],
        "measureScore": {
          "value": 0.0
        }
      }, {
        "id": "Group_2",
        "population": [ {
          "id": "InitialPopulation_2",
          "code": {
            "coding": [ {
              "system": "http://terminology.hl7.org/CodeSystem/measure-population",
              "code": "initial-population",
              "display": "Initial Population"
            } ]
          },
          "count": 1
        }, {
          "id": "Denominator_2",
          "code": {
            "coding": [ {
              "system": "http://terminology.hl7.org/CodeSystem/measure-population",
              "code": "denominator",
              "display": "Denominator"
            } ]
          },
          "count": 1
        }, {
          "id": "Numerator_2",
          "code": {
            "coding": [ {
              "system": "http://terminology.hl7.org/CodeSystem/measure-population",
              "code": "numerator",
              "display": "Numerator"
            } ]
          },
          "count": 0
        }, {
          "id": "NumeratorExclusion_2",
          "code": {
            "coding": [ {
              "system": "http://terminology.hl7.org/CodeSystem/measure-population",
              "code": "numerator-exclusion",
              "display": "Numerator Exclusion"
            } ]
          },
          "count": 0
        } ],
        "measureScore": {
          "value": 0.0
        }
      } ],
      "evaluatedResource": [ {
        "reference": "Patient/d96cb018-5b4a-46d7-808f-a4ff0e3ecca6"
      }, {
        "reference": "Observation/51a11a5b-8f1b-4a10-b28c-ac1c926af523"
      }, {
        "reference": "Observation/ebd2674c-03a5-4dbf-a5c0-9f5dd0583bb7"
      }, {
        "reference": "Encounter/8e660ecc-8c05-46bb-99c5-20332158e9ed"
      }, {
        "reference": "Coverage/f97f7a86-1ff0-40a0-b41d-4a06ca2d93d7"
      }, {
        "reference": "Procedure/d7937feb-2e00-40c7-85a3-878562904e48"
      }, {
        "reference": "Encounter/8111d26d-8136-4e28-8d19-bd86ec075f7d"
      }, {
        "reference": "Procedure/33de9ea3-465f-47e8-9b9f-a4689682fb25"
      }, {
        "reference": "Organization/e722252e-7eb4-48e9-962d-f43936e5a69d"
      }, {
        "reference": "Practitioner/b56bded7-afde-4cea-acef-2b181e56a682"
      } ]
    },
    "request": {
      "method": "PUT",
      "url": "MeasureReport/dad57b2b-a1ea-4b2f-8767-6722b18752b8"
    }
  } ]
}