{
  "resourceType": "Bundle",
  "id": "63f628d8d289cd498bb84238",
  "type": "transaction",
  "entry": [ {
    "fullUrl": "https://madie.cms.gov/Patient/9a9e1543-79a1-47a0-a3dd-5ac008bbea65",
    "resource": {
      "resourceType": "Patient",
      "id": "9a9e1543-79a1-47a0-a3dd-5ac008bbea65",
      "meta": {
        "profile": [ "http://hl7.org/fhir/us/qicore/StructureDefinition/qicore-patient" ]
      },
      "extension": [ {
        "url": "http://hl7.org/fhir/us/core/StructureDefinition/us-core-race",
        "extension": [ {
          "url": "ombCategory",
          "valueCoding": {
            "system": "urn:oid:2.16.840.1.113883.6.238",
            "code": "2028-9",
            "display": "Asian",
            "userSelected": true
          }
        }, {
          "url": "text",
          "valueString": "Asian"
        } ]
      }, {
        "url": "http://hl7.org/fhir/us/core/StructureDefinition/us-core-ethnicity",
        "extension": [ {
          "url": "ombCategory",
          "valueCoding": {
            "system": "urn:oid:2.16.840.1.113883.6.238",
            "code": "2135-2",
            "display": "Hispanic or Latino",
            "userSelected": true
          }
        }, {
          "url": "text",
          "valueString": "Hispanic or Latino"
        } ]
      } ],
      "identifier": [ {
        "type": {
          "coding": [ {
            "system": "http://terminology.hl7.org/CodeSystem/v2-0203",
            "code": "MR"
          } ]
        },
        "system": "https://bonnie-fhir.healthit.gov/",
        "value": "63f628d8d289cd498bb84238"
      } ],
      "name": [ {
        "family": "DENOMFail",
        "given": [ "MacularExambeforeEncounter" ]
      } ],
      "gender": "male",
      "birthDate": "1997-11-01"
    },
    "request": {
      "method": "PUT",
      "url": "Patient/9a9e1543-79a1-47a0-a3dd-5ac008bbea65"
    }
  }, {
    "fullUrl": "https://madie.cms.gov/Encounter/3dc71e76-9a77-47eb-8e89-f75c25bf8bcb",
    "resource": {
      "resourceType": "Encounter",
      "id": "3dc71e76-9a77-47eb-8e89-f75c25bf8bcb",
      "meta": {
        "profile": [ "http://hl7.org/fhir/us/qicore/StructureDefinition/qicore-encounter" ]
      },
      "status": "finished",
      "class": {
        "system": "http://terminology.hl7.org/CodeSystem/v3-ActCode",
        "code": "AMB",
        "display": "ambulatory",
        "userSelected": true
      },
      "type": [ {
        "coding": [ {
          "system": "http://snomed.info/sct",
          "version": "2021-09",
          "code": "18170008",
          "display": "Subsequent nursing facility visit (procedure)",
          "userSelected": true
        } ]
      } ],
      "subject": {
        "reference": "Patient/9a9e1543-79a1-47a0-a3dd-5ac008bbea65"
      },
      "period": {
        "start": "2026-01-01T08:00:00.000+00:00",
        "end": "2026-01-01T08:15:00.000+00:00"
      }
    },
    "request": {
      "method": "PUT",
      "url": "Encounter/3dc71e76-9a77-47eb-8e89-f75c25bf8bcb"
    }
  }, {
    "fullUrl": "https://madie.cms.gov/Condition/f4bd3d7b-da0d-4d45-beae-c69504370047",
    "resource": {
      "resourceType": "Condition",
      "id": "f4bd3d7b-da0d-4d45-beae-c69504370047",
      "meta": {
        "profile": [ "http://hl7.org/fhir/us/qicore/StructureDefinition/qicore-condition-problems-health-concerns" ]
      },
      "clinicalStatus": {
        "coding": [ {
          "system": "http://terminology.hl7.org/CodeSystem/condition-clinical",
          "code": "active",
          "display": "active",
          "userSelected": true
        } ]
      },
      "category": [ {
        "coding": [ {
          "system": "http://terminology.hl7.org/CodeSystem/condition-ver-status",
          "code": "confirmed",
          "display": "confirmed",
          "userSelected": true
        } ]
      } ],
      "code": {
        "coding": [ {
          "system": "http://snomed.info/sct",
          "version": "http://snomed.info/sct/731000124108/version/202303",
          "code": "193349004",
          "display": "Preproliferative retinopathy due to diabetes mellitus (disorder)",
          "userSelected": true
        } ]
      },
      "subject": {
        "reference": "Patient/9a9e1543-79a1-47a0-a3dd-5ac008bbea65"
      },
      "onsetDateTime": "2025-12-31T08:00:00.000+00:00"
    },
    "request": {
      "method": "PUT",
      "url": "Condition/f4bd3d7b-da0d-4d45-beae-c69504370047"
    }
  }, {
    "fullUrl": "https://madie.cms.gov/Observation/b8615255-cc1b-4ce2-b200-b47e816cbbc5",
    "resource": {
      "resourceType": "Observation",
      "id": "b8615255-cc1b-4ce2-b200-b47e816cbbc5",
      "meta": {
        "profile": [ "http://hl7.org/fhir/us/qicore/StructureDefinition/qicore-observation-clinical-result" ]
      },
      "status": "final",
      "category": [ {
        "coding": [ {
          "system": "http://terminology.hl7.org/CodeSystem/condition-ver-status",
          "code": "confirmed",
          "display": "confirmed",
          "userSelected": true
        } ]
      } ],
      "code": {
        "coding": [ {
          "system": "http://loinc.org",
          "version": "2.73",
          "code": "32451-7",
          "display": "Physical findings of Macula",
          "userSelected": true
        } ]
      },
      "subject": {
        "reference": "Patient/9a9e1543-79a1-47a0-a3dd-5ac008bbea65"
      },
      "effectiveDateTime": "2025-03-09T08:02:00.000+00:00",
      "issued": "2025-03-09T08:05:00.000+00:00",
      "valueBoolean": true
    },
    "request": {
      "method": "PUT",
      "url": "Observation/b8615255-cc1b-4ce2-b200-b47e816cbbc5"
    }
  }, {
    "fullUrl": "https://madie.cms.gov/Coverage/6b243619-3d24-48bc-8a0a-8e389821ca29",
    "resource": {
      "resourceType": "Coverage",
      "id": "6b243619-3d24-48bc-8a0a-8e389821ca29",
      "meta": {
        "profile": [ "http://hl7.org/fhir/us/qicore/StructureDefinition/qicore-coverage" ]
      },
      "status": "active",
      "beneficiary": {
        "reference": "Patient/9a9e1543-79a1-47a0-a3dd-5ac008bbea65"
      },
      "payor": [ {
        "reference": "Organization/ec7faec3-722e-4708-8e67-b7b562d33d55"
      } ]
    },
    "request": {
      "method": "PUT",
      "url": "Coverage/6b243619-3d24-48bc-8a0a-8e389821ca29"
    }
  }, {
    "fullUrl": "https://madie.cms.gov/Organization/ec7faec3-722e-4708-8e67-b7b562d33d55",
    "resource": {
      "resourceType": "Organization",
      "id": "ec7faec3-722e-4708-8e67-b7b562d33d55",
      "meta": {
        "profile": [ "http://hl7.org/fhir/us/qicore/StructureDefinition/qicore-organization" ]
      },
      "identifier": [ {
        "use": "temp",
        "system": "urn:oid:2.16.840.1.113883.4.4",
        "value": "21-3259825"
      } ],
      "active": true,
      "type": [ {
        "coding": [ {
          "system": "http://terminology.hl7.org/CodeSystem/organization-type",
          "code": "pay",
          "display": "Payer"
        } ]
      } ],
      "name": "Blue Cross Blue Shield of Texas",
      "telecom": [ {
        "system": "phone",
        "value": "(+1) 972-766-6900"
      } ],
      "address": [ {
        "use": "billing",
        "type": "postal",
        "line": [ "P.O. Box 660044" ],
        "city": "Dallas",
        "state": "TX",
        "postalCode": "75266-0044",
        "country": "USA"
      } ]
    },
    "request": {
      "method": "PUT",
      "url": "Organization/ec7faec3-722e-4708-8e67-b7b562d33d55"
    }
  }, {
    "fullUrl": "https://madie.cms.gov/Practitioner/3fb640ab-5d78-4d93-a8ec-ab077ab76c3c",
    "resource": {
      "resourceType": "Practitioner",
      "id": "3fb640ab-5d78-4d93-a8ec-ab077ab76c3c",
      "meta": {
        "profile": [ "http://hl7.org/fhir/us/qicore/StructureDefinition/qicore-practitioner" ]
      },
      "identifier": [ {
        "system": "http://hl7.org/fhir/sid/us-npi",
        "value": "123456"
      } ],
      "name": [ {
        "family": "Goodboy",
        "prefix": [ "Dr" ]
      } ]
    },
    "request": {
      "method": "PUT",
      "url": "Practitioner/3fb640ab-5d78-4d93-a8ec-ab077ab76c3c"
    }
  }, {
    "fullUrl": "https://madie.cms.gov/MeasureReport/0cb51d19-d35a-4d36-a0cb-7038d61ae4d5",
    "resource": {
      "resourceType": "MeasureReport",
      "id": "0cb51d19-d35a-4d36-a0cb-7038d61ae4d5",
      "meta": {
        "profile": [ "http://hl7.org/fhir/us/cqfmeasures/StructureDefinition/test-case-cqfm" ]
      },
      "contained": [ {
        "resourceType": "Parameters",
        "id": "a704a022-d43f-4ffb-be19-4fd805b4e4dc-parameters",
        "parameter": [ {
          "name": "subject",
          "valueString": "9a9e1543-79a1-47a0-a3dd-5ac008bbea65"
        } ]
      } ],
      "extension": [ {
        "url": "http://hl7.org/fhir/StructureDefinition/cqf-inputParameters",
        "valueReference": {
          "reference": "#a704a022-d43f-4ffb-be19-4fd805b4e4dc-parameters"
        }
      }, {
        "url": "http://hl7.org/fhir/us/cqfmeasures/StructureDefinition/cqfm-testCaseDescription",
        "valueMarkdown": "Patient >=18 years with qualifying encounter and macular exam which occurs outside of the Diabetic Retinopathy Encounter"
      } ],
      "modifierExtension": [ {
        "url": "http://hl7.org/fhir/us/cqfmeasures/StructureDefinition/cqfm-isTestCase",
        "valueBoolean": true
      } ],
      "status": "complete",
      "type": "individual",
      "measure": "https://madie.cms.gov/Measure/CMS142FHIRDRCommunicationWithPhysicianManagingDiabetes",
      "period": {
        "start": "2026-01-01",
        "end": "2026-12-31"
      },
      "group": [ {
        "id": "Group_1",
        "population": [ {
          "id": "InitialPopulation_1",
          "code": {
            "coding": [ {
              "system": "http://terminology.hl7.org/CodeSystem/measure-population",
              "code": "initial-population",
              "display": "Initial Population"
            } ]
          },
          "count": 1
        }, {
          "id": "Denominator_1",
          "code": {
            "coding": [ {
              "system": "http://terminology.hl7.org/CodeSystem/measure-population",
              "code": "denominator",
              "display": "Denominator"
            } ]
          },
          "count": 0
        }, {
          "id": "Numerator_1",
          "code": {
            "coding": [ {
              "system": "http://terminology.hl7.org/CodeSystem/measure-population",
              "code": "numerator",
              "display": "Numerator"
            } ]
          },
          "count": 0
        }, {
          "id": "DenominatorException_1",
          "code": {
            "coding": [ {
              "system": "http://terminology.hl7.org/CodeSystem/measure-population",
              "code": "denominator-exception",
              "display": "Denominator Exception"
            } ]
          },
          "count": 0
        } ],
        "measureScore": {
          "value": 1.0
        }
      } ],
      "evaluatedResource": [ {
        "reference": "Patient/9a9e1543-79a1-47a0-a3dd-5ac008bbea65"
      }, {
        "reference": "Encounter/3dc71e76-9a77-47eb-8e89-f75c25bf8bcb"
      }, {
        "reference": "Condition/f4bd3d7b-da0d-4d45-beae-c69504370047"
      }, {
        "reference": "Observation/b8615255-cc1b-4ce2-b200-b47e816cbbc5"
      }, {
        "reference": "Coverage/6b243619-3d24-48bc-8a0a-8e389821ca29"
      }, {
        "reference": "Organization/ec7faec3-722e-4708-8e67-b7b562d33d55"
      }, {
        "reference": "Practitioner/3fb640ab-5d78-4d93-a8ec-ab077ab76c3c"
      } ]
    },
    "request": {
      "method": "PUT",
      "url": "MeasureReport/0cb51d19-d35a-4d36-a0cb-7038d61ae4d5"
    }
  } ]
}