{
  "resourceType": "Bundle",
  "id": "633b3f9f0968f80122503cde",
  "type": "transaction",
  "entry": [ {
    "fullUrl": "https://madie.cms.gov/Patient/996cc735-1136-404d-9664-bd7912aafe9b",
    "resource": {
      "resourceType": "Patient",
      "id": "996cc735-1136-404d-9664-bd7912aafe9b",
      "meta": {
        "profile": [ "http://hl7.org/fhir/us/qicore/StructureDefinition/qicore-patient" ]
      },
      "text": {
        "status": "generated",
        "div": "<div xmlns=\"http://www.w3.org/1999/xhtml\"><div class=\"hapiHeaderText\">LastAssPrfEGARelvTmEQLastTmDELRsltDtTime<b>DENOMPASS</b></div><table class=\"hapiPropertyTable\"><tbody><tr><td>Date of birth</td><td><span>01 February 2004</span></td></tr></tbody></table></div>"
      },
      "extension": [ {
        "url": "http://hl7.org/fhir/us/core/StructureDefinition/us-core-race",
        "extension": [ {
          "url": "ombCategory",
          "valueCoding": {
            "system": "urn:oid:2.16.840.1.113883.6.238",
            "code": "1002-5",
            "display": "American Indian or Alaska Native",
            "userSelected": true
          }
        }, {
          "url": "text",
          "valueString": "American Indian or Alaska Native"
        } ]
      }, {
        "url": "http://hl7.org/fhir/us/core/StructureDefinition/us-core-ethnicity",
        "extension": [ {
          "url": "ombCategory",
          "valueCoding": {
            "system": "urn:oid:2.16.840.1.113883.6.238",
            "code": "2135-2",
            "display": "Hispanic or Latino",
            "userSelected": true
          }
        }, {
          "url": "text",
          "valueString": "Hispanic or Latino"
        } ]
      } ],
      "identifier": [ {
        "type": {
          "coding": [ {
            "system": "http://terminology.hl7.org/CodeSystem/v2-0203",
            "code": "MR"
          } ]
        },
        "system": "https://bonnie-fhir.healthit.gov/",
        "value": "633b3f9f0968f80122503cde"
      } ],
      "active": true,
      "name": [ {
        "use": "usual",
        "family": "DENOMPass",
        "given": [ "LastAssPrfEGARelvTmEQLastTmDELRsltDtTime" ]
      } ],
      "gender": "female",
      "birthDate": "2005-02-01"
    },
    "request": {
      "method": "PUT",
      "url": "Patient/996cc735-1136-404d-9664-bd7912aafe9b"
    }
  }, {
    "fullUrl": "https://madie.cms.gov/Observation/b9ebdeaa-442a-4727-b413-f96912461d97",
    "resource": {
      "resourceType": "Observation",
      "id": "b9ebdeaa-442a-4727-b413-f96912461d97",
      "meta": {
        "profile": [ "http://hl7.org/fhir/us/qicore/StructureDefinition/qicore-simple-observation" ]
      },
      "status": "final",
      "category": [ {
        "coding": [ {
          "system": "http://terminology.hl7.org/CodeSystem/observation-category",
          "code": "exam",
          "display": "exam",
          "userSelected": true
        } ]
      } ],
      "code": {
        "coding": [ {
          "system": "http://loinc.org",
          "code": "93857-1"
        } ]
      },
      "subject": {
        "reference": "Patient/996cc735-1136-404d-9664-bd7912aafe9b"
      },
      "effectiveDateTime": "2026-02-01T08:00:00Z",
      "performer": [ {
        "reference": "Organization/example1",
        "display": "Hendricks Country Hospital"
      } ],
      "valueDateTime": "2026-02-01T08:00:00.000+00:00"
    },
    "request": {
      "method": "PUT",
      "url": "Observation/b9ebdeaa-442a-4727-b413-f96912461d97"
    }
  }, {
    "fullUrl": "https://madie.cms.gov/Observation/935d7762-2c0d-4035-a1f1-10ed8c1233ac",
    "resource": {
      "resourceType": "Observation",
      "id": "935d7762-2c0d-4035-a1f1-10ed8c1233ac",
      "meta": {
        "profile": [ "http://hl7.org/fhir/us/qicore/StructureDefinition/qicore-simple-observation" ]
      },
      "status": "final",
      "category": [ {
        "coding": [ {
          "system": "http://terminology.hl7.org/CodeSystem/observation-category",
          "code": "exam",
          "display": "exam",
          "userSelected": true
        } ]
      } ],
      "code": {
        "coding": [ {
          "system": "http://loinc.org",
          "code": "11778-8"
        } ]
      },
      "subject": {
        "reference": "Patient/996cc735-1136-404d-9664-bd7912aafe9b"
      },
      "effectiveDateTime": "2026-02-01T08:00:00Z",
      "performer": [ {
        "reference": "Organization/example1",
        "display": "Hendricks Country Hospital"
      } ],
      "valueDateTime": "2026-02-01T08:00:00.000+00:00"
    },
    "request": {
      "method": "PUT",
      "url": "Observation/935d7762-2c0d-4035-a1f1-10ed8c1233ac"
    }
  }, {
    "fullUrl": "https://madie.cms.gov/Encounter/7774ca35-9417-4956-ada9-536fc7d11035",
    "resource": {
      "resourceType": "Encounter",
      "id": "7774ca35-9417-4956-ada9-536fc7d11035",
      "meta": {
        "profile": [ "http://hl7.org/fhir/us/qicore/StructureDefinition/qicore-encounter" ]
      },
      "status": "finished",
      "class": {
        "system": "http://terminology.hl7.org/CodeSystem/v3-ActCode",
        "code": "IMP",
        "display": "inpatient encounter"
      },
      "type": [ {
        "coding": [ {
          "system": "http://snomed.info/sct",
          "code": "183452005"
        } ]
      } ],
      "subject": {
        "reference": "Patient/996cc735-1136-404d-9664-bd7912aafe9b"
      },
      "period": {
        "start": "2026-02-01T08:00:00Z",
        "end": "2026-02-05T08:15:00.000+00:00"
      }
    },
    "request": {
      "method": "PUT",
      "url": "Encounter/7774ca35-9417-4956-ada9-536fc7d11035"
    }
  }, {
    "fullUrl": "https://madie.cms.gov/Procedure/890d2f27-55b9-4c8f-a7fd-f5603d6ac748",
    "resource": {
      "resourceType": "Procedure",
      "id": "890d2f27-55b9-4c8f-a7fd-f5603d6ac748",
      "meta": {
        "profile": [ "http://hl7.org/fhir/us/qicore/StructureDefinition/qicore-procedure" ]
      },
      "extension": [ {
        "url": "http://hl7.org/fhir/us/qicore/StructureDefinition/qicore-recorded",
        "valueDateTime": "2014-04-05T13:35:00Z"
      } ],
      "status": "completed",
      "code": {
        "coding": [ {
          "system": "http://snomed.info/sct",
          "code": "10745001"
        } ]
      },
      "subject": {
        "reference": "Patient/996cc735-1136-404d-9664-bd7912aafe9b"
      },
      "performedPeriod": {
        "start": "2026-02-01T08:00:00Z",
        "end": "2026-02-05T08:15:00.000+00:00"
      }
    },
    "request": {
      "method": "PUT",
      "url": "Procedure/890d2f27-55b9-4c8f-a7fd-f5603d6ac748"
    }
  }, {
    "fullUrl": "https://madie.cms.gov/Coverage/f9f11647-7762-4c95-9ec0-fd65cd4feb21",
    "resource": {
      "resourceType": "Coverage",
      "id": "f9f11647-7762-4c95-9ec0-fd65cd4feb21",
      "meta": {
        "profile": [ "http://hl7.org/fhir/us/qicore/StructureDefinition/qicore-coverage" ]
      },
      "status": "active",
      "subscriberId": "523435",
      "beneficiary": {
        "reference": "Patient/996cc735-1136-404d-9664-bd7912aafe9b"
      },
      "relationship": {
        "coding": [ {
          "system": "http://terminology.hl7.org/CodeSystem/subscriber-relationship",
          "code": "self"
        } ]
      },
      "payor": [ {
        "reference": "Organization/a77c02e8-009c-4551-a48c-b065ba0b79b9"
      } ]
    },
    "request": {
      "method": "PUT",
      "url": "Coverage/f9f11647-7762-4c95-9ec0-fd65cd4feb21"
    }
  }, {
    "fullUrl": "https://madie.cms.gov/Organization/a77c02e8-009c-4551-a48c-b065ba0b79b9",
    "resource": {
      "resourceType": "Organization",
      "id": "a77c02e8-009c-4551-a48c-b065ba0b79b9",
      "meta": {
        "profile": [ "http://hl7.org/fhir/us/qicore/StructureDefinition/qicore-organization" ]
      },
      "identifier": [ {
        "use": "temp",
        "system": "urn:oid:2.16.840.1.113883.4.4",
        "value": "21-3259825"
      } ],
      "active": true,
      "type": [ {
        "coding": [ {
          "system": "http://terminology.hl7.org/CodeSystem/organization-type",
          "code": "pay",
          "display": "Payer"
        } ]
      } ],
      "name": "Blue Cross Blue Shield of Texas",
      "telecom": [ {
        "system": "phone",
        "value": "(+1) 972-766-6900"
      } ],
      "address": [ {
        "use": "billing",
        "type": "postal",
        "line": [ "P.O. Box 660044" ],
        "city": "Dallas",
        "state": "TX",
        "postalCode": "75266-0044",
        "country": "USA"
      } ]
    },
    "request": {
      "method": "PUT",
      "url": "Organization/a77c02e8-009c-4551-a48c-b065ba0b79b9"
    }
  }, {
    "fullUrl": "https://madie.cms.gov/Practitioner/3574c96c-09ae-451c-898c-c3d0452d441e",
    "resource": {
      "resourceType": "Practitioner",
      "id": "3574c96c-09ae-451c-898c-c3d0452d441e",
      "meta": {
        "profile": [ "http://hl7.org/fhir/us/qicore/StructureDefinition/qicore-practitioner" ]
      },
      "identifier": [ {
        "system": "http://hl7.org/fhir/sid/us-npi",
        "value": "1234567890"
      } ],
      "name": [ {
        "family": "Evil",
        "prefix": [ "Dr" ]
      } ]
    },
    "request": {
      "method": "PUT",
      "url": "Practitioner/3574c96c-09ae-451c-898c-c3d0452d441e"
    }
  }, {
    "fullUrl": "https://madie.cms.gov/MeasureReport/69988ecd-8a01-483c-9992-88514b4ce12d",
    "resource": {
      "resourceType": "MeasureReport",
      "id": "69988ecd-8a01-483c-9992-88514b4ce12d",
      "meta": {
        "profile": [ "http://hl7.org/fhir/us/cqfmeasures/StructureDefinition/test-case-cqfm" ]
      },
      "contained": [ {
        "resourceType": "Parameters",
        "id": "9c2be0da-3c09-4f0f-8714-6652c4d7af06-parameters",
        "parameter": [ {
          "name": "subject",
          "valueString": "996cc735-1136-404d-9664-bd7912aafe9b"
        } ]
      } ],
      "extension": [ {
        "url": "http://hl7.org/fhir/StructureDefinition/cqf-inputParameters",
        "valueReference": {
          "reference": "#9c2be0da-3c09-4f0f-8714-6652c4d7af06-parameters"
        }
      }, {
        "url": "http://hl7.org/fhir/us/cqfmeasures/StructureDefinition/cqfm-testCaseDescription",
        "valueMarkdown": "Last assessment Performed, Estimated Delivery Date, Relevant time equal to  Delivery Result Date/Time\n"
      } ],
      "modifierExtension": [ {
        "url": "http://hl7.org/fhir/us/cqfmeasures/StructureDefinition/cqfm-isTestCase",
        "valueBoolean": true
      } ],
      "status": "complete",
      "type": "individual",
      "measure": "https://madie.cms.gov/Measure/CMS1028FHIRPCSevereOBComps",
      "period": {
        "start": "2026-01-01",
        "end": "2026-12-31"
      },
      "group": [ {
        "id": "Group_1",
        "population": [ {
          "id": "InitialPopulation_1",
          "code": {
            "coding": [ {
              "system": "http://terminology.hl7.org/CodeSystem/measure-population",
              "code": "initial-population",
              "display": "Initial Population"
            } ]
          },
          "count": 1
        }, {
          "id": "Denominator_1",
          "code": {
            "coding": [ {
              "system": "http://terminology.hl7.org/CodeSystem/measure-population",
              "code": "denominator",
              "display": "Denominator"
            } ]
          },
          "count": 1
        }, {
          "id": "Numerator_1",
          "code": {
            "coding": [ {
              "system": "http://terminology.hl7.org/CodeSystem/measure-population",
              "code": "numerator",
              "display": "Numerator"
            } ]
          },
          "count": 0
        }, {
          "id": "NumeratorExclusion_1",
          "code": {
            "coding": [ {
              "system": "http://terminology.hl7.org/CodeSystem/measure-population",
              "code": "numerator-exclusion",
              "display": "Numerator Exclusion"
            } ]
          },
          "count": 0
        } ],
        "measureScore": {
          "value": 0.0
        }
      }, {
        "id": "Group_2",
        "population": [ {
          "id": "InitialPopulation_2",
          "code": {
            "coding": [ {
              "system": "http://terminology.hl7.org/CodeSystem/measure-population",
              "code": "initial-population",
              "display": "Initial Population"
            } ]
          },
          "count": 1
        }, {
          "id": "Denominator_2",
          "code": {
            "coding": [ {
              "system": "http://terminology.hl7.org/CodeSystem/measure-population",
              "code": "denominator",
              "display": "Denominator"
            } ]
          },
          "count": 1
        }, {
          "id": "Numerator_2",
          "code": {
            "coding": [ {
              "system": "http://terminology.hl7.org/CodeSystem/measure-population",
              "code": "numerator",
              "display": "Numerator"
            } ]
          },
          "count": 0
        }, {
          "id": "NumeratorExclusion_2",
          "code": {
            "coding": [ {
              "system": "http://terminology.hl7.org/CodeSystem/measure-population",
              "code": "numerator-exclusion",
              "display": "Numerator Exclusion"
            } ]
          },
          "count": 0
        } ],
        "measureScore": {
          "value": 0.0
        }
      } ],
      "evaluatedResource": [ {
        "reference": "Patient/996cc735-1136-404d-9664-bd7912aafe9b"
      }, {
        "reference": "Observation/b9ebdeaa-442a-4727-b413-f96912461d97"
      }, {
        "reference": "Observation/935d7762-2c0d-4035-a1f1-10ed8c1233ac"
      }, {
        "reference": "Encounter/7774ca35-9417-4956-ada9-536fc7d11035"
      }, {
        "reference": "Procedure/890d2f27-55b9-4c8f-a7fd-f5603d6ac748"
      }, {
        "reference": "Coverage/f9f11647-7762-4c95-9ec0-fd65cd4feb21"
      }, {
        "reference": "Organization/a77c02e8-009c-4551-a48c-b065ba0b79b9"
      }, {
        "reference": "Practitioner/3574c96c-09ae-451c-898c-c3d0452d441e"
      } ]
    },
    "request": {
      "method": "PUT",
      "url": "MeasureReport/69988ecd-8a01-483c-9992-88514b4ce12d"
    }
  } ]
}