{
  "resourceType": "Bundle",
  "id": "633b3f9f0968f80122503ce2",
  "type": "transaction",
  "entry": [ {
    "fullUrl": "https://madie.cms.gov/Patient/1a1411f1-a9f1-4b4c-b722-d0558b95a8df",
    "resource": {
      "resourceType": "Patient",
      "id": "1a1411f1-a9f1-4b4c-b722-d0558b95a8df",
      "meta": {
        "profile": [ "http://hl7.org/fhir/us/qicore/StructureDefinition/qicore-patient" ]
      },
      "text": {
        "status": "generated",
        "div": "<div xmlns=\"http://www.w3.org/1999/xhtml\"><div class=\"hapiHeaderText\">LastAssPrfEGAResultQuantityEQ21<b>DENOMPASS</b></div><table class=\"hapiPropertyTable\"><tbody><tr><td>Date of birth</td><td><span>01 February 2004</span></td></tr></tbody></table></div>"
      },
      "extension": [ {
        "url": "http://hl7.org/fhir/us/core/StructureDefinition/us-core-race",
        "extension": [ {
          "url": "ombCategory",
          "valueCoding": {
            "system": "urn:oid:2.16.840.1.113883.6.238",
            "code": "1002-5",
            "display": "American Indian or Alaska Native",
            "userSelected": true
          }
        }, {
          "url": "text",
          "valueString": "American Indian or Alaska Native"
        } ]
      }, {
        "url": "http://hl7.org/fhir/us/core/StructureDefinition/us-core-ethnicity",
        "extension": [ {
          "url": "ombCategory",
          "valueCoding": {
            "system": "urn:oid:2.16.840.1.113883.6.238",
            "code": "2135-2",
            "display": "Hispanic or Latino",
            "userSelected": true
          }
        }, {
          "url": "text",
          "valueString": "Hispanic or Latino"
        } ]
      } ],
      "identifier": [ {
        "type": {
          "coding": [ {
            "system": "http://terminology.hl7.org/CodeSystem/v2-0203",
            "code": "MR"
          } ]
        },
        "system": "https://bonnie-fhir.healthit.gov/",
        "value": "633b3f9f0968f80122503ce2"
      } ],
      "active": true,
      "name": [ {
        "use": "usual",
        "family": "DENOMPass",
        "given": [ "LastAssPrfEGAResultQuantityEQ21" ]
      } ],
      "gender": "female",
      "birthDate": "2017-02-01"
    },
    "request": {
      "method": "PUT",
      "url": "Patient/1a1411f1-a9f1-4b4c-b722-d0558b95a8df"
    }
  }, {
    "fullUrl": "https://madie.cms.gov/Observation/b47129c6-55cb-41f5-9fd6-069afc7ef83e",
    "resource": {
      "resourceType": "Observation",
      "id": "b47129c6-55cb-41f5-9fd6-069afc7ef83e",
      "meta": {
        "profile": [ "http://hl7.org/fhir/us/qicore/StructureDefinition/qicore-simple-observation" ]
      },
      "status": "final",
      "category": [ {
        "coding": [ {
          "system": "http://terminology.hl7.org/CodeSystem/observation-category",
          "code": "exam",
          "display": "exam",
          "userSelected": true
        } ]
      } ],
      "code": {
        "coding": [ {
          "system": "http://loinc.org",
          "code": "93857-1"
        } ]
      },
      "subject": {
        "reference": "Patient/1a1411f1-a9f1-4b4c-b722-d0558b95a8df"
      },
      "effectiveDateTime": "2026-02-01T08:00:00Z",
      "performer": [ {
        "reference": "Organization/example1",
        "display": "Hendricks Country Hospital"
      } ],
      "valueDateTime": "2026-02-01T08:00:00.000+00:00"
    },
    "request": {
      "method": "PUT",
      "url": "Observation/b47129c6-55cb-41f5-9fd6-069afc7ef83e"
    }
  }, {
    "fullUrl": "https://madie.cms.gov/Observation/ce606ccc-85f4-44cf-822c-a4367d2e9b7b",
    "resource": {
      "resourceType": "Observation",
      "id": "ce606ccc-85f4-44cf-822c-a4367d2e9b7b",
      "meta": {
        "profile": [ "http://hl7.org/fhir/us/qicore/StructureDefinition/qicore-simple-observation" ]
      },
      "status": "final",
      "category": [ {
        "coding": [ {
          "system": "http://terminology.hl7.org/CodeSystem/observation-category",
          "code": "exam",
          "display": "exam",
          "userSelected": true
        } ]
      } ],
      "code": {
        "coding": [ {
          "system": "http://loinc.org",
          "code": "11884-4"
        } ]
      },
      "subject": {
        "reference": "Patient/1a1411f1-a9f1-4b4c-b722-d0558b95a8df"
      },
      "effectiveDateTime": "2026-02-01T08:00:00Z",
      "performer": [ {
        "reference": "Organization/example1",
        "display": "Hendricks Country Hospital"
      } ],
      "valueQuantity": {
        "value": 20,
        "unit": "wk"
      }
    },
    "request": {
      "method": "PUT",
      "url": "Observation/ce606ccc-85f4-44cf-822c-a4367d2e9b7b"
    }
  }, {
    "fullUrl": "https://madie.cms.gov/Encounter/6d0c4f48-2820-47cc-b6ae-bf80a7fdaf4c",
    "resource": {
      "resourceType": "Encounter",
      "id": "6d0c4f48-2820-47cc-b6ae-bf80a7fdaf4c",
      "meta": {
        "profile": [ "http://hl7.org/fhir/us/qicore/StructureDefinition/qicore-encounter" ]
      },
      "status": "finished",
      "class": {
        "system": "http://terminology.hl7.org/CodeSystem/v3-ActCode",
        "code": "IMP",
        "display": "inpatient encounter"
      },
      "type": [ {
        "coding": [ {
          "system": "http://snomed.info/sct",
          "code": "183452005"
        } ]
      } ],
      "subject": {
        "reference": "Patient/1a1411f1-a9f1-4b4c-b722-d0558b95a8df"
      },
      "period": {
        "start": "2026-02-01T08:00:00Z",
        "end": "2026-02-05T08:15:00.000+00:00"
      }
    },
    "request": {
      "method": "PUT",
      "url": "Encounter/6d0c4f48-2820-47cc-b6ae-bf80a7fdaf4c"
    }
  }, {
    "fullUrl": "https://madie.cms.gov/Procedure/9849058e-3616-48bb-9fd5-60d6625a4fec",
    "resource": {
      "resourceType": "Procedure",
      "id": "9849058e-3616-48bb-9fd5-60d6625a4fec",
      "meta": {
        "profile": [ "http://hl7.org/fhir/us/qicore/StructureDefinition/qicore-procedure" ]
      },
      "extension": [ {
        "url": "http://hl7.org/fhir/us/qicore/StructureDefinition/qicore-recorded",
        "valueDateTime": "2014-04-05T13:35:00Z"
      } ],
      "status": "completed",
      "code": {
        "coding": [ {
          "system": "http://snomed.info/sct",
          "code": "10745001"
        } ]
      },
      "subject": {
        "reference": "Patient/1a1411f1-a9f1-4b4c-b722-d0558b95a8df"
      },
      "performedPeriod": {
        "start": "2026-02-01T08:00:00Z",
        "end": "2026-02-05T08:15:00.000+00:00"
      }
    },
    "request": {
      "method": "PUT",
      "url": "Procedure/9849058e-3616-48bb-9fd5-60d6625a4fec"
    }
  }, {
    "fullUrl": "https://madie.cms.gov/Coverage/e62eb2fe-e11b-4c7b-a324-99c29027abbf",
    "resource": {
      "resourceType": "Coverage",
      "id": "e62eb2fe-e11b-4c7b-a324-99c29027abbf",
      "meta": {
        "profile": [ "http://hl7.org/fhir/us/qicore/StructureDefinition/qicore-coverage" ]
      },
      "status": "active",
      "subscriberId": "523435",
      "beneficiary": {
        "reference": "Patient/1a1411f1-a9f1-4b4c-b722-d0558b95a8df"
      },
      "relationship": {
        "coding": [ {
          "system": "http://terminology.hl7.org/CodeSystem/subscriber-relationship",
          "code": "self"
        } ]
      },
      "payor": [ {
        "reference": "Organization/0e0a9906-9d63-449c-9d60-d65fce26c91a"
      } ]
    },
    "request": {
      "method": "PUT",
      "url": "Coverage/e62eb2fe-e11b-4c7b-a324-99c29027abbf"
    }
  }, {
    "fullUrl": "https://madie.cms.gov/Organization/0e0a9906-9d63-449c-9d60-d65fce26c91a",
    "resource": {
      "resourceType": "Organization",
      "id": "0e0a9906-9d63-449c-9d60-d65fce26c91a",
      "meta": {
        "profile": [ "http://hl7.org/fhir/us/qicore/StructureDefinition/qicore-organization" ]
      },
      "identifier": [ {
        "use": "temp",
        "system": "urn:oid:2.16.840.1.113883.4.4",
        "value": "21-3259825"
      } ],
      "active": true,
      "type": [ {
        "coding": [ {
          "system": "http://terminology.hl7.org/CodeSystem/organization-type",
          "code": "pay",
          "display": "Payer"
        } ]
      } ],
      "name": "Blue Cross Blue Shield of Texas",
      "telecom": [ {
        "system": "phone",
        "value": "(+1) 972-766-6900"
      } ],
      "address": [ {
        "use": "billing",
        "type": "postal",
        "line": [ "P.O. Box 660044" ],
        "city": "Dallas",
        "state": "TX",
        "postalCode": "75266-0044",
        "country": "USA"
      } ]
    },
    "request": {
      "method": "PUT",
      "url": "Organization/0e0a9906-9d63-449c-9d60-d65fce26c91a"
    }
  }, {
    "fullUrl": "https://madie.cms.gov/Practitioner/9f920c65-0740-43fe-ba10-0f292611116c",
    "resource": {
      "resourceType": "Practitioner",
      "id": "9f920c65-0740-43fe-ba10-0f292611116c",
      "meta": {
        "profile": [ "http://hl7.org/fhir/us/qicore/StructureDefinition/qicore-practitioner" ]
      },
      "identifier": [ {
        "system": "http://hl7.org/fhir/sid/us-npi",
        "value": "1234567890"
      } ],
      "name": [ {
        "family": "Evil",
        "prefix": [ "Dr" ]
      } ]
    },
    "request": {
      "method": "PUT",
      "url": "Practitioner/9f920c65-0740-43fe-ba10-0f292611116c"
    }
  }, {
    "fullUrl": "https://madie.cms.gov/MeasureReport/9c0e069e-9959-49c5-b976-fcaf3baa44e2",
    "resource": {
      "resourceType": "MeasureReport",
      "id": "9c0e069e-9959-49c5-b976-fcaf3baa44e2",
      "meta": {
        "profile": [ "http://hl7.org/fhir/us/cqfmeasures/StructureDefinition/test-case-cqfm" ]
      },
      "contained": [ {
        "resourceType": "Parameters",
        "id": "4b341341-e8cf-496c-86b4-500eecf3c08b-parameters",
        "parameter": [ {
          "name": "subject",
          "valueString": "1a1411f1-a9f1-4b4c-b722-d0558b95a8df"
        } ]
      } ],
      "extension": [ {
        "url": "http://hl7.org/fhir/StructureDefinition/cqf-inputParameters",
        "valueReference": {
          "reference": "#4b341341-e8cf-496c-86b4-500eecf3c08b-parameters"
        }
      }, {
        "url": "http://hl7.org/fhir/us/cqfmeasures/StructureDefinition/cqfm-testCaseDescription",
        "valueMarkdown": "Last Assessment Performed EGA = 21 weeks\n"
      } ],
      "modifierExtension": [ {
        "url": "http://hl7.org/fhir/us/cqfmeasures/StructureDefinition/cqfm-isTestCase",
        "valueBoolean": true
      } ],
      "status": "complete",
      "type": "individual",
      "measure": "https://madie.cms.gov/Measure/CMS1028FHIRPCSevereOBComps",
      "period": {
        "start": "2026-01-01",
        "end": "2026-12-31"
      },
      "group": [ {
        "id": "Group_1",
        "population": [ {
          "id": "InitialPopulation_1",
          "code": {
            "coding": [ {
              "system": "http://terminology.hl7.org/CodeSystem/measure-population",
              "code": "initial-population",
              "display": "Initial Population"
            } ]
          },
          "count": 1
        }, {
          "id": "Denominator_1",
          "code": {
            "coding": [ {
              "system": "http://terminology.hl7.org/CodeSystem/measure-population",
              "code": "denominator",
              "display": "Denominator"
            } ]
          },
          "count": 1
        }, {
          "id": "Numerator_1",
          "code": {
            "coding": [ {
              "system": "http://terminology.hl7.org/CodeSystem/measure-population",
              "code": "numerator",
              "display": "Numerator"
            } ]
          },
          "count": 0
        }, {
          "id": "NumeratorExclusion_1",
          "code": {
            "coding": [ {
              "system": "http://terminology.hl7.org/CodeSystem/measure-population",
              "code": "numerator-exclusion",
              "display": "Numerator Exclusion"
            } ]
          },
          "count": 0
        } ],
        "measureScore": {
          "value": 0.0
        }
      }, {
        "id": "Group_2",
        "population": [ {
          "id": "InitialPopulation_2",
          "code": {
            "coding": [ {
              "system": "http://terminology.hl7.org/CodeSystem/measure-population",
              "code": "initial-population",
              "display": "Initial Population"
            } ]
          },
          "count": 1
        }, {
          "id": "Denominator_2",
          "code": {
            "coding": [ {
              "system": "http://terminology.hl7.org/CodeSystem/measure-population",
              "code": "denominator",
              "display": "Denominator"
            } ]
          },
          "count": 1
        }, {
          "id": "Numerator_2",
          "code": {
            "coding": [ {
              "system": "http://terminology.hl7.org/CodeSystem/measure-population",
              "code": "numerator",
              "display": "Numerator"
            } ]
          },
          "count": 0
        }, {
          "id": "NumeratorExclusion_2",
          "code": {
            "coding": [ {
              "system": "http://terminology.hl7.org/CodeSystem/measure-population",
              "code": "numerator-exclusion",
              "display": "Numerator Exclusion"
            } ]
          },
          "count": 0
        } ],
        "measureScore": {
          "value": 0.0
        }
      } ],
      "evaluatedResource": [ {
        "reference": "Patient/1a1411f1-a9f1-4b4c-b722-d0558b95a8df"
      }, {
        "reference": "Observation/b47129c6-55cb-41f5-9fd6-069afc7ef83e"
      }, {
        "reference": "Observation/ce606ccc-85f4-44cf-822c-a4367d2e9b7b"
      }, {
        "reference": "Encounter/6d0c4f48-2820-47cc-b6ae-bf80a7fdaf4c"
      }, {
        "reference": "Procedure/9849058e-3616-48bb-9fd5-60d6625a4fec"
      }, {
        "reference": "Coverage/e62eb2fe-e11b-4c7b-a324-99c29027abbf"
      }, {
        "reference": "Organization/0e0a9906-9d63-449c-9d60-d65fce26c91a"
      }, {
        "reference": "Practitioner/9f920c65-0740-43fe-ba10-0f292611116c"
      } ]
    },
    "request": {
      "method": "PUT",
      "url": "MeasureReport/9c0e069e-9959-49c5-b976-fcaf3baa44e2"
    }
  } ]
}