{
  "resourceType": "Bundle",
  "id": "DENEXFail-FrailtyDeviceRequestNotPerformedTrue",
  "type": "transaction",
  "entry": [ {
    "fullUrl": "https://madie.cms.gov/Patient/5433549b-9ad5-4a8f-acc4-ce0f1b411712",
    "resource": {
      "resourceType": "Patient",
      "id": "5433549b-9ad5-4a8f-acc4-ce0f1b411712",
      "meta": {
        "profile": [ "http://hl7.org/fhir/us/qicore/StructureDefinition/qicore-patient" ]
      },
      "extension": [ {
        "url": "http://hl7.org/fhir/us/core/StructureDefinition/us-core-race",
        "extension": [ {
          "url": "ombCategory",
          "valueCoding": {
            "system": "urn:oid:2.16.840.1.113883.6.238",
            "code": "2028-9",
            "display": "Asian",
            "userSelected": true
          }
        }, {
          "url": "text",
          "valueString": "Asian"
        } ]
      }, {
        "url": "http://hl7.org/fhir/us/core/StructureDefinition/us-core-ethnicity",
        "extension": [ {
          "url": "ombCategory",
          "valueCoding": {
            "system": "urn:oid:2.16.840.1.113883.6.238",
            "code": "2135-2",
            "display": "Hispanic or Latino",
            "userSelected": true
          }
        }, {
          "url": "text",
          "valueString": "Hispanic or Latino"
        } ]
      } ],
      "identifier": [ {
        "type": {
          "coding": [ {
            "system": "http://terminology.hl7.org/CodeSystem/v2-0203",
            "code": "MR"
          } ]
        },
        "system": "http://hospital.smarthealthit.org",
        "value": "999999995"
      } ],
      "name": [ {
        "family": "Bertha",
        "given": [ "Betty" ]
      } ],
      "gender": "female",
      "birthDate": "2007-01-01"
    },
    "request": {
      "method": "PUT",
      "url": "Patient/5433549b-9ad5-4a8f-acc4-ce0f1b411712"
    }
  }, {
    "fullUrl": "https://madie.cms.gov/Encounter/3bc4554e-19f9-4ee6-80ab-7acb88f96204",
    "resource": {
      "resourceType": "Encounter",
      "id": "3bc4554e-19f9-4ee6-80ab-7acb88f96204",
      "meta": {
        "profile": [ "http://hl7.org/fhir/us/qicore/StructureDefinition/qicore-encounter" ]
      },
      "status": "finished",
      "class": {
        "system": "http://terminology.hl7.org/CodeSystem/v3-ActCode",
        "code": "AMB",
        "display": "ambulatory"
      },
      "type": [ {
        "coding": [ {
          "system": "http://snomed.info/sct",
          "code": "185460008",
          "display": "Home visit request by patient (procedure)"
        } ]
      } ],
      "subject": {
        "reference": "Patient/5433549b-9ad5-4a8f-acc4-ce0f1b411712"
      },
      "period": {
        "start": "2026-01-01T00:00:00.000+00:00",
        "end": "2026-01-01T00:15:00.000+00:00"
      }
    },
    "request": {
      "method": "PUT",
      "url": "Encounter/3bc4554e-19f9-4ee6-80ab-7acb88f96204"
    }
  }, {
    "fullUrl": "https://madie.cms.gov/Condition/fa4c72fd-8514-4170-b5e6-ab129d16dfa9",
    "resource": {
      "resourceType": "Condition",
      "id": "fa4c72fd-8514-4170-b5e6-ab129d16dfa9",
      "meta": {
        "profile": [ "http://hl7.org/fhir/us/qicore/StructureDefinition/qicore-condition-encounter-diagnosis" ]
      },
      "clinicalStatus": {
        "coding": [ {
          "system": "http://terminology.hl7.org/CodeSystem/condition-clinical",
          "code": "active"
        } ]
      },
      "category": [ {
        "coding": [ {
          "system": "http://terminology.hl7.org/CodeSystem/condition-category",
          "code": "encounter-diagnosis",
          "display": "Encounter Diagnosis"
        } ]
      } ],
      "code": {
        "coding": [ {
          "system": "http://snomed.info/sct",
          "code": "102781000119107",
          "display": "Sensory neuropathy due to type 1 diabetes mellitus (disorder)"
        } ]
      },
      "subject": {
        "reference": "Patient/5433549b-9ad5-4a8f-acc4-ce0f1b411712"
      },
      "onsetDateTime": "2026-01-01T23:59:00.000+00:00"
    },
    "request": {
      "method": "PUT",
      "url": "Condition/fa4c72fd-8514-4170-b5e6-ab129d16dfa9"
    }
  }, {
    "fullUrl": "https://madie.cms.gov/DeviceRequest/9ebcaa71-0978-4156-855c-b9d7ec3a5d68",
    "resource": {
      "resourceType": "DeviceRequest",
      "id": "9ebcaa71-0978-4156-855c-b9d7ec3a5d68",
      "meta": {
        "profile": [ "http://hl7.org/fhir/us/qicore/StructureDefinition/qicore-devicerequest" ]
      },
      "modifierExtension": [ {
        "url": "http://hl7.org/fhir/5.0/StructureDefinition/extension-DeviceRequest.doNotPerform",
        "valueBoolean": true
      } ],
      "status": "completed",
      "intent": "order",
      "codeCodeableConcept": {
        "coding": [ {
          "system": "http://snomed.info/sct",
          "code": "183240000",
          "display": "Self-propelled wheelchair (physical object)"
        } ]
      },
      "subject": {
        "reference": "Patient/5433549b-9ad5-4a8f-acc4-ce0f1b411712"
      },
      "authoredOn": "2026-11-01T23:59:00.000+00:00"
    },
    "request": {
      "method": "PUT",
      "url": "DeviceRequest/9ebcaa71-0978-4156-855c-b9d7ec3a5d68"
    }
  }, {
    "fullUrl": "https://madie.cms.gov/MedicationRequest/53de042c-bfb2-4537-bf72-04d821ea865e",
    "resource": {
      "resourceType": "MedicationRequest",
      "id": "53de042c-bfb2-4537-bf72-04d821ea865e",
      "meta": {
        "profile": [ "http://hl7.org/fhir/us/qicore/StructureDefinition/qicore-medicationrequest" ]
      },
      "status": "active",
      "intent": "order",
      "doNotPerform": false,
      "medicationCodeableConcept": {
        "coding": [ {
          "system": "http://www.nlm.nih.gov/research/umls/rxnorm",
          "code": "312836",
          "display": "rivastigmine 6 MG Oral Capsule"
        } ]
      },
      "subject": {
        "reference": "Patient/5433549b-9ad5-4a8f-acc4-ce0f1b411712"
      },
      "authoredOn": "2026-12-30T00:00:00.000+00:00",
      "requester": {
        "reference": "Practitioner/example"
      },
      "dispenseRequest": {
        "expectedSupplyDuration": {
          "value": 90,
          "system": "http://unitsofmeasure.org",
          "code": "days"
        }
      }
    },
    "request": {
      "method": "PUT",
      "url": "MedicationRequest/53de042c-bfb2-4537-bf72-04d821ea865e"
    }
  }, {
    "fullUrl": "https://madie.cms.gov/MeasureReport/dfc59d18-7a6b-4014-8cb6-676f2dcc908d",
    "resource": {
      "resourceType": "MeasureReport",
      "id": "dfc59d18-7a6b-4014-8cb6-676f2dcc908d",
      "meta": {
        "profile": [ "http://hl7.org/fhir/us/cqfmeasures/StructureDefinition/test-case-cqfm" ]
      },
      "contained": [ {
        "resourceType": "Parameters",
        "id": "e0578c31-805d-48e5-823c-75e56a89ec81-parameters",
        "parameter": [ {
          "name": "subject",
          "valueString": "5433549b-9ad5-4a8f-acc4-ce0f1b411712"
        } ]
      } ],
      "extension": [ {
        "url": "http://hl7.org/fhir/StructureDefinition/cqf-inputParameters",
        "valueReference": {
          "reference": "#e0578c31-805d-48e5-823c-75e56a89ec81-parameters"
        }
      }, {
        "url": "http://hl7.org/fhir/us/cqfmeasures/StructureDefinition/cqfm-testCaseDescription",
        "valueMarkdown": "Frailty device request not performed is true"
      } ],
      "modifierExtension": [ {
        "url": "http://hl7.org/fhir/us/cqfmeasures/StructureDefinition/cqfm-isTestCase",
        "valueBoolean": true
      } ],
      "status": "complete",
      "type": "individual",
      "measure": "https://madie.cms.gov/Measure/CMS122FHIRDiabetesAssessGreaterThan9Percent",
      "period": {
        "start": "2026-01-01",
        "end": "2026-12-31"
      },
      "group": [ {
        "id": "Group_1",
        "population": [ {
          "id": "InitialPopulation_1",
          "code": {
            "coding": [ {
              "system": "http://terminology.hl7.org/CodeSystem/measure-population",
              "code": "initial-population",
              "display": "Initial Population"
            } ]
          },
          "count": 1
        }, {
          "id": "Denominator_1",
          "code": {
            "coding": [ {
              "system": "http://terminology.hl7.org/CodeSystem/measure-population",
              "code": "denominator",
              "display": "Denominator"
            } ]
          },
          "count": 1
        }, {
          "id": "DenominatorExclusion_1",
          "code": {
            "coding": [ {
              "system": "http://terminology.hl7.org/CodeSystem/measure-population",
              "code": "denominator-exclusion",
              "display": "Denominator Exclusion"
            } ]
          },
          "count": 0
        }, {
          "id": "Numerator_1",
          "code": {
            "coding": [ {
              "system": "http://terminology.hl7.org/CodeSystem/measure-population",
              "code": "numerator",
              "display": "Numerator"
            } ]
          },
          "count": 1
        } ],
        "measureScore": {
          "value": 1.0
        }
      } ],
      "evaluatedResource": [ {
        "reference": "Patient/5433549b-9ad5-4a8f-acc4-ce0f1b411712"
      }, {
        "reference": "Encounter/3bc4554e-19f9-4ee6-80ab-7acb88f96204"
      }, {
        "reference": "Condition/fa4c72fd-8514-4170-b5e6-ab129d16dfa9"
      }, {
        "reference": "DeviceRequest/9ebcaa71-0978-4156-855c-b9d7ec3a5d68"
      }, {
        "reference": "MedicationRequest/53de042c-bfb2-4537-bf72-04d821ea865e"
      } ]
    },
    "request": {
      "method": "PUT",
      "url": "MeasureReport/dfc59d18-7a6b-4014-8cb6-676f2dcc908d"
    }
  } ]
}