{
  "resourceType": "Bundle",
  "id": "DENEXPass-HospiceObsValueIsYes",
  "type": "transaction",
  "entry": [ {
    "fullUrl": "https://madie.cms.gov/Patient/b5f9f533-30c2-4fbe-b06e-3f8dccc8792c",
    "resource": {
      "resourceType": "Patient",
      "id": "b5f9f533-30c2-4fbe-b06e-3f8dccc8792c",
      "meta": {
        "profile": [ "http://hl7.org/fhir/us/qicore/StructureDefinition/qicore-patient" ]
      },
      "extension": [ {
        "url": "http://hl7.org/fhir/us/core/StructureDefinition/us-core-race",
        "extension": [ {
          "url": "ombCategory",
          "valueCoding": {
            "system": "urn:oid:2.16.840.1.113883.6.238",
            "code": "2028-9",
            "display": "Asian"
          }
        }, {
          "url": "text",
          "valueString": "Asian"
        } ]
      }, {
        "url": "http://hl7.org/fhir/us/core/StructureDefinition/us-core-ethnicity",
        "extension": [ {
          "url": "ombCategory",
          "valueCoding": {
            "system": "urn:oid:2.16.840.1.113883.6.238",
            "code": "2135-2",
            "display": "Hispanic or Latino"
          }
        }, {
          "url": "text",
          "valueString": "Hispanic or Latino"
        } ]
      } ],
      "identifier": [ {
        "system": "http://hospital.smarthealthit.org",
        "value": "999999995"
      } ],
      "name": [ {
        "family": "Bertha",
        "given": [ "Betty" ]
      } ],
      "gender": "female",
      "birthDate": "2024-01-01"
    },
    "request": {
      "method": "PUT",
      "url": "Patient/b5f9f533-30c2-4fbe-b06e-3f8dccc8792c"
    }
  }, {
    "fullUrl": "https://madie.cms.gov/Encounter/063fcb6c-1dd5-4366-89eb-c070aa38b53f",
    "resource": {
      "resourceType": "Encounter",
      "id": "063fcb6c-1dd5-4366-89eb-c070aa38b53f",
      "meta": {
        "profile": [ "http://hl7.org/fhir/us/qicore/StructureDefinition/qicore-encounter" ]
      },
      "status": "finished",
      "class": {
        "system": "http://terminology.hl7.org/CodeSystem/v3-ActCode",
        "code": "AMB",
        "display": "ambulatory"
      },
      "type": [ {
        "coding": [ {
          "system": "http://snomed.info/sct",
          "code": "185317003",
          "display": "Telephone encounter (procedure)"
        } ]
      } ],
      "subject": {
        "reference": "Patient/b5f9f533-30c2-4fbe-b06e-3f8dccc8792c"
      },
      "period": {
        "start": "2026-01-01T01:00:00.000Z",
        "end": "2026-01-01T01:15:00.000Z"
      }
    },
    "request": {
      "method": "PUT",
      "url": "Encounter/063fcb6c-1dd5-4366-89eb-c070aa38b53f"
    }
  }, {
    "fullUrl": "https://madie.cms.gov/Observation/cd33f975-b52a-40c3-b4ba-c0f4e48c7bf0",
    "resource": {
      "resourceType": "Observation",
      "id": "cd33f975-b52a-40c3-b4ba-c0f4e48c7bf0",
      "meta": {
        "profile": [ "http://hl7.org/fhir/us/qicore/StructureDefinition/qicore-observation-screening-assessment" ]
      },
      "status": "final",
      "category": [ {
        "coding": [ {
          "system": "http://terminology.hl7.org/CodeSystem/observation-category",
          "code": "survey"
        } ]
      } ],
      "code": {
        "coding": [ {
          "system": "http://loinc.org",
          "code": "45755-6",
          "display": "Hospice care [Minimum Data Set]"
        } ]
      },
      "subject": {
        "reference": "Patient/b5f9f533-30c2-4fbe-b06e-3f8dccc8792c"
      },
      "effectivePeriod": {
        "start": "2025-12-31T00:00:00.000Z",
        "end": "2026-01-01T00:00:00.000Z"
      },
      "valueCodeableConcept": {
        "coding": [ {
          "system": "http://snomed.info/sct",
          "code": "373066001",
          "display": "Yes (qualifier value)"
        } ]
      }
    },
    "request": {
      "method": "PUT",
      "url": "Observation/cd33f975-b52a-40c3-b4ba-c0f4e48c7bf0"
    }
  }, {
    "fullUrl": "https://madie.cms.gov/MeasureReport/34fbe84f-ca6e-4508-be46-2084fa3bdbd5",
    "resource": {
      "resourceType": "MeasureReport",
      "id": "34fbe84f-ca6e-4508-be46-2084fa3bdbd5",
      "meta": {
        "profile": [ "http://hl7.org/fhir/us/cqfmeasures/StructureDefinition/test-case-cqfm" ]
      },
      "contained": [ {
        "resourceType": "Parameters",
        "id": "750d70da-8312-4e44-863c-086880ce2d43-parameters",
        "parameter": [ {
          "name": "subject",
          "valueString": "b5f9f533-30c2-4fbe-b06e-3f8dccc8792c"
        } ]
      } ],
      "extension": [ {
        "url": "http://hl7.org/fhir/StructureDefinition/cqf-inputParameters",
        "valueReference": {
          "reference": "#750d70da-8312-4e44-863c-086880ce2d43-parameters"
        }
      }, {
        "url": "http://hl7.org/fhir/us/cqfmeasures/StructureDefinition/cqfm-testCaseDescription",
        "valueMarkdown": "Patient has hospice assessment where result is yes"
      } ],
      "modifierExtension": [ {
        "url": "http://hl7.org/fhir/us/cqfmeasures/StructureDefinition/cqfm-isTestCase",
        "valueBoolean": true
      } ],
      "status": "complete",
      "type": "individual",
      "measure": "https://madie.cms.gov/Measure/ChildhoodImmunizationStatusFHIR",
      "period": {
        "start": "2026-01-01",
        "end": "2026-12-31"
      },
      "group": [ {
        "id": "Group_1",
        "population": [ {
          "id": "InitialPopulation_1",
          "code": {
            "coding": [ {
              "system": "http://terminology.hl7.org/CodeSystem/measure-population",
              "code": "initial-population",
              "display": "Initial Population"
            } ]
          },
          "count": 1
        }, {
          "id": "Denominator_1",
          "code": {
            "coding": [ {
              "system": "http://terminology.hl7.org/CodeSystem/measure-population",
              "code": "denominator",
              "display": "Denominator"
            } ]
          },
          "count": 1
        }, {
          "id": "DenominatorExclusion_1",
          "code": {
            "coding": [ {
              "system": "http://terminology.hl7.org/CodeSystem/measure-population",
              "code": "denominator-exclusion",
              "display": "Denominator Exclusion"
            } ]
          },
          "count": 1
        }, {
          "id": "Numerator_1",
          "code": {
            "coding": [ {
              "system": "http://terminology.hl7.org/CodeSystem/measure-population",
              "code": "numerator",
              "display": "Numerator"
            } ]
          },
          "count": 0
        } ],
        "measureScore": {
          "value": 1.0
        }
      } ],
      "evaluatedResource": [ {
        "reference": "Patient/b5f9f533-30c2-4fbe-b06e-3f8dccc8792c"
      }, {
        "reference": "Encounter/063fcb6c-1dd5-4366-89eb-c070aa38b53f"
      }, {
        "reference": "Observation/cd33f975-b52a-40c3-b4ba-c0f4e48c7bf0"
      } ]
    },
    "request": {
      "method": "PUT",
      "url": "MeasureReport/34fbe84f-ca6e-4508-be46-2084fa3bdbd5"
    }
  }, {
    "fullUrl": "https://madie.cms.gov/MeasureReport/708002ad-f822-4052-a7fe-e4b468051f8f",
    "resource": {
      "resourceType": "MeasureReport",
      "id": "708002ad-f822-4052-a7fe-e4b468051f8f",
      "meta": {
        "profile": [ "http://hl7.org/fhir/us/cqfmeasures/StructureDefinition/test-case-cqfm" ]
      },
      "contained": [ {
        "resourceType": "Parameters",
        "id": "110a222b-2bff-4acb-a44b-2dc3bede579d-parameters",
        "parameter": [ {
          "name": "subject",
          "valueString": "b5f9f533-30c2-4fbe-b06e-3f8dccc8792c"
        } ]
      } ],
      "extension": [ {
        "url": "http://hl7.org/fhir/StructureDefinition/cqf-inputParameters",
        "valueReference": {
          "reference": "#110a222b-2bff-4acb-a44b-2dc3bede579d-parameters"
        }
      }, {
        "url": "http://hl7.org/fhir/us/cqfmeasures/StructureDefinition/cqfm-testCaseDescription",
        "valueMarkdown": "Patient has hospice assessment where result is yes"
      } ],
      "modifierExtension": [ {
        "url": "http://hl7.org/fhir/us/cqfmeasures/StructureDefinition/cqfm-isTestCase",
        "valueBoolean": true
      } ],
      "status": "complete",
      "type": "individual",
      "measure": "https://madie.cms.gov/Measure/CMS117FHIRChildhoodImmunizationStatus",
      "period": {
        "start": "2026-01-01",
        "end": "2026-12-31"
      },
      "group": [ {
        "id": "Group_1",
        "population": [ {
          "id": "InitialPopulation_1",
          "code": {
            "coding": [ {
              "system": "http://terminology.hl7.org/CodeSystem/measure-population",
              "code": "initial-population",
              "display": "Initial Population"
            } ]
          },
          "count": 1
        }, {
          "id": "Denominator_1",
          "code": {
            "coding": [ {
              "system": "http://terminology.hl7.org/CodeSystem/measure-population",
              "code": "denominator",
              "display": "Denominator"
            } ]
          },
          "count": 1
        }, {
          "id": "DenominatorExclusion_1",
          "code": {
            "coding": [ {
              "system": "http://terminology.hl7.org/CodeSystem/measure-population",
              "code": "denominator-exclusion",
              "display": "Denominator Exclusion"
            } ]
          },
          "count": 1
        }, {
          "id": "Numerator_1",
          "code": {
            "coding": [ {
              "system": "http://terminology.hl7.org/CodeSystem/measure-population",
              "code": "numerator",
              "display": "Numerator"
            } ]
          },
          "count": 0
        } ],
        "measureScore": {
          "value": 1.0
        }
      } ],
      "evaluatedResource": [ {
        "reference": "Patient/b5f9f533-30c2-4fbe-b06e-3f8dccc8792c"
      }, {
        "reference": "Encounter/063fcb6c-1dd5-4366-89eb-c070aa38b53f"
      }, {
        "reference": "Observation/cd33f975-b52a-40c3-b4ba-c0f4e48c7bf0"
      }, {
        "reference": "MeasureReport/34fbe84f-ca6e-4508-be46-2084fa3bdbd5"
      } ]
    },
    "request": {
      "method": "PUT",
      "url": "MeasureReport/708002ad-f822-4052-a7fe-e4b468051f8f"
    }
  } ]
}