{
  "resourceType": "Bundle",
  "id": "612e6b9302c62a011f2ee63c",
  "type": "transaction",
  "entry": [ {
    "fullUrl": "https://madie.cms.gov/Patient/91ff5f1a-cfdb-472d-b8c3-144f499d1ccc",
    "resource": {
      "resourceType": "Patient",
      "id": "91ff5f1a-cfdb-472d-b8c3-144f499d1ccc",
      "meta": {
        "profile": [ "http://hl7.org/fhir/us/qicore/StructureDefinition/qicore-patient" ]
      },
      "text": {
        "status": "generated",
        "div": "<div xmlns=\"http://www.w3.org/1999/xhtml\"><div class=\"hapiHeaderText\">PtRef_DO_GCS=1DayAFAnes <b>NUMERPASS </b></div><table class=\"hapiPropertyTable\"><tbody><tr><td>Identifier</td><td>24fc1ce85ce14557dd4d9eba17df9f17</td></tr><tr><td>Date of birth</td><td><span>02 January 1974</span></td></tr></tbody></table></div>"
      },
      "extension": [ {
        "url": "http://hl7.org/fhir/us/core/StructureDefinition/us-core-race",
        "extension": [ {
          "url": "ombCategory",
          "valueCoding": {
            "system": "urn:oid:2.16.840.1.113883.6.238",
            "code": "1002-5",
            "display": "American Indian or Alaska Native",
            "userSelected": true
          }
        }, {
          "url": "text",
          "valueString": "American Indian or Alaska Native"
        } ]
      }, {
        "url": "http://hl7.org/fhir/us/core/StructureDefinition/us-core-ethnicity",
        "extension": [ {
          "url": "ombCategory",
          "valueCoding": {
            "system": "urn:oid:2.16.840.1.113883.6.238",
            "code": "2135-2",
            "display": "Hispanic or Latino",
            "userSelected": true
          }
        }, {
          "url": "text",
          "valueString": "Hispanic or Latino"
        } ]
      } ],
      "identifier": [ {
        "type": {
          "coding": [ {
            "system": "http://terminology.hl7.org/CodeSystem/v2-0203",
            "code": "MR"
          } ]
        },
        "system": "https://bonnie-fhir.healthit.gov/",
        "value": "612e6b9302c62a011f2ee63c"
      } ],
      "active": true,
      "name": [ {
        "use": "usual",
        "family": "NUMERPass",
        "given": [ "PtRefDOIPCTaskReject" ]
      } ],
      "gender": "male",
      "birthDate": "1975-01-02"
    },
    "request": {
      "method": "PUT",
      "url": "Patient/91ff5f1a-cfdb-472d-b8c3-144f499d1ccc"
    }
  }, {
    "fullUrl": "https://madie.cms.gov/Encounter/1ebc645b-165e-4d74-9e22-3dccc4ad5f09",
    "resource": {
      "resourceType": "Encounter",
      "id": "1ebc645b-165e-4d74-9e22-3dccc4ad5f09",
      "meta": {
        "profile": [ "http://hl7.org/fhir/us/qicore/StructureDefinition/qicore-encounter" ]
      },
      "status": "finished",
      "class": {
        "system": "http://terminology.hl7.org/CodeSystem/v3-ActCode",
        "code": "IMP",
        "display": "inpatient encounter"
      },
      "type": [ {
        "coding": [ {
          "system": "http://snomed.info/sct",
          "code": "8715000"
        } ]
      } ],
      "subject": {
        "reference": "Patient/91ff5f1a-cfdb-472d-b8c3-144f499d1ccc"
      },
      "period": {
        "start": "2026-11-01T08:00:00.000+00:00",
        "end": "2026-11-26T08:15:00.000+00:00"
      },
      "length": {
        "value": 25,
        "unit": "days"
      }
    },
    "request": {
      "method": "PUT",
      "url": "Encounter/1ebc645b-165e-4d74-9e22-3dccc4ad5f09"
    }
  }, {
    "fullUrl": "https://madie.cms.gov/Coverage/69d252cd-a44a-4143-8286-757ba98ae346",
    "resource": {
      "resourceType": "Coverage",
      "id": "69d252cd-a44a-4143-8286-757ba98ae346",
      "status": "active",
      "beneficiary": {
        "reference": "Patient/91ff5f1a-cfdb-472d-b8c3-144f499d1ccc"
      },
      "period": {
        "start": "1975-01-02T08:00:00.000+00:00"
      },
      "payor": [ {
        "reference": "Organization/a24c10e5-5f39-479c-af55-28cdfce23822"
      } ]
    },
    "request": {
      "method": "PUT",
      "url": "Coverage/69d252cd-a44a-4143-8286-757ba98ae346"
    }
  }, {
    "fullUrl": "https://madie.cms.gov/Procedure/48eeb941-5b79-4d80-a87c-ecdeb389fdbb",
    "resource": {
      "resourceType": "Procedure",
      "id": "48eeb941-5b79-4d80-a87c-ecdeb389fdbb",
      "meta": {
        "profile": [ "http://hl7.org/fhir/us/qicore/StructureDefinition/qicore-procedure" ]
      },
      "extension": [ {
        "url": "http://hl7.org/fhir/us/qicore/StructureDefinition/qicore-recorded",
        "valueDateTime": "2013-11-03T13:35:00.000+00:00"
      } ],
      "status": "completed",
      "code": {
        "coding": [ {
          "system": "http://www.icd10data.com/icd10pcs",
          "code": "3E030FZ"
        }, {
          "system": "http://snomed.info/sct",
          "code": "18946005"
        } ]
      },
      "subject": {
        "reference": "Patient/91ff5f1a-cfdb-472d-b8c3-144f499d1ccc"
      },
      "performedPeriod": {
        "start": "2026-11-02T09:00:00.000+00:00",
        "end": "2026-11-02T09:15:00.000+00:00"
      }
    },
    "request": {
      "method": "PUT",
      "url": "Procedure/48eeb941-5b79-4d80-a87c-ecdeb389fdbb"
    }
  }, {
    "fullUrl": "https://madie.cms.gov/ServiceRequest/3964000e-58b4-4e54-aecc-140a08b204a5",
    "resource": {
      "resourceType": "ServiceRequest",
      "id": "3964000e-58b4-4e54-aecc-140a08b204a5",
      "meta": {
        "profile": [ "http://hl7.org/fhir/us/qicore/StructureDefinition/qicore-servicerequest" ]
      },
      "status": "active",
      "intent": "order",
      "doNotPerform": true,
      "code": {
        "coding": [ {
          "system": "http://snomed.info/sct",
          "version": "2025-03",
          "code": "428411000124104",
          "display": "Intermittent pneumatic compression boot (physical object)",
          "userSelected": true
        } ]
      },
      "subject": {
        "reference": "Patient/91ff5f1a-cfdb-472d-b8c3-144f499d1ccc"
      },
      "authoredOn": "2026-11-02T11:00:00.000+00:00"
    },
    "request": {
      "method": "PUT",
      "url": "ServiceRequest/3964000e-58b4-4e54-aecc-140a08b204a5"
    }
  }, {
    "fullUrl": "https://madie.cms.gov/Task/d47bcaee-8a8a-4745-baf1-e63510d76069",
    "resource": {
      "resourceType": "Task",
      "id": "d47bcaee-8a8a-4745-baf1-e63510d76069",
      "meta": {
        "profile": [ "http://hl7.org/fhir/us/qicore/StructureDefinition/qicore-taskrejected" ]
      },
      "status": "rejected",
      "statusReason": {
        "coding": [ {
          "system": "http://snomed.info/sct",
          "code": "443390004",
          "display": "Refusal of treatment by patient (situation)",
          "userSelected": true
        } ]
      },
      "code": {
        "coding": [ {
          "system": "http://hl7.org/fhir/CodeSystem/task-code",
          "code": "fulfill"
        } ]
      },
      "focus": {
        "reference": "ServiceRequest/3964000e-58b4-4e54-aecc-140a08b204a5"
      },
      "executionPeriod": {
        "start": "2026-11-02T11:30:00.000+00:00",
        "end": "2026-11-02T11:35:00.000+00:00"
      }
    },
    "request": {
      "method": "PUT",
      "url": "Task/d47bcaee-8a8a-4745-baf1-e63510d76069"
    }
  }, {
    "fullUrl": "https://madie.cms.gov/Organization/a24c10e5-5f39-479c-af55-28cdfce23822",
    "resource": {
      "resourceType": "Organization",
      "id": "a24c10e5-5f39-479c-af55-28cdfce23822",
      "meta": {
        "profile": [ "http://hl7.org/fhir/us/qicore/StructureDefinition/qicore-organization" ]
      },
      "identifier": [ {
        "use": "temp",
        "system": "urn:oid:2.16.840.1.113883.4.4",
        "value": "21-3259825"
      } ],
      "active": true,
      "type": [ {
        "coding": [ {
          "system": "http://terminology.hl7.org/CodeSystem/organization-type",
          "code": "pay",
          "display": "Payer"
        } ]
      } ],
      "name": "Blue Cross Blue Shield of Texas",
      "telecom": [ {
        "system": "phone",
        "value": "(+1) 972-766-6900"
      } ],
      "address": [ {
        "use": "billing",
        "type": "postal",
        "line": [ "P.O. Box 660044" ],
        "city": "Dallas",
        "state": "TX",
        "postalCode": "75266-0044",
        "country": "USA"
      } ]
    },
    "request": {
      "method": "PUT",
      "url": "Organization/a24c10e5-5f39-479c-af55-28cdfce23822"
    }
  }, {
    "fullUrl": "https://madie.cms.gov/Practitioner/632b7d70-4ab4-4a74-a498-83ce9e577c2d",
    "resource": {
      "resourceType": "Practitioner",
      "id": "632b7d70-4ab4-4a74-a498-83ce9e577c2d",
      "identifier": [ {
        "system": "http://hl7.org/fhir/sid/us-npi",
        "value": "123456"
      } ],
      "name": [ {
        "family": "Evil",
        "prefix": [ "Dr" ]
      } ]
    },
    "request": {
      "method": "PUT",
      "url": "Practitioner/632b7d70-4ab4-4a74-a498-83ce9e577c2d"
    }
  }, {
    "fullUrl": "https://madie.cms.gov/MeasureReport/14b1bec1-5e5a-435d-9f29-262c65fe976c",
    "resource": {
      "resourceType": "MeasureReport",
      "id": "14b1bec1-5e5a-435d-9f29-262c65fe976c",
      "meta": {
        "profile": [ "http://hl7.org/fhir/us/cqfmeasures/StructureDefinition/test-case-cqfm" ]
      },
      "contained": [ {
        "resourceType": "Parameters",
        "id": "618355ba-a47f-4e80-be89-22282ef593c7-parameters",
        "parameter": [ {
          "name": "subject",
          "valueString": "91ff5f1a-cfdb-472d-b8c3-144f499d1ccc"
        } ]
      } ],
      "extension": [ {
        "url": "http://hl7.org/fhir/StructureDefinition/cqf-inputParameters",
        "valueReference": {
          "reference": "#618355ba-a47f-4e80-be89-22282ef593c7-parameters"
        }
      }, {
        "url": "http://hl7.org/fhir/us/cqfmeasures/StructureDefinition/cqfm-testCaseDescription",
        "valueMarkdown": "patient refused IPC order  rejected on 1 day after start of IP encounter and same day with Aneth\n"
      } ],
      "modifierExtension": [ {
        "url": "http://hl7.org/fhir/us/cqfmeasures/StructureDefinition/cqfm-isTestCase",
        "valueBoolean": true
      } ],
      "status": "complete",
      "type": "individual",
      "measure": "https://madie.cms.gov/Measure/CMS108FHIRVTEProphylaxis",
      "period": {
        "start": "2026-01-01",
        "end": "2026-12-31"
      },
      "group": [ {
        "id": "Group_1",
        "population": [ {
          "id": "InitialPopulation_1",
          "code": {
            "coding": [ {
              "system": "http://terminology.hl7.org/CodeSystem/measure-population",
              "code": "initial-population",
              "display": "Initial Population"
            } ]
          },
          "count": 1
        }, {
          "id": "Denominator_1",
          "code": {
            "coding": [ {
              "system": "http://terminology.hl7.org/CodeSystem/measure-population",
              "code": "denominator",
              "display": "Denominator"
            } ]
          },
          "count": 1
        }, {
          "id": "DenominatorExclusion_1",
          "code": {
            "coding": [ {
              "system": "http://terminology.hl7.org/CodeSystem/measure-population",
              "code": "denominator-exclusion",
              "display": "Denominator Exclusion"
            } ]
          },
          "count": 0
        }, {
          "id": "Numerator_1",
          "code": {
            "coding": [ {
              "system": "http://terminology.hl7.org/CodeSystem/measure-population",
              "code": "numerator",
              "display": "Numerator"
            } ]
          },
          "count": 1
        } ],
        "measureScore": {
          "value": 0.0
        }
      } ],
      "evaluatedResource": [ {
        "reference": "Patient/91ff5f1a-cfdb-472d-b8c3-144f499d1ccc"
      }, {
        "reference": "Encounter/1ebc645b-165e-4d74-9e22-3dccc4ad5f09"
      }, {
        "reference": "Coverage/69d252cd-a44a-4143-8286-757ba98ae346"
      }, {
        "reference": "Procedure/48eeb941-5b79-4d80-a87c-ecdeb389fdbb"
      }, {
        "reference": "ServiceRequest/3964000e-58b4-4e54-aecc-140a08b204a5"
      }, {
        "reference": "Task/d47bcaee-8a8a-4745-baf1-e63510d76069"
      }, {
        "reference": "Organization/a24c10e5-5f39-479c-af55-28cdfce23822"
      }, {
        "reference": "Practitioner/632b7d70-4ab4-4a74-a498-83ce9e577c2d"
      } ]
    },
    "request": {
      "method": "PUT",
      "url": "MeasureReport/14b1bec1-5e5a-435d-9f29-262c65fe976c"
    }
  } ]
}