{
    "entry": [
        {
            "request": {
                "method": "PUT",
                "url": "Patient/296d38e4-d69b-481e-a8cf-f7eee8b9e5d7"
            },
            "resource": {
                "identifier": [{
                    "system": "https://bonnie-fhir.healthit.gov/",
                    "type": {"coding": [{
                        "system": "http://terminology.hl7.org/CodeSystem/v2-0203",
                        "code": "MR"
                    }]},
                    "value": "628d4fa9786e3aa8c68d3cd4"
                }],
                "extension": [
                    {
                        "extension": [
                            {
                                "valueCoding": {
                                    "system": "urn:oid:2.16.840.1.113883.6.238",
                                    "code": "2054-5",
                                    "userSelected": true,
                                    "display": "Black or African American"
                                },
                                "url": "ombCategory"
                            },
                            {
                                "valueString": "Black or African American",
                                "url": "text"
                            }
                        ],
                        "url": "http://hl7.org/fhir/us/core/StructureDefinition/us-core-race"
                    },
                    {
                        "extension": [
                            {
                                "valueCoding": {
                                    "system": "urn:oid:2.16.840.1.113883.6.238",
                                    "code": "2186-5",
                                    "userSelected": true,
                                    "display": "Not Hispanic or Latino"
                                },
                                "url": "ombCategory"
                            },
                            {
                                "valueString": "Not Hispanic or Latino",
                                "url": "text"
                            }
                        ],
                        "url": "http://hl7.org/fhir/us/core/StructureDefinition/us-core-ethnicity"
                    }
                ],
                "gender": "female",
                "meta": {"profile": ["http://hl7.org/fhir/us/qicore/StructureDefinition/qicore-patient"]},
                "name": [{
                    "given": ["Age18HasEnc"],
                    "family": "IPPPass"
                }],
                "id": "296d38e4-d69b-481e-a8cf-f7eee8b9e5d7",
                "birthDate": "2006-12-31",
                "resourceType": "Patient"
            },
            "fullUrl": "https://madie.cms.gov/Patient/296d38e4-d69b-481e-a8cf-f7eee8b9e5d7"
        },
        {
            "request": {
                "method": "PUT",
                "url": "Encounter/89e1995e-3582-454d-aa06-d6e35f146c25"
            },
            "resource": {
                "period": {
                    "start": "2026-12-31T08:01:00.000+00:00",
                    "end": "2026-12-31T08:15:00.000+00:00"
                },
                "meta": {"profile": ["http://hl7.org/fhir/us/qicore/StructureDefinition/qicore-encounter"]},
                "subject": {"reference": "Patient/296d38e4-d69b-481e-a8cf-f7eee8b9e5d7"},
                "id": "89e1995e-3582-454d-aa06-d6e35f146c25",
                "type": [{"coding": [{
                    "system": "http://snomed.info/sct",
                    "code": "103705002",
                    "userSelected": true,
                    "display": "Patient status observation (procedure)",
                    "version": "2022-03"
                }]}],
                "class": {
                    "system": "http://terminology.hl7.org/CodeSystem/v3-ActCode",
                    "code": "AMB",
                    "display": "ambulatory"
                },
                "resourceType": "Encounter",
                "status": "finished"
            },
            "fullUrl": "https://madie.cms.gov/Encounter/89e1995e-3582-454d-aa06-d6e35f146c25"
        },
        {
            "request": {
                "method": "PUT",
                "url": "Coverage/ce86a3df-13b5-4495-b23a-9834dae62aca"
            },
            "resource": {
                "payor": [{"reference": "Organization/5ee110d4-e6e0-4136-b4e0-a79d2943c846"}],
                "beneficiary": {"reference": "Patient/296d38e4-d69b-481e-a8cf-f7eee8b9e5d7"},
                "meta": {"profile": ["http://hl7.org/fhir/us/qicore/StructureDefinition/qicore-coverage"]},
                "id": "ce86a3df-13b5-4495-b23a-9834dae62aca",
                "resourceType": "Coverage",
                "status": "active"
            },
            "fullUrl": "https://madie.cms.gov/Coverage/ce86a3df-13b5-4495-b23a-9834dae62aca"
        },
        {
            "request": {
                "method": "PUT",
                "url": "Organization/5ee110d4-e6e0-4136-b4e0-a79d2943c846"
            },
            "resource": {
                "identifier": [{
                    "system": "urn:oid:2.16.840.1.113883.4.4",
                    "use": "temp",
                    "value": "21-3259825"
                }],
                "address": [{
                    "country": "USA",
                    "city": "Dallas",
                    "use": "billing",
                    "line": ["P.O. Box 660044"],
                    "postalCode": "75266-0044",
                    "state": "TX",
                    "type": "postal"
                }],
                "meta": {"profile": ["http://hl7.org/fhir/us/qicore/StructureDefinition/qicore-organization"]},
                "name": "Blue Cross Blue Shield of Texas",
                "active": true,
                "telecom": [{
                    "system": "phone",
                    "value": "(+1) 972-766-6900"
                }],
                "id": "5ee110d4-e6e0-4136-b4e0-a79d2943c846",
                "type": [{"coding": [{
                    "system": "http://terminology.hl7.org/CodeSystem/organization-type",
                    "code": "pay",
                    "display": "Payer"
                }]}],
                "resourceType": "Organization"
            },
            "fullUrl": "https://madie.cms.gov/Organization/5ee110d4-e6e0-4136-b4e0-a79d2943c846"
        },
        {
            "request": {
                "method": "PUT",
                "url": "Practitioner/ea323fa9-872a-4e2e-a362-70baf5e79bb5"
            },
            "resource": {
                "identifier": [{
                    "system": "http://hl7.org/fhir/sid/us-npi",
                    "value": "123456"
                }],
                "meta": {"profile": ["http://hl7.org/fhir/us/qicore/StructureDefinition/qicore-practitioner"]},
                "name": [{
                    "prefix": ["Dr"],
                    "family": "Evil"
                }],
                "id": "ea323fa9-872a-4e2e-a362-70baf5e79bb5",
                "resourceType": "Practitioner"
            },
            "fullUrl": "https://madie.cms.gov/Practitioner/ea323fa9-872a-4e2e-a362-70baf5e79bb5"
        },
        {
            "request": {
                "method": "PUT",
                "url": "MeasureReport/0b596e23-14f5-49af-8ea0-8aefa4946025"
            },
            "resource": {
                "contained": [{
                    "parameter": [{
                        "valueString": "296d38e4-d69b-481e-a8cf-f7eee8b9e5d7",
                        "name": "subject"
                    }],
                    "id": "93d59099-0ab9-4865-93ae-496d1e0ef364-parameters",
                    "resourceType": "Parameters"
                }],
                "extension": [
                    {
                        "valueReference": {"reference": "#93d59099-0ab9-4865-93ae-496d1e0ef364-parameters"},
                        "url": "http://hl7.org/fhir/StructureDefinition/cqf-inputParameters"
                    },
                    {
                        "valueMarkdown": "Age 18 at start of MP and encounter last day of MP",
                        "url": "http://hl7.org/fhir/us/cqfmeasures/StructureDefinition/cqfm-testCaseDescription"
                    }
                ],
                "period": {
                    "start": "2026-01-01",
                    "end": "2026-12-31"
                },
                "measure": "https://madie.cms.gov/Measure/CMS22FHIRPCSBPScreeningFollowUp",
                "meta": {"profile": ["http://hl7.org/fhir/us/cqfmeasures/StructureDefinition/test-case-cqfm"]},
                "modifierExtension": [{
                    "valueBoolean": true,
                    "url": "http://hl7.org/fhir/us/cqfmeasures/StructureDefinition/cqfm-isTestCase"
                }],
                "id": "0b596e23-14f5-49af-8ea0-8aefa4946025",
                "evaluatedResource": [
                    {"reference": "Patient/296d38e4-d69b-481e-a8cf-f7eee8b9e5d7"},
                    {"reference": "Encounter/89e1995e-3582-454d-aa06-d6e35f146c25"},
                    {"reference": "Coverage/ce86a3df-13b5-4495-b23a-9834dae62aca"},
                    {"reference": "Organization/5ee110d4-e6e0-4136-b4e0-a79d2943c846"},
                    {"reference": "Practitioner/ea323fa9-872a-4e2e-a362-70baf5e79bb5"}
                ],
                "type": "individual",
                "resourceType": "MeasureReport",
                "status": "complete",
                "group": [{
                    "id": "Group_1",
                    "measureScore": {"value": 0},
                    "population": [
                        {
                            "code": {"coding": [{
                                "system": "http://terminology.hl7.org/CodeSystem/measure-population",
                                "code": "initial-population",
                                "display": "Initial Population"
                            }]},
                            "count": 1,
                            "id": "InitialPopulation_1"
                        },
                        {
                            "code": {"coding": [{
                                "system": "http://terminology.hl7.org/CodeSystem/measure-population",
                                "code": "denominator",
                                "display": "Denominator"
                            }]},
                            "count": 1,
                            "id": "Denominator_1"
                        },
                        {
                            "code": {"coding": [{
                                "system": "http://terminology.hl7.org/CodeSystem/measure-population",
                                "code": "denominator-exclusion",
                                "display": "Denominator Exclusion"
                            }]},
                            "count": 0,
                            "id": "DenominatorExclusion_1"
                        },
                        {
                            "code": {"coding": [{
                                "system": "http://terminology.hl7.org/CodeSystem/measure-population",
                                "code": "numerator",
                                "display": "Numerator"
                            }]},
                            "count": 0,
                            "id": "Numerator_1"
                        },
                        {
                            "code": {"coding": [{
                                "system": "http://terminology.hl7.org/CodeSystem/measure-population",
                                "code": "denominator-exception",
                                "display": "Denominator Exception"
                            }]},
                            "count": 0,
                            "id": "DenominatorException_1"
                        }
                    ]
                }]
            },
            "fullUrl": "https://madie.cms.gov/MeasureReport/0b596e23-14f5-49af-8ea0-8aefa4946025"
        }
    ],
    "id": "628d4fa9786e3aa8c68d3cd4",
    "type": "transaction",
    "resourceType": "Bundle"
}