{"resourceType":"Bundle","id":"tests-f2e2e1c0-9e35-4592-9579-72a236cb2f56-bundle","type":"transaction","entry":[{"resource":{"resourceType":"MeasureReport","id":"66660362-b98c-4dc4-a4cb-fc2e5864d155","meta":{"profile":["http://hl7.org/fhir/us/cqfmeasures/StructureDefinition/test-case-cqfm"]},"contained":[{"resourceType":"Parameters","id":"acf673b0-ddb1-48ca-96a4-278bd8d3d344-parameters","parameter":[{"name":"subject","valueString":"f2e2e1c0-9e35-4592-9579-72a236cb2f56"}]}],"extension":[{"url":"http://hl7.org/fhir/StructureDefinition/cqf-inputParameters","valueReference":{"reference":"#acf673b0-ddb1-48ca-96a4-278bd8d3d344-parameters"}},{"url":"http://hl7.org/fhir/us/cqfmeasures/StructureDefinition/cqfm-testCaseDescription","valueMarkdown":"Qualifying encounter (status finished) during MP Medications not documented during encounter period status equal to rejected and reason code in Medical reason"}],"modifierExtension":[{"url":"http://hl7.org/fhir/us/cqfmeasures/StructureDefinition/cqfm-isTestCase","valueBoolean":true}],"status":"complete","type":"individual","measure":"https://madie.cms.gov/Measure/CMS68FHIRDocumentationofCurrentMedications","period":{"start":"2026-01-01","end":"2026-12-31"},"group":[{"id":"Group_1","population":[{"id":"InitialPopulation_1","code":{"coding":[{"system":"http://terminology.hl7.org/CodeSystem/measure-population","code":"initial-population","display":"Initial Population"}]},"count":1},{"id":"Denominator_1","code":{"coding":[{"system":"http://terminology.hl7.org/CodeSystem/measure-population","code":"denominator","display":"Denominator"}]},"count":1},{"id":"Numerator_1","code":{"coding":[{"system":"http://terminology.hl7.org/CodeSystem/measure-population","code":"numerator","display":"Numerator"}]},"count":0},{"id":"DenominatorException_1","code":{"coding":[{"system":"http://terminology.hl7.org/CodeSystem/measure-population","code":"denominator-exception","display":"Denominator Exception"}]},"count":1}],"measureScore":{"value":0.0}}],"evaluatedResource":[{"reference":"Patient/f2e2e1c0-9e35-4592-9579-72a236cb2f56"},{"reference":"Encounter/de23e39d-ed08-4bcb-821f-30cad2f32e39"},{"reference":"Procedure/081c2848-b2ac-426f-babb-e109660dd403"}]},"request":{"method":"PUT","url":"MeasureReport/66660362-b98c-4dc4-a4cb-fc2e5864d155"}},{"resource":{"resourceType":"Encounter","id":"de23e39d-ed08-4bcb-821f-30cad2f32e39","meta":{"profile":["http://hl7.org/fhir/us/qicore/StructureDefinition/qicore-encounter"]},"status":"finished","class":{"system":"http://terminology.hl7.org/CodeSystem/v3-ActCode","code":"IMP","display":"inpatient encounter"},"type":[{"coding":[{"system":"http://snomed.info/sct","version":"2022-03","code":"10197000","display":"Psychiatric interview and evaluation (procedure)","userSelected":true}]}],"subject":{"reference":"Patient/f2e2e1c0-9e35-4592-9579-72a236cb2f56"},"period":{"start":"2026-08-04T08:00:00.000+00:00","end":"2026-08-04T09:15:00.000+00:00"}},"request":{"method":"PUT","url":"Encounter/de23e39d-ed08-4bcb-821f-30cad2f32e39"}},{"resource":{"resourceType":"Patient","id":"f2e2e1c0-9e35-4592-9579-72a236cb2f56","meta":{"profile":["http://hl7.org/fhir/us/qicore/StructureDefinition/qicore-patient"]},"extension":[{"url":"http://hl7.org/fhir/us/core/StructureDefinition/us-core-race","extension":[{"url":"ombCategory","valueCoding":{"system":"urn:oid:2.16.840.1.113883.6.238","code":"1002-5","display":"American Indian or Alaska Native","userSelected":true}},{"url":"text","valueString":"American Indian or Alaska Native"}]},{"url":"http://hl7.org/fhir/us/core/StructureDefinition/us-core-ethnicity","extension":[{"url":"ombCategory","valueCoding":{"system":"urn:oid:2.16.840.1.113883.6.238","code":"2135-2","display":"Hispanic or Latino","userSelected":true}},{"url":"text","valueString":"Hispanic or Latino"}]}],"identifier":[{"type":{"coding":[{"system":"http://terminology.hl7.org/CodeSystem/v2-0203","code":"MR"}]},"system":"https://bonnie-fhir.healthit.gov/","value":"62ec389311a78d0ca7dcb4b9"}],"name":[{"family":"DENEXCEPPass","given":["MedNoDocStatusRejectedWithReasonCode"]}],"gender":"unknown","birthDate":"2008-01-01"},"request":{"method":"PUT","url":"Patient/f2e2e1c0-9e35-4592-9579-72a236cb2f56"}},{"resource":{"resourceType":"Bundle","id":"62ec389311a78d0ca7dcb4b9","type":"transaction","entry":[{"fullUrl":"https://madie.cms.gov/Patient/f2e2e1c0-9e35-4592-9579-72a236cb2f56","resource":{"resourceType":"Patient","id":"f2e2e1c0-9e35-4592-9579-72a236cb2f56","meta":{"profile":["http://hl7.org/fhir/us/qicore/StructureDefinition/qicore-patient"]},"extension":[{"url":"http://hl7.org/fhir/us/core/StructureDefinition/us-core-race","extension":[{"url":"ombCategory","valueCoding":{"system":"urn:oid:2.16.840.1.113883.6.238","code":"1002-5","display":"American Indian or Alaska Native","userSelected":true}},{"url":"text","valueString":"American Indian or Alaska Native"}]},{"url":"http://hl7.org/fhir/us/core/StructureDefinition/us-core-ethnicity","extension":[{"url":"ombCategory","valueCoding":{"system":"urn:oid:2.16.840.1.113883.6.238","code":"2135-2","display":"Hispanic or Latino","userSelected":true}},{"url":"text","valueString":"Hispanic or Latino"}]}],"identifier":[{"type":{"coding":[{"system":"http://terminology.hl7.org/CodeSystem/v2-0203","code":"MR"}]},"system":"https://bonnie-fhir.healthit.gov/","value":"62ec389311a78d0ca7dcb4b9"}],"name":[{"family":"DENEXCEPPass","given":["MedNoDocStatusRejectedWithReasonCode"]}],"gender":"unknown","birthDate":"2008-01-01"},"request":{"method":"PUT","url":"Patient/f2e2e1c0-9e35-4592-9579-72a236cb2f56"}},{"fullUrl":"https://madie.cms.gov/Encounter/de23e39d-ed08-4bcb-821f-30cad2f32e39","resource":{"resourceType":"Encounter","id":"de23e39d-ed08-4bcb-821f-30cad2f32e39","meta":{"profile":["http://hl7.org/fhir/us/qicore/StructureDefinition/qicore-encounter"]},"status":"finished","class":{"system":"http://terminology.hl7.org/CodeSystem/v3-ActCode","code":"IMP","display":"inpatient encounter"},"type":[{"coding":[{"system":"http://snomed.info/sct","version":"2022-03","code":"10197000","display":"Psychiatric interview and evaluation (procedure)","userSelected":true}]}],"subject":{"reference":"Patient/f2e2e1c0-9e35-4592-9579-72a236cb2f56"},"period":{"start":"2026-08-04T08:00:00.000+00:00","end":"2026-08-04T09:15:00.000+00:00"}},"request":{"method":"PUT","url":"Encounter/de23e39d-ed08-4bcb-821f-30cad2f32e39"}},{"fullUrl":"https://madie.cms.gov/Procedure/081c2848-b2ac-426f-babb-e109660dd403","resource":{"resourceType":"Procedure","id":"081c2848-b2ac-426f-babb-e109660dd403","meta":{"profile":["http://hl7.org/fhir/us/qicore/StructureDefinition/qicore-procedurenotdone"]},"extension":[{"url":"http://hl7.org/fhir/us/qicore/StructureDefinition/qicore-recorded","valueDateTime":"2026-08-04T08:05:00+00:00"}],"status":"not-done","statusReason":{"coding":[{"system":"http://snomed.info/sct","code":"705016005","display":"Acute health crisis (finding)","userSelected":true}]},"code":{"coding":[{"system":"http://snomed.info/sct","code":"428191000124101","display":"Documentation of current medications (procedure)","userSelected":true}]},"subject":{"reference":"Patient/f2e2e1c0-9e35-4592-9579-72a236cb2f56"},"_performedDateTime":{"extension":[{"url":"http://hl7.org/fhir/StructureDefinition/data-absent-reason","valueCode":"not-performed"}]},"reasonCode":[{"coding":[{"system":"http://snomed.info/sct","code":"705016005","display":"Acute health crisis (finding)","userSelected":true}]}]},"request":{"method":"PUT","url":"Procedure/081c2848-b2ac-426f-babb-e109660dd403"}},{"fullUrl":"https://madie.cms.gov/MeasureReport/66660362-b98c-4dc4-a4cb-fc2e5864d155","resource":{"resourceType":"MeasureReport","id":"66660362-b98c-4dc4-a4cb-fc2e5864d155","meta":{"profile":["http://hl7.org/fhir/us/cqfmeasures/StructureDefinition/test-case-cqfm"]},"contained":[{"resourceType":"Parameters","id":"acf673b0-ddb1-48ca-96a4-278bd8d3d344-parameters","parameter":[{"name":"subject","valueString":"f2e2e1c0-9e35-4592-9579-72a236cb2f56"}]}],"extension":[{"url":"http://hl7.org/fhir/StructureDefinition/cqf-inputParameters","valueReference":{"reference":"#acf673b0-ddb1-48ca-96a4-278bd8d3d344-parameters"}},{"url":"http://hl7.org/fhir/us/cqfmeasures/StructureDefinition/cqfm-testCaseDescription","valueMarkdown":"Qualifying encounter (status finished) during MP Medications not documented during encounter period status equal to rejected and reason code in Medical reason"}],"modifierExtension":[{"url":"http://hl7.org/fhir/us/cqfmeasures/StructureDefinition/cqfm-isTestCase","valueBoolean":true}],"status":"complete","type":"individual","measure":"https://madie.cms.gov/Measure/CMS68FHIRDocumentationofCurrentMedications","period":{"start":"2026-01-01","end":"2026-12-31"},"group":[{"id":"Group_1","population":[{"id":"InitialPopulation_1","code":{"coding":[{"system":"http://terminology.hl7.org/CodeSystem/measure-population","code":"initial-population","display":"Initial Population"}]},"count":1},{"id":"Denominator_1","code":{"coding":[{"system":"http://terminology.hl7.org/CodeSystem/measure-population","code":"denominator","display":"Denominator"}]},"count":1},{"id":"Numerator_1","code":{"coding":[{"system":"http://terminology.hl7.org/CodeSystem/measure-population","code":"numerator","display":"Numerator"}]},"count":0},{"id":"DenominatorException_1","code":{"coding":[{"system":"http://terminology.hl7.org/CodeSystem/measure-population","code":"denominator-exception","display":"Denominator Exception"}]},"count":1}],"measureScore":{"value":0.0}}],"evaluatedResource":[{"reference":"Patient/f2e2e1c0-9e35-4592-9579-72a236cb2f56"},{"reference":"Encounter/de23e39d-ed08-4bcb-821f-30cad2f32e39"},{"reference":"Procedure/081c2848-b2ac-426f-babb-e109660dd403"}]},"request":{"method":"PUT","url":"MeasureReport/66660362-b98c-4dc4-a4cb-fc2e5864d155"}}]},"request":{"method":"PUT","url":"Bundle/62ec389311a78d0ca7dcb4b9"}},{"resource":{"resourceType":"Procedure","id":"081c2848-b2ac-426f-babb-e109660dd403","meta":{"profile":["http://hl7.org/fhir/us/qicore/StructureDefinition/qicore-procedurenotdone"]},"extension":[{"url":"http://hl7.org/fhir/us/qicore/StructureDefinition/qicore-recorded","valueDateTime":"2026-08-04T08:05:00+00:00"}],"status":"not-done","statusReason":{"coding":[{"system":"http://snomed.info/sct","code":"705016005","display":"Acute health crisis (finding)","userSelected":true}]},"code":{"coding":[{"system":"http://snomed.info/sct","code":"428191000124101","display":"Documentation of current medications (procedure)","userSelected":true}]},"subject":{"reference":"Patient/f2e2e1c0-9e35-4592-9579-72a236cb2f56"},"_performedDateTime":{"extension":[{"url":"http://hl7.org/fhir/StructureDefinition/data-absent-reason","valueCode":"not-performed"}]},"reasonCode":[{"coding":[{"system":"http://snomed.info/sct","code":"705016005","display":"Acute health crisis (finding)","userSelected":true}]}]},"request":{"method":"PUT","url":"Procedure/081c2848-b2ac-426f-babb-e109660dd403"}}]}