{"resourceType":"Bundle","id":"tests-3d42d9f8-0381-4562-94b7-314fcd27fae5-bundle","type":"transaction","entry":[{"fullUrl":"Encounter/d4f2c561-9af2-4db8-81e4-94684ca911a3","resource":{"resourceType":"Encounter","id":"d4f2c561-9af2-4db8-81e4-94684ca911a3","meta":{"profile":["http://hl7.org/fhir/us/qicore/StructureDefinition/qicore-encounter"]},"status":"finished","class":{"system":"http://terminology.hl7.org/CodeSystem/v3-ActCode","code":"IMP","display":"inpatient encounter"},"type":[{"coding":[{"system":"http://snomed.info/sct","version":"2022-03","code":"10197000","display":"Psychiatric interview and evaluation (procedure)","userSelected":true}]}],"subject":{"reference":"Patient/3d42d9f8-0381-4562-94b7-314fcd27fae5"},"period":{"start":"2026-08-04T08:00:00.000+00:00","end":"2026-08-04T09:15:00.000+00:00"}},"request":{"method":"PUT","url":"Encounter/d4f2c561-9af2-4db8-81e4-94684ca911a3"}},{"fullUrl":"Bundle/62ec37fb11a78d0ca7dcb4b8","resource":{"resourceType":"Bundle","id":"62ec37fb11a78d0ca7dcb4b8","type":"transaction","entry":[{"fullUrl":"https://madie.cms.gov/Patient/3d42d9f8-0381-4562-94b7-314fcd27fae5","resource":{"resourceType":"Patient","id":"3d42d9f8-0381-4562-94b7-314fcd27fae5","meta":{"profile":["http://hl7.org/fhir/us/qicore/StructureDefinition/qicore-patient"]},"extension":[{"url":"http://hl7.org/fhir/us/core/StructureDefinition/us-core-race","extension":[{"url":"ombCategory","valueCoding":{"system":"urn:oid:2.16.840.1.113883.6.238","code":"1002-5","display":"American Indian or Alaska Native","userSelected":true}},{"url":"text","valueString":"American Indian or Alaska Native"}]},{"url":"http://hl7.org/fhir/us/core/StructureDefinition/us-core-ethnicity","extension":[{"url":"ombCategory","valueCoding":{"system":"urn:oid:2.16.840.1.113883.6.238","code":"2135-2","display":"Hispanic or Latino","userSelected":true}},{"url":"text","valueString":"Hispanic or Latino"}]}],"identifier":[{"type":{"coding":[{"system":"http://terminology.hl7.org/CodeSystem/v2-0203","code":"MR"}]},"system":"https://bonnie-fhir.healthit.gov/","value":"62ec37fb11a78d0ca7dcb4b8"}],"name":[{"family":"DENEXCEPFail","given":["MedNoDocStatusRejectedNoReason"]}],"gender":"unknown","birthDate":"2008-01-01"},"request":{"method":"PUT","url":"Patient/3d42d9f8-0381-4562-94b7-314fcd27fae5"}},{"fullUrl":"https://madie.cms.gov/Encounter/d4f2c561-9af2-4db8-81e4-94684ca911a3","resource":{"resourceType":"Encounter","id":"d4f2c561-9af2-4db8-81e4-94684ca911a3","meta":{"profile":["http://hl7.org/fhir/us/qicore/StructureDefinition/qicore-encounter"]},"status":"finished","class":{"system":"http://terminology.hl7.org/CodeSystem/v3-ActCode","code":"IMP","display":"inpatient encounter"},"type":[{"coding":[{"system":"http://snomed.info/sct","version":"2022-03","code":"10197000","display":"Psychiatric interview and evaluation (procedure)","userSelected":true}]}],"subject":{"reference":"Patient/3d42d9f8-0381-4562-94b7-314fcd27fae5"},"period":{"start":"2026-08-04T08:00:00.000+00:00","end":"2026-08-04T09:15:00.000+00:00"}},"request":{"method":"PUT","url":"Encounter/d4f2c561-9af2-4db8-81e4-94684ca911a3"}},{"fullUrl":"https://madie.cms.gov/Task/7e4785aa-78e9-4500-b527-593edf5cc6ef","resource":{"resourceType":"Task","id":"7e4785aa-78e9-4500-b527-593edf5cc6ef","meta":{"profile":["http://hl7.org/fhir/us/qicore/StructureDefinition/qicore-tasknotdone"]},"identifier":[{"use":"official","system":"http:/goodhealth.org/identifiers","value":"20170201-002"}],"status":"rejected","statusReason":{"coding":[{"system":"http://snomed.info/sct","code":"183932001","display":"Procedure contraindictated (situation)","userSelected":true}]},"intent":"proposal","priority":"routine","code":{"coding":[{"system":"http://snomed.info/sct","code":"428191000124101","display":"Documentation of current medications (procedure)","userSelected":true}]},"focus":{"reference":"Patient/3d42d9f8-0381-4562-94b7-314fcd27fae5"},"for":{"reference":"Patient/3d42d9f8-0381-4562-94b7-314fcd27fae5"},"executionPeriod":{"start":"2026-08-01T08:45:00+10:00","end":"2026-08-01T08:45:00.000+00:00"},"reasonCode":{"coding":[{"system":"http://snomed.info/sct","code":"0","display":"No Reason","userSelected":true}]}},"request":{"method":"PUT","url":"Task/7e4785aa-78e9-4500-b527-593edf5cc6ef"}},{"fullUrl":"https://madie.cms.gov/MeasureReport/be9ba9ae-8446-44a3-9dcb-2c94af3d5e15","resource":{"resourceType":"MeasureReport","id":"be9ba9ae-8446-44a3-9dcb-2c94af3d5e15","meta":{"profile":["http://hl7.org/fhir/us/cqfmeasures/StructureDefinition/test-case-cqfm"]},"contained":[{"resourceType":"Parameters","id":"4e8213c1-f61b-49cb-b0e0-65d0dc2075c1-parameters","parameter":[{"name":"subject","valueString":"3d42d9f8-0381-4562-94b7-314fcd27fae5"}]}],"extension":[{"url":"http://hl7.org/fhir/StructureDefinition/cqf-inputParameters","valueReference":{"reference":"#4e8213c1-f61b-49cb-b0e0-65d0dc2075c1-parameters"}},{"url":"http://hl7.org/fhir/us/cqfmeasures/StructureDefinition/cqfm-testCaseDescription","valueMarkdown":"Qualifying encounter (status finished) during MP Medications not documented during encounter period status equal to rejected and No reason code"}],"modifierExtension":[{"url":"http://hl7.org/fhir/us/cqfmeasures/StructureDefinition/cqfm-isTestCase","valueBoolean":true}],"status":"complete","type":"individual","measure":"https://madie.cms.gov/Measure/CMS68FHIRDocumentationofCurrentMedications","period":{"start":"2026-01-01","end":"2026-12-31"},"group":[{"id":"Group_1","population":[{"id":"InitialPopulation_1","code":{"coding":[{"system":"http://terminology.hl7.org/CodeSystem/measure-population","code":"initial-population","display":"Initial Population"}]},"count":1},{"id":"Denominator_1","code":{"coding":[{"system":"http://terminology.hl7.org/CodeSystem/measure-population","code":"denominator","display":"Denominator"}]},"count":1},{"id":"Numerator_1","code":{"coding":[{"system":"http://terminology.hl7.org/CodeSystem/measure-population","code":"numerator","display":"Numerator"}]},"count":0},{"id":"DenominatorException_1","code":{"coding":[{"system":"http://terminology.hl7.org/CodeSystem/measure-population","code":"denominator-exception","display":"Denominator Exception"}]},"count":0}],"measureScore":{"value":0.0}}],"evaluatedResource":[{"reference":"Patient/3d42d9f8-0381-4562-94b7-314fcd27fae5"},{"reference":"Encounter/d4f2c561-9af2-4db8-81e4-94684ca911a3"},{"reference":"Task/7e4785aa-78e9-4500-b527-593edf5cc6ef"}]},"request":{"method":"PUT","url":"MeasureReport/be9ba9ae-8446-44a3-9dcb-2c94af3d5e15"}}]},"request":{"method":"PUT","url":"Bundle/62ec37fb11a78d0ca7dcb4b8"}},{"fullUrl":"Patient/3d42d9f8-0381-4562-94b7-314fcd27fae5","resource":{"resourceType":"Patient","id":"3d42d9f8-0381-4562-94b7-314fcd27fae5","meta":{"profile":["http://hl7.org/fhir/us/qicore/StructureDefinition/qicore-patient"]},"extension":[{"url":"http://hl7.org/fhir/us/core/StructureDefinition/us-core-race","extension":[{"url":"ombCategory","valueCoding":{"system":"urn:oid:2.16.840.1.113883.6.238","code":"1002-5","display":"American Indian or Alaska Native","userSelected":true}},{"url":"text","valueString":"American Indian or Alaska Native"}]},{"url":"http://hl7.org/fhir/us/core/StructureDefinition/us-core-ethnicity","extension":[{"url":"ombCategory","valueCoding":{"system":"urn:oid:2.16.840.1.113883.6.238","code":"2135-2","display":"Hispanic or Latino","userSelected":true}},{"url":"text","valueString":"Hispanic or Latino"}]}],"identifier":[{"type":{"coding":[{"system":"http://terminology.hl7.org/CodeSystem/v2-0203","code":"MR"}]},"system":"https://bonnie-fhir.healthit.gov/","value":"62ec37fb11a78d0ca7dcb4b8"}],"name":[{"family":"DENEXCEPFail","given":["MedNoDocStatusRejectedNoReason"]}],"gender":"unknown","birthDate":"2008-01-01"},"request":{"method":"PUT","url":"Patient/3d42d9f8-0381-4562-94b7-314fcd27fae5"}},{"fullUrl":"Task/7e4785aa-78e9-4500-b527-593edf5cc6ef","resource":{"resourceType":"Task","id":"7e4785aa-78e9-4500-b527-593edf5cc6ef","meta":{"profile":["http://hl7.org/fhir/us/qicore/StructureDefinition/qicore-tasknotdone"]},"identifier":[{"use":"official","system":"http:/goodhealth.org/identifiers","value":"20170201-002"}],"status":"rejected","statusReason":{"coding":[{"system":"http://snomed.info/sct","code":"183932001","display":"Procedure contraindictated (situation)","userSelected":true}]},"intent":"proposal","priority":"routine","code":{"coding":[{"system":"http://snomed.info/sct","code":"428191000124101","display":"Documentation of current medications (procedure)","userSelected":true}]},"focus":{"reference":"Patient/3d42d9f8-0381-4562-94b7-314fcd27fae5"},"for":{"reference":"Patient/3d42d9f8-0381-4562-94b7-314fcd27fae5"},"executionPeriod":{"start":"2026-08-01T08:45:00+10:00","end":"2026-08-01T08:45:00.000+00:00"},"reasonCode":{"coding":[{"system":"http://snomed.info/sct","code":"0","display":"No Reason","userSelected":true}]}},"request":{"method":"PUT","url":"Task/7e4785aa-78e9-4500-b527-593edf5cc6ef"}},{"fullUrl":"MeasureReport/be9ba9ae-8446-44a3-9dcb-2c94af3d5e15","resource":{"resourceType":"MeasureReport","id":"be9ba9ae-8446-44a3-9dcb-2c94af3d5e15","meta":{"profile":["http://hl7.org/fhir/us/cqfmeasures/StructureDefinition/test-case-cqfm"]},"contained":[{"resourceType":"Parameters","id":"4e8213c1-f61b-49cb-b0e0-65d0dc2075c1-parameters","parameter":[{"name":"subject","valueString":"3d42d9f8-0381-4562-94b7-314fcd27fae5"}]}],"extension":[{"url":"http://hl7.org/fhir/StructureDefinition/cqf-inputParameters","valueReference":{"reference":"#4e8213c1-f61b-49cb-b0e0-65d0dc2075c1-parameters"}},{"url":"http://hl7.org/fhir/us/cqfmeasures/StructureDefinition/cqfm-testCaseDescription","valueMarkdown":"Qualifying encounter (status finished) during MP Medications not documented during encounter period status equal to rejected and No reason code"}],"modifierExtension":[{"url":"http://hl7.org/fhir/us/cqfmeasures/StructureDefinition/cqfm-isTestCase","valueBoolean":true}],"status":"complete","type":"individual","measure":"https://madie.cms.gov/Measure/CMS68FHIRDocumentationofCurrentMedications","period":{"start":"2026-01-01","end":"2026-12-31"},"group":[{"id":"Group_1","population":[{"id":"InitialPopulation_1","code":{"coding":[{"system":"http://terminology.hl7.org/CodeSystem/measure-population","code":"initial-population","display":"Initial Population"}]},"count":1},{"id":"Denominator_1","code":{"coding":[{"system":"http://terminology.hl7.org/CodeSystem/measure-population","code":"denominator","display":"Denominator"}]},"count":1},{"id":"Numerator_1","code":{"coding":[{"system":"http://terminology.hl7.org/CodeSystem/measure-population","code":"numerator","display":"Numerator"}]},"count":0},{"id":"DenominatorException_1","code":{"coding":[{"system":"http://terminology.hl7.org/CodeSystem/measure-population","code":"denominator-exception","display":"Denominator Exception"}]},"count":0}],"measureScore":{"value":0.0}}],"evaluatedResource":[{"reference":"Patient/3d42d9f8-0381-4562-94b7-314fcd27fae5"},{"reference":"Encounter/d4f2c561-9af2-4db8-81e4-94684ca911a3"},{"reference":"Task/7e4785aa-78e9-4500-b527-593edf5cc6ef"}]},"request":{"method":"PUT","url":"MeasureReport/be9ba9ae-8446-44a3-9dcb-2c94af3d5e15"}}]}