{"resourceType":"Bundle","id":"tests-4ce081ec-bc42-44c6-bfbb-ad853903e3d1-bundle","type":"transaction","entry":[{"resource":{"resourceType":"Patient","id":"4ce081ec-bc42-44c6-bfbb-ad853903e3d1","meta":{"profile":["http://hl7.org/fhir/us/qicore/StructureDefinition/qicore-patient"]},"extension":[{"url":"http://hl7.org/fhir/us/core/StructureDefinition/us-core-race","extension":[{"url":"ombCategory","valueCoding":{"system":"urn:oid:2.16.840.1.113883.6.238","code":"1002-5","display":"American Indian or Alaska Native","userSelected":true}},{"url":"text","valueString":"American Indian or Alaska Native"}]},{"url":"http://hl7.org/fhir/us/core/StructureDefinition/us-core-ethnicity","extension":[{"url":"ombCategory","valueCoding":{"system":"urn:oid:2.16.840.1.113883.6.238","code":"2135-2","display":"Hispanic or Latino","userSelected":true}},{"url":"text","valueString":"Hispanic or Latino"}]}],"identifier":[{"type":{"coding":[{"system":"http://terminology.hl7.org/CodeSystem/v2-0203","code":"MR"}]},"system":"https://bonnie-fhir.healthit.gov/","value":"62ec3309ea03a4ebacd6a08c"}],"name":[{"family":"DENEXCEPFail","given":["MedNoDocStatusNotRejected"]}],"gender":"unknown","birthDate":"2008-01-01"},"request":{"method":"PUT","url":"Patient/4ce081ec-bc42-44c6-bfbb-ad853903e3d1"}},{"resource":{"resourceType":"MeasureReport","id":"6f5a8ad5-6c78-4534-84f3-a95f3c40665b","meta":{"profile":["http://hl7.org/fhir/us/cqfmeasures/StructureDefinition/test-case-cqfm"]},"contained":[{"resourceType":"Parameters","id":"15af1422-60c8-4442-b54b-1a4858e2bed4-parameters","parameter":[{"name":"subject","valueString":"4ce081ec-bc42-44c6-bfbb-ad853903e3d1"}]}],"extension":[{"url":"http://hl7.org/fhir/StructureDefinition/cqf-inputParameters","valueReference":{"reference":"#15af1422-60c8-4442-b54b-1a4858e2bed4-parameters"}},{"url":"http://hl7.org/fhir/us/cqfmeasures/StructureDefinition/cqfm-testCaseDescription","valueMarkdown":"Qualifying encounter (status finished) during MP Medications not documented during encounter period status completed (incorrect status - should be not-done) with reason code in Medical reason\n"}],"modifierExtension":[{"url":"http://hl7.org/fhir/us/cqfmeasures/StructureDefinition/cqfm-isTestCase","valueBoolean":true}],"status":"complete","type":"individual","measure":"https://madie.cms.gov/Measure/CMS68FHIRDocumentationofCurrentMedications","period":{"start":"2026-01-01","end":"2026-12-31"},"group":[{"id":"Group_1","population":[{"id":"InitialPopulation_1","code":{"coding":[{"system":"http://terminology.hl7.org/CodeSystem/measure-population","code":"initial-population","display":"Initial Population"}]},"count":1},{"id":"Denominator_1","code":{"coding":[{"system":"http://terminology.hl7.org/CodeSystem/measure-population","code":"denominator","display":"Denominator"}]},"count":1},{"id":"Numerator_1","code":{"coding":[{"system":"http://terminology.hl7.org/CodeSystem/measure-population","code":"numerator","display":"Numerator"}]},"count":0},{"id":"DenominatorException_1","code":{"coding":[{"system":"http://terminology.hl7.org/CodeSystem/measure-population","code":"denominator-exception","display":"Denominator Exception"}]},"count":0}],"measureScore":{"value":0.0}}],"evaluatedResource":[{"reference":"Patient/4ce081ec-bc42-44c6-bfbb-ad853903e3d1"},{"reference":"Encounter/21e66950-5f0f-4cc9-80f0-443a3f276e32"},{"reference":"Procedure/210491e8-7a14-42f1-8f62-679a75ef9a28"}]},"request":{"method":"PUT","url":"MeasureReport/6f5a8ad5-6c78-4534-84f3-a95f3c40665b"}},{"resource":{"resourceType":"Bundle","id":"62ec3309ea03a4ebacd6a08c","type":"transaction","entry":[{"fullUrl":"https://madie.cms.gov/Patient/4ce081ec-bc42-44c6-bfbb-ad853903e3d1","resource":{"resourceType":"Patient","id":"4ce081ec-bc42-44c6-bfbb-ad853903e3d1","meta":{"profile":["http://hl7.org/fhir/us/qicore/StructureDefinition/qicore-patient"]},"extension":[{"url":"http://hl7.org/fhir/us/core/StructureDefinition/us-core-race","extension":[{"url":"ombCategory","valueCoding":{"system":"urn:oid:2.16.840.1.113883.6.238","code":"1002-5","display":"American Indian or Alaska Native","userSelected":true}},{"url":"text","valueString":"American Indian or Alaska Native"}]},{"url":"http://hl7.org/fhir/us/core/StructureDefinition/us-core-ethnicity","extension":[{"url":"ombCategory","valueCoding":{"system":"urn:oid:2.16.840.1.113883.6.238","code":"2135-2","display":"Hispanic or Latino","userSelected":true}},{"url":"text","valueString":"Hispanic or Latino"}]}],"identifier":[{"type":{"coding":[{"system":"http://terminology.hl7.org/CodeSystem/v2-0203","code":"MR"}]},"system":"https://bonnie-fhir.healthit.gov/","value":"62ec3309ea03a4ebacd6a08c"}],"name":[{"family":"DENEXCEPFail","given":["MedNoDocStatusNotRejected"]}],"gender":"unknown","birthDate":"2008-01-01"},"request":{"method":"PUT","url":"Patient/4ce081ec-bc42-44c6-bfbb-ad853903e3d1"}},{"fullUrl":"https://madie.cms.gov/Encounter/21e66950-5f0f-4cc9-80f0-443a3f276e32","resource":{"resourceType":"Encounter","id":"21e66950-5f0f-4cc9-80f0-443a3f276e32","meta":{"profile":["http://hl7.org/fhir/us/qicore/StructureDefinition/qicore-encounter"]},"status":"finished","class":{"system":"http://terminology.hl7.org/CodeSystem/v3-ActCode","code":"IMP","display":"inpatient encounter"},"type":[{"coding":[{"system":"http://snomed.info/sct","version":"2022-03","code":"10197000","display":"Psychiatric interview and evaluation (procedure)","userSelected":true}]}],"subject":{"reference":"Patient/4ce081ec-bc42-44c6-bfbb-ad853903e3d1"},"period":{"start":"2026-08-04T08:00:00.000+00:00","end":"2026-08-04T09:15:00.000+00:00"}},"request":{"method":"PUT","url":"Encounter/21e66950-5f0f-4cc9-80f0-443a3f276e32"}},{"fullUrl":"https://madie.cms.gov/Procedure/210491e8-7a14-42f1-8f62-679a75ef9a28","resource":{"resourceType":"Procedure","id":"210491e8-7a14-42f1-8f62-679a75ef9a28","meta":{"profile":["http://hl7.org/fhir/us/qicore/StructureDefinition/qicore-procedure"]},"extension":[{"url":"http://hl7.org/fhir/us/qicore/StructureDefinition/qicore-recorded","valueDateTime":"2025-02-01T09:00:00.000+00:00"}],"status":"completed","statusReason":{"coding":[{"system":"http://snomed.info/sct","code":"183932001","display":"Procedure contraindicated (situation)","userSelected":true}]},"code":{"coding":[{"system":"http://snomed.info/sct","code":"428191000124101","display":"Documentation of current medications (procedure)","userSelected":true}]},"subject":{"reference":"Patient/4ce081ec-bc42-44c6-bfbb-ad853903e3d1"},"performedDateTime":"2026-08-05T08:45:00.000+00:00","reasonCode":[{"coding":[{"system":"http://snomed.info/sct","code":"183932001","display":"Procedure contraindicated (situation)","userSelected":true}]}]},"request":{"method":"PUT","url":"Procedure/210491e8-7a14-42f1-8f62-679a75ef9a28"}},{"fullUrl":"https://madie.cms.gov/MeasureReport/6f5a8ad5-6c78-4534-84f3-a95f3c40665b","resource":{"resourceType":"MeasureReport","id":"6f5a8ad5-6c78-4534-84f3-a95f3c40665b","meta":{"profile":["http://hl7.org/fhir/us/cqfmeasures/StructureDefinition/test-case-cqfm"]},"contained":[{"resourceType":"Parameters","id":"15af1422-60c8-4442-b54b-1a4858e2bed4-parameters","parameter":[{"name":"subject","valueString":"4ce081ec-bc42-44c6-bfbb-ad853903e3d1"}]}],"extension":[{"url":"http://hl7.org/fhir/StructureDefinition/cqf-inputParameters","valueReference":{"reference":"#15af1422-60c8-4442-b54b-1a4858e2bed4-parameters"}},{"url":"http://hl7.org/fhir/us/cqfmeasures/StructureDefinition/cqfm-testCaseDescription","valueMarkdown":"Qualifying encounter (status finished) during MP Medications not documented during encounter period status completed (incorrect status - should be not-done) with reason code in Medical reason\n"}],"modifierExtension":[{"url":"http://hl7.org/fhir/us/cqfmeasures/StructureDefinition/cqfm-isTestCase","valueBoolean":true}],"status":"complete","type":"individual","measure":"https://madie.cms.gov/Measure/CMS68FHIRDocumentationofCurrentMedications","period":{"start":"2026-01-01","end":"2026-12-31"},"group":[{"id":"Group_1","population":[{"id":"InitialPopulation_1","code":{"coding":[{"system":"http://terminology.hl7.org/CodeSystem/measure-population","code":"initial-population","display":"Initial Population"}]},"count":1},{"id":"Denominator_1","code":{"coding":[{"system":"http://terminology.hl7.org/CodeSystem/measure-population","code":"denominator","display":"Denominator"}]},"count":1},{"id":"Numerator_1","code":{"coding":[{"system":"http://terminology.hl7.org/CodeSystem/measure-population","code":"numerator","display":"Numerator"}]},"count":0},{"id":"DenominatorException_1","code":{"coding":[{"system":"http://terminology.hl7.org/CodeSystem/measure-population","code":"denominator-exception","display":"Denominator Exception"}]},"count":0}],"measureScore":{"value":0.0}}],"evaluatedResource":[{"reference":"Patient/4ce081ec-bc42-44c6-bfbb-ad853903e3d1"},{"reference":"Encounter/21e66950-5f0f-4cc9-80f0-443a3f276e32"},{"reference":"Procedure/210491e8-7a14-42f1-8f62-679a75ef9a28"}]},"request":{"method":"PUT","url":"MeasureReport/6f5a8ad5-6c78-4534-84f3-a95f3c40665b"}}]},"request":{"method":"PUT","url":"Bundle/62ec3309ea03a4ebacd6a08c"}},{"resource":{"resourceType":"Procedure","id":"210491e8-7a14-42f1-8f62-679a75ef9a28","meta":{"profile":["http://hl7.org/fhir/us/qicore/StructureDefinition/qicore-procedure"]},"extension":[{"url":"http://hl7.org/fhir/us/qicore/StructureDefinition/qicore-recorded","valueDateTime":"2025-02-01T09:00:00.000+00:00"}],"status":"completed","statusReason":{"coding":[{"system":"http://snomed.info/sct","code":"183932001","display":"Procedure contraindicated (situation)","userSelected":true}]},"code":{"coding":[{"system":"http://snomed.info/sct","code":"428191000124101","display":"Documentation of current medications (procedure)","userSelected":true}]},"subject":{"reference":"Patient/4ce081ec-bc42-44c6-bfbb-ad853903e3d1"},"performedDateTime":"2026-08-05T08:45:00.000+00:00","reasonCode":[{"coding":[{"system":"http://snomed.info/sct","code":"183932001","display":"Procedure contraindicated (situation)","userSelected":true}]}]},"request":{"method":"PUT","url":"Procedure/210491e8-7a14-42f1-8f62-679a75ef9a28"}},{"resource":{"resourceType":"Encounter","id":"21e66950-5f0f-4cc9-80f0-443a3f276e32","meta":{"profile":["http://hl7.org/fhir/us/qicore/StructureDefinition/qicore-encounter"]},"status":"finished","class":{"system":"http://terminology.hl7.org/CodeSystem/v3-ActCode","code":"IMP","display":"inpatient encounter"},"type":[{"coding":[{"system":"http://snomed.info/sct","version":"2022-03","code":"10197000","display":"Psychiatric interview and evaluation (procedure)","userSelected":true}]}],"subject":{"reference":"Patient/4ce081ec-bc42-44c6-bfbb-ad853903e3d1"},"period":{"start":"2026-08-04T08:00:00.000+00:00","end":"2026-08-04T09:15:00.000+00:00"}},"request":{"method":"PUT","url":"Encounter/21e66950-5f0f-4cc9-80f0-443a3f276e32"}}]}