{"resourceType":"Bundle","id":"tests-25938d1a-7785-4453-9574-01ccb82cb3e8-bundle","type":"transaction","entry":[{"resource":{"resourceType":"Bundle","id":"62ec2d01ea03a4ebacd6a083","type":"transaction","entry":[{"fullUrl":"https://madie.cms.gov/Patient/25938d1a-7785-4453-9574-01ccb82cb3e8","resource":{"resourceType":"Patient","id":"25938d1a-7785-4453-9574-01ccb82cb3e8","meta":{"profile":["http://hl7.org/fhir/us/qicore/StructureDefinition/qicore-patient"]},"extension":[{"url":"http://hl7.org/fhir/us/core/StructureDefinition/us-core-ethnicity","extension":[{"url":"ombCategory","valueCoding":{"system":"urn:oid:2.16.840.1.113883.6.238","code":"2135-2","display":"Hispanic or Latino","userSelected":true}},{"url":"text","valueString":"Hispanic or Latino"}]}],"identifier":[{"type":{"coding":[{"system":"http://terminology.hl7.org/CodeSystem/v2-0203","code":"MR"}]},"system":"https://bonnie-fhir.healthit.gov/","value":"62ec2d01ea03a4ebacd6a083"}],"name":[{"family":"IPPDenomFail","given":["EncOverlapsMP"]}],"gender":"male","birthDate":"2008-01-01"},"request":{"method":"PUT","url":"Patient/25938d1a-7785-4453-9574-01ccb82cb3e8"}},{"fullUrl":"https://madie.cms.gov/Encounter/83c7b32e-b75a-42dc-968e-785c23b69092","resource":{"resourceType":"Encounter","id":"83c7b32e-b75a-42dc-968e-785c23b69092","meta":{"profile":["http://hl7.org/fhir/us/qicore/StructureDefinition/qicore-encounter"]},"status":"finished","class":{"system":"http://terminology.hl7.org/CodeSystem/v3-ActCode","code":"IMP","display":"inpatient encounter"},"type":[{"coding":[{"system":"http://snomed.info/sct","version":"2022-03","code":"10197000","display":"Psychiatric interview and evaluation (procedure)","userSelected":true}]}],"subject":{"reference":"Patient/25938d1a-7785-4453-9574-01ccb82cb3e8"},"period":{"start":"2025-12-31T11:00:00.000+00:00","end":"2026-01-01T00:15:00.000+00:00"}},"request":{"method":"PUT","url":"Encounter/83c7b32e-b75a-42dc-968e-785c23b69092"}},{"fullUrl":"https://madie.cms.gov/MeasureReport/c0a33334-a166-4274-9dc8-7972d741c1d7","resource":{"resourceType":"MeasureReport","id":"c0a33334-a166-4274-9dc8-7972d741c1d7","meta":{"profile":["http://hl7.org/fhir/us/cqfmeasures/StructureDefinition/test-case-cqfm"]},"contained":[{"resourceType":"Parameters","id":"3790e972-f5da-4e68-b80a-c8fa84ae4a41-parameters","parameter":[{"name":"subject","valueString":"25938d1a-7785-4453-9574-01ccb82cb3e8"}]}],"extension":[{"url":"http://hl7.org/fhir/StructureDefinition/cqf-inputParameters","valueReference":{"reference":"#3790e972-f5da-4e68-b80a-c8fa84ae4a41-parameters"}},{"url":"http://hl7.org/fhir/us/cqfmeasures/StructureDefinition/cqfm-testCaseDescription","valueMarkdown":"Qualifying encounter (status finished) overlaps MP "}],"modifierExtension":[{"url":"http://hl7.org/fhir/us/cqfmeasures/StructureDefinition/cqfm-isTestCase","valueBoolean":true}],"status":"complete","type":"individual","measure":"https://madie.cms.gov/Measure/CMS68FHIRDocumentationofCurrentMedications","period":{"start":"2026-01-01","end":"2026-12-31"},"group":[{"id":"Group_1","population":[{"id":"InitialPopulation_1","code":{"coding":[{"system":"http://terminology.hl7.org/CodeSystem/measure-population","code":"initial-population","display":"Initial Population"}]},"count":0},{"id":"Denominator_1","code":{"coding":[{"system":"http://terminology.hl7.org/CodeSystem/measure-population","code":"denominator","display":"Denominator"}]},"count":0},{"id":"Numerator_1","code":{"coding":[{"system":"http://terminology.hl7.org/CodeSystem/measure-population","code":"numerator","display":"Numerator"}]},"count":0},{"id":"DenominatorException_1","code":{"coding":[{"system":"http://terminology.hl7.org/CodeSystem/measure-population","code":"denominator-exception","display":"Denominator Exception"}]},"count":0}],"measureScore":{"value":0}}],"evaluatedResource":[{"reference":"Patient/25938d1a-7785-4453-9574-01ccb82cb3e8"},{"reference":"Encounter/83c7b32e-b75a-42dc-968e-785c23b69092"}]},"request":{"method":"PUT","url":"MeasureReport/c0a33334-a166-4274-9dc8-7972d741c1d7"}}]},"request":{"method":"PUT","url":"Bundle/62ec2d01ea03a4ebacd6a083"}},{"resource":{"resourceType":"Encounter","id":"83c7b32e-b75a-42dc-968e-785c23b69092","meta":{"profile":["http://hl7.org/fhir/us/qicore/StructureDefinition/qicore-encounter"]},"status":"finished","class":{"system":"http://terminology.hl7.org/CodeSystem/v3-ActCode","code":"IMP","display":"inpatient encounter"},"type":[{"coding":[{"system":"http://snomed.info/sct","version":"2022-03","code":"10197000","display":"Psychiatric interview and evaluation (procedure)","userSelected":true}]}],"subject":{"reference":"Patient/25938d1a-7785-4453-9574-01ccb82cb3e8"},"period":{"start":"2025-12-31T11:00:00.000+00:00","end":"2026-01-01T00:15:00.000+00:00"}},"request":{"method":"PUT","url":"Encounter/83c7b32e-b75a-42dc-968e-785c23b69092"}},{"resource":{"resourceType":"MeasureReport","id":"c0a33334-a166-4274-9dc8-7972d741c1d7","meta":{"profile":["http://hl7.org/fhir/us/cqfmeasures/StructureDefinition/test-case-cqfm"]},"contained":[{"resourceType":"Parameters","id":"3790e972-f5da-4e68-b80a-c8fa84ae4a41-parameters","parameter":[{"name":"subject","valueString":"25938d1a-7785-4453-9574-01ccb82cb3e8"}]}],"extension":[{"url":"http://hl7.org/fhir/StructureDefinition/cqf-inputParameters","valueReference":{"reference":"#3790e972-f5da-4e68-b80a-c8fa84ae4a41-parameters"}},{"url":"http://hl7.org/fhir/us/cqfmeasures/StructureDefinition/cqfm-testCaseDescription","valueMarkdown":"Qualifying encounter (status finished) overlaps MP "}],"modifierExtension":[{"url":"http://hl7.org/fhir/us/cqfmeasures/StructureDefinition/cqfm-isTestCase","valueBoolean":true}],"status":"complete","type":"individual","measure":"https://madie.cms.gov/Measure/CMS68FHIRDocumentationofCurrentMedications","period":{"start":"2026-01-01","end":"2026-12-31"},"group":[{"id":"Group_1","population":[{"id":"InitialPopulation_1","code":{"coding":[{"system":"http://terminology.hl7.org/CodeSystem/measure-population","code":"initial-population","display":"Initial Population"}]},"count":0},{"id":"Denominator_1","code":{"coding":[{"system":"http://terminology.hl7.org/CodeSystem/measure-population","code":"denominator","display":"Denominator"}]},"count":0},{"id":"Numerator_1","code":{"coding":[{"system":"http://terminology.hl7.org/CodeSystem/measure-population","code":"numerator","display":"Numerator"}]},"count":0},{"id":"DenominatorException_1","code":{"coding":[{"system":"http://terminology.hl7.org/CodeSystem/measure-population","code":"denominator-exception","display":"Denominator Exception"}]},"count":0}],"measureScore":{"value":0}}],"evaluatedResource":[{"reference":"Patient/25938d1a-7785-4453-9574-01ccb82cb3e8"},{"reference":"Encounter/83c7b32e-b75a-42dc-968e-785c23b69092"}]},"request":{"method":"PUT","url":"MeasureReport/c0a33334-a166-4274-9dc8-7972d741c1d7"}},{"resource":{"resourceType":"Patient","id":"25938d1a-7785-4453-9574-01ccb82cb3e8","meta":{"profile":["http://hl7.org/fhir/us/qicore/StructureDefinition/qicore-patient"]},"extension":[{"url":"http://hl7.org/fhir/us/core/StructureDefinition/us-core-ethnicity","extension":[{"url":"ombCategory","valueCoding":{"system":"urn:oid:2.16.840.1.113883.6.238","code":"2135-2","display":"Hispanic or Latino","userSelected":true}},{"url":"text","valueString":"Hispanic or Latino"}]}],"identifier":[{"type":{"coding":[{"system":"http://terminology.hl7.org/CodeSystem/v2-0203","code":"MR"}]},"system":"https://bonnie-fhir.healthit.gov/","value":"62ec2d01ea03a4ebacd6a083"}],"name":[{"family":"IPPDenomFail","given":["EncOverlapsMP"]}],"gender":"male","birthDate":"2008-01-01"},"request":{"method":"PUT","url":"Patient/25938d1a-7785-4453-9574-01ccb82cb3e8"}}]}