{"resourceType":"Bundle","id":"tests-6bffc7ce-d4ac-42e2-9fd0-48b58e45d502-bundle","type":"transaction","entry":[{"fullUrl":"Encounter/5ce3fb54-2266-46a4-83ce-ee71320e8d2d","resource":{"resourceType":"Encounter","id":"5ce3fb54-2266-46a4-83ce-ee71320e8d2d","meta":{"profile":["http://hl7.org/fhir/us/qicore/StructureDefinition/qicore-encounter"]},"status":"finished","class":{"system":"http://terminology.hl7.org/CodeSystem/v3-ActCode","code":"IMP","display":"inpatient encounter"},"type":[{"coding":[{"system":"http://snomed.info/sct","version":"2022-03","code":"10197000","display":"Psychiatric interview and evaluation (procedure)","userSelected":true}]}],"subject":{"reference":"Patient/6bffc7ce-d4ac-42e2-9fd0-48b58e45d502"},"period":{"start":"2025-12-31T23:15:00.000+00:00","end":"2025-12-31T23:59:00.000+00:00"}},"request":{"method":"PUT","url":"Encounter/5ce3fb54-2266-46a4-83ce-ee71320e8d2d"}},{"fullUrl":"Bundle/62ec24deea03a4ebacd6a074","resource":{"resourceType":"Bundle","id":"62ec24deea03a4ebacd6a074","type":"transaction","entry":[{"fullUrl":"https://madie.cms.gov/Patient/6bffc7ce-d4ac-42e2-9fd0-48b58e45d502","resource":{"resourceType":"Patient","id":"6bffc7ce-d4ac-42e2-9fd0-48b58e45d502","meta":{"profile":["http://hl7.org/fhir/us/qicore/StructureDefinition/qicore-patient"]},"extension":[{"url":"http://hl7.org/fhir/us/core/StructureDefinition/us-core-race","extension":[{"url":"ombCategory","valueCoding":{"system":"urn:oid:2.16.840.1.113883.6.238","code":"2028-9","display":"Asian","userSelected":true}},{"url":"text","valueString":"Asian"}]},{"url":"http://hl7.org/fhir/us/core/StructureDefinition/us-core-ethnicity","extension":[{"url":"ombCategory","valueCoding":{"system":"urn:oid:2.16.840.1.113883.6.238","code":"2186-5","display":"Not Hispanic or Latino","userSelected":true}},{"url":"text","valueString":"Not Hispanic or Latino"}]}],"identifier":[{"type":{"coding":[{"system":"http://terminology.hl7.org/CodeSystem/v2-0203","code":"MR"}]},"system":"https://bonnie-fhir.healthit.gov/","value":"62ec24deea03a4ebacd6a074"}],"name":[{"family":"IPPDenomFail","given":["EncBeforeMP"]}],"gender":"male","birthDate":"2008-01-01"},"request":{"method":"PUT","url":"Patient/6bffc7ce-d4ac-42e2-9fd0-48b58e45d502"}},{"fullUrl":"https://madie.cms.gov/Encounter/5ce3fb54-2266-46a4-83ce-ee71320e8d2d","resource":{"resourceType":"Encounter","id":"5ce3fb54-2266-46a4-83ce-ee71320e8d2d","meta":{"profile":["http://hl7.org/fhir/us/qicore/StructureDefinition/qicore-encounter"]},"status":"finished","class":{"system":"http://terminology.hl7.org/CodeSystem/v3-ActCode","code":"IMP","display":"inpatient encounter"},"type":[{"coding":[{"system":"http://snomed.info/sct","version":"2022-03","code":"10197000","display":"Psychiatric interview and evaluation (procedure)","userSelected":true}]}],"subject":{"reference":"Patient/6bffc7ce-d4ac-42e2-9fd0-48b58e45d502"},"period":{"start":"2025-12-31T23:15:00.000+00:00","end":"2025-12-31T23:59:00.000+00:00"}},"request":{"method":"PUT","url":"Encounter/5ce3fb54-2266-46a4-83ce-ee71320e8d2d"}},{"fullUrl":"https://madie.cms.gov/MeasureReport/adb5e406-3139-46c0-8d74-2c78e9a97860","resource":{"resourceType":"MeasureReport","id":"adb5e406-3139-46c0-8d74-2c78e9a97860","meta":{"profile":["http://hl7.org/fhir/us/cqfmeasures/StructureDefinition/test-case-cqfm"]},"contained":[{"resourceType":"Parameters","id":"70f44859-f41f-4d44-a3d1-f3c931192b8c-parameters","parameter":[{"name":"subject","valueString":"6bffc7ce-d4ac-42e2-9fd0-48b58e45d502"}]}],"extension":[{"url":"http://hl7.org/fhir/StructureDefinition/cqf-inputParameters","valueReference":{"reference":"#70f44859-f41f-4d44-a3d1-f3c931192b8c-parameters"}},{"url":"http://hl7.org/fhir/us/cqfmeasures/StructureDefinition/cqfm-testCaseDescription","valueMarkdown":"Qualifying encounter status finished before MP (edge test)"}],"modifierExtension":[{"url":"http://hl7.org/fhir/us/cqfmeasures/StructureDefinition/cqfm-isTestCase","valueBoolean":true}],"status":"complete","type":"individual","measure":"https://madie.cms.gov/Measure/CMS68FHIRDocumentationofCurrentMedications","period":{"start":"2026-01-01","end":"2026-12-31"},"group":[{"id":"Group_1","population":[{"id":"InitialPopulation_1","code":{"coding":[{"system":"http://terminology.hl7.org/CodeSystem/measure-population","code":"initial-population","display":"Initial Population"}]},"count":0},{"id":"Denominator_1","code":{"coding":[{"system":"http://terminology.hl7.org/CodeSystem/measure-population","code":"denominator","display":"Denominator"}]},"count":0},{"id":"Numerator_1","code":{"coding":[{"system":"http://terminology.hl7.org/CodeSystem/measure-population","code":"numerator","display":"Numerator"}]},"count":0},{"id":"DenominatorException_1","code":{"coding":[{"system":"http://terminology.hl7.org/CodeSystem/measure-population","code":"denominator-exception","display":"Denominator Exception"}]},"count":0}],"measureScore":{"value":0.0}}],"evaluatedResource":[{"reference":"Patient/6bffc7ce-d4ac-42e2-9fd0-48b58e45d502"},{"reference":"Encounter/5ce3fb54-2266-46a4-83ce-ee71320e8d2d"}]},"request":{"method":"PUT","url":"MeasureReport/adb5e406-3139-46c0-8d74-2c78e9a97860"}}]},"request":{"method":"PUT","url":"Bundle/62ec24deea03a4ebacd6a074"}},{"fullUrl":"MeasureReport/adb5e406-3139-46c0-8d74-2c78e9a97860","resource":{"resourceType":"MeasureReport","id":"adb5e406-3139-46c0-8d74-2c78e9a97860","meta":{"profile":["http://hl7.org/fhir/us/cqfmeasures/StructureDefinition/test-case-cqfm"]},"contained":[{"resourceType":"Parameters","id":"70f44859-f41f-4d44-a3d1-f3c931192b8c-parameters","parameter":[{"name":"subject","valueString":"6bffc7ce-d4ac-42e2-9fd0-48b58e45d502"}]}],"extension":[{"url":"http://hl7.org/fhir/StructureDefinition/cqf-inputParameters","valueReference":{"reference":"#70f44859-f41f-4d44-a3d1-f3c931192b8c-parameters"}},{"url":"http://hl7.org/fhir/us/cqfmeasures/StructureDefinition/cqfm-testCaseDescription","valueMarkdown":"Qualifying encounter status finished before MP (edge test)"}],"modifierExtension":[{"url":"http://hl7.org/fhir/us/cqfmeasures/StructureDefinition/cqfm-isTestCase","valueBoolean":true}],"status":"complete","type":"individual","measure":"https://madie.cms.gov/Measure/CMS68FHIRDocumentationofCurrentMedications","period":{"start":"2026-01-01","end":"2026-12-31"},"group":[{"id":"Group_1","population":[{"id":"InitialPopulation_1","code":{"coding":[{"system":"http://terminology.hl7.org/CodeSystem/measure-population","code":"initial-population","display":"Initial Population"}]},"count":0},{"id":"Denominator_1","code":{"coding":[{"system":"http://terminology.hl7.org/CodeSystem/measure-population","code":"denominator","display":"Denominator"}]},"count":0},{"id":"Numerator_1","code":{"coding":[{"system":"http://terminology.hl7.org/CodeSystem/measure-population","code":"numerator","display":"Numerator"}]},"count":0},{"id":"DenominatorException_1","code":{"coding":[{"system":"http://terminology.hl7.org/CodeSystem/measure-population","code":"denominator-exception","display":"Denominator Exception"}]},"count":0}],"measureScore":{"value":0.0}}],"evaluatedResource":[{"reference":"Patient/6bffc7ce-d4ac-42e2-9fd0-48b58e45d502"},{"reference":"Encounter/5ce3fb54-2266-46a4-83ce-ee71320e8d2d"}]},"request":{"method":"PUT","url":"MeasureReport/adb5e406-3139-46c0-8d74-2c78e9a97860"}},{"fullUrl":"Patient/6bffc7ce-d4ac-42e2-9fd0-48b58e45d502","resource":{"resourceType":"Patient","id":"6bffc7ce-d4ac-42e2-9fd0-48b58e45d502","meta":{"profile":["http://hl7.org/fhir/us/qicore/StructureDefinition/qicore-patient"]},"extension":[{"url":"http://hl7.org/fhir/us/core/StructureDefinition/us-core-race","extension":[{"url":"ombCategory","valueCoding":{"system":"urn:oid:2.16.840.1.113883.6.238","code":"2028-9","display":"Asian","userSelected":true}},{"url":"text","valueString":"Asian"}]},{"url":"http://hl7.org/fhir/us/core/StructureDefinition/us-core-ethnicity","extension":[{"url":"ombCategory","valueCoding":{"system":"urn:oid:2.16.840.1.113883.6.238","code":"2186-5","display":"Not Hispanic or Latino","userSelected":true}},{"url":"text","valueString":"Not Hispanic or Latino"}]}],"identifier":[{"type":{"coding":[{"system":"http://terminology.hl7.org/CodeSystem/v2-0203","code":"MR"}]},"system":"https://bonnie-fhir.healthit.gov/","value":"62ec24deea03a4ebacd6a074"}],"name":[{"family":"IPPDenomFail","given":["EncBeforeMP"]}],"gender":"male","birthDate":"2008-01-01"},"request":{"method":"PUT","url":"Patient/6bffc7ce-d4ac-42e2-9fd0-48b58e45d502"}}]}