{
  "resourceType": "Bundle",
  "id": "612e6af202c62a011f2ebdd1",
  "type": "transaction",
  "entry": [ {
    "fullUrl": "https://madie.cms.gov/Patient/393c7827-5136-4a2d-916d-3da088d2c053",
    "resource": {
      "resourceType": "Patient",
      "id": "393c7827-5136-4a2d-916d-3da088d2c053",
      "meta": {
        "profile": [ "http://hl7.org/fhir/us/qicore/StructureDefinition/qicore-patient" ]
      },
      "text": {
        "status": "generated",
        "div": "<div xmlns=\"http://www.w3.org/1999/xhtml\"><div class=\"hapiHeaderText\">MAOralXaDayAFEncStartKneeSurgRvltDT <b>NUMERPASS </b></div><table class=\"hapiPropertyTable\"><tbody><tr><td>Date of birth</td><td><span>02 January 1974</span></td></tr></tbody></table></div>"
      },
      "extension": [ {
        "url": "http://hl7.org/fhir/us/core/StructureDefinition/us-core-race",
        "extension": [ {
          "url": "ombCategory",
          "valueCoding": {
            "system": "urn:oid:2.16.840.1.113883.6.238",
            "code": "1002-5",
            "display": "American Indian or Alaska Native",
            "userSelected": true
          }
        }, {
          "url": "text",
          "valueString": "American Indian or Alaska Native"
        } ]
      }, {
        "url": "http://hl7.org/fhir/us/core/StructureDefinition/us-core-ethnicity",
        "extension": [ {
          "url": "ombCategory",
          "valueCoding": {
            "system": "urn:oid:2.16.840.1.113883.6.238",
            "code": "2135-2",
            "display": "Hispanic or Latino",
            "userSelected": true
          }
        }, {
          "url": "text",
          "valueString": "Hispanic or Latino"
        } ]
      } ],
      "identifier": [ {
        "type": {
          "coding": [ {
            "system": "http://terminology.hl7.org/CodeSystem/v2-0203",
            "code": "MR"
          } ]
        },
        "system": "https://bonnie-fhir.healthit.gov/",
        "value": "612e6af202c62a011f2ebdd1"
      } ],
      "active": true,
      "name": [ {
        "use": "usual",
        "family": "NUMERPass",
        "given": [ "MAOralXaDayAFEncStartKneeSurgRvltDT" ]
      } ],
      "gender": "female",
      "birthDate": "1975-01-02"
    },
    "request": {
      "method": "PUT",
      "url": "Patient/393c7827-5136-4a2d-916d-3da088d2c053"
    }
  }, {
    "fullUrl": "https://madie.cms.gov/Encounter/7daa15ea-16d6-4ab6-a4ac-1d7336f40bbc",
    "resource": {
      "resourceType": "Encounter",
      "id": "7daa15ea-16d6-4ab6-a4ac-1d7336f40bbc",
      "meta": {
        "profile": [ "http://hl7.org/fhir/us/qicore/StructureDefinition/qicore-encounter" ]
      },
      "status": "finished",
      "class": {
        "system": "http://terminology.hl7.org/CodeSystem/v3-ActCode",
        "code": "IMP",
        "display": "inpatient encounter"
      },
      "type": [ {
        "coding": [ {
          "system": "http://snomed.info/sct",
          "code": "183452005"
        } ]
      } ],
      "subject": {
        "reference": "Patient/393c7827-5136-4a2d-916d-3da088d2c053"
      },
      "period": {
        "start": "2026-11-01T08:00:00.000+00:00",
        "end": "2026-11-26T08:15:00.000+00:00"
      },
      "length": {
        "value": 25.0,
        "unit": "day"
      }
    },
    "request": {
      "method": "PUT",
      "url": "Encounter/7daa15ea-16d6-4ab6-a4ac-1d7336f40bbc"
    }
  }, {
    "fullUrl": "https://madie.cms.gov/Coverage/5cf92799-35f3-468d-83d6-95d7ee283d20",
    "resource": {
      "resourceType": "Coverage",
      "id": "5cf92799-35f3-468d-83d6-95d7ee283d20",
      "status": "active",
      "beneficiary": {
        "reference": "Patient/393c7827-5136-4a2d-916d-3da088d2c053"
      },
      "period": {
        "start": "1975-01-02T08:00:00.000+00:00"
      },
      "payor": [ {
        "reference": "Organization/b4cc79b7-40f2-4c62-96be-139e7466039b"
      } ]
    },
    "request": {
      "method": "PUT",
      "url": "Coverage/5cf92799-35f3-468d-83d6-95d7ee283d20"
    }
  }, {
    "fullUrl": "https://madie.cms.gov/MedicationAdministration/cf91cab0-367e-4bbe-b580-7f07fdc47819",
    "resource": {
      "resourceType": "MedicationAdministration",
      "id": "cf91cab0-367e-4bbe-b580-7f07fdc47819",
      "meta": {
        "profile": [ "http://hl7.org/fhir/us/qicore/StructureDefinition/qicore-medicationadministration" ]
      },
      "status": "completed",
      "medicationCodeableConcept": {
        "coding": [ {
          "system": "http://www.nlm.nih.gov/research/umls/rxnorm",
          "code": "1992427"
        } ]
      },
      "subject": {
        "reference": "Patient/393c7827-5136-4a2d-916d-3da088d2c053"
      },
      "effectivePeriod": {
        "start": "2026-11-02T23:59:00.000+00:00",
        "end": "2026-11-02T23:59:00.000+00:00"
      }
    },
    "request": {
      "method": "PUT",
      "url": "MedicationAdministration/cf91cab0-367e-4bbe-b580-7f07fdc47819"
    }
  }, {
    "fullUrl": "https://madie.cms.gov/Procedure/48dfa52a-8f1f-4e69-92cb-d8e09642e831",
    "resource": {
      "resourceType": "Procedure",
      "id": "48dfa52a-8f1f-4e69-92cb-d8e09642e831",
      "meta": {
        "profile": [ "http://hl7.org/fhir/us/qicore/StructureDefinition/qicore-procedure" ]
      },
      "extension": [ {
        "url": "http://hl7.org/fhir/us/qicore/StructureDefinition/qicore-recorded",
        "valueDateTime": "2013-11-19T13:35:00.000+00:00"
      } ],
      "status": "completed",
      "code": {
        "coding": [ {
          "system": "http://www.cms.gov/Medicare/Coding/ICD10",
          "code": "0SUU09Z"
        } ]
      },
      "subject": {
        "reference": "Patient/393c7827-5136-4a2d-916d-3da088d2c053"
      },
      "performedDateTime": "2026-11-01T09:00:00.000+00:00"
    },
    "request": {
      "method": "PUT",
      "url": "Procedure/48dfa52a-8f1f-4e69-92cb-d8e09642e831"
    }
  }, {
    "fullUrl": "https://madie.cms.gov/Organization/b4cc79b7-40f2-4c62-96be-139e7466039b",
    "resource": {
      "resourceType": "Organization",
      "id": "b4cc79b7-40f2-4c62-96be-139e7466039b",
      "meta": {
        "profile": [ "http://hl7.org/fhir/us/qicore/StructureDefinition/qicore-organization" ]
      },
      "identifier": [ {
        "use": "temp",
        "system": "urn:oid:2.16.840.1.113883.4.4",
        "value": "21-3259825"
      } ],
      "active": true,
      "type": [ {
        "coding": [ {
          "system": "http://terminology.hl7.org/CodeSystem/organization-type",
          "code": "pay",
          "display": "Payer"
        } ]
      } ],
      "name": "Blue Cross Blue Shield of Texas",
      "telecom": [ {
        "system": "phone",
        "value": "(+1) 972-766-6900"
      } ],
      "address": [ {
        "use": "billing",
        "type": "postal",
        "line": [ "P.O. Box 660044" ],
        "city": "Dallas",
        "state": "TX",
        "postalCode": "75266-0044",
        "country": "USA"
      } ]
    },
    "request": {
      "method": "PUT",
      "url": "Organization/b4cc79b7-40f2-4c62-96be-139e7466039b"
    }
  }, {
    "fullUrl": "https://madie.cms.gov/Practitioner/05536bb1-b3b5-413a-baba-1a672c635b5c",
    "resource": {
      "resourceType": "Practitioner",
      "id": "05536bb1-b3b5-413a-baba-1a672c635b5c",
      "identifier": [ {
        "system": "http://hl7.org/fhir/sid/us-npi",
        "value": "123456"
      } ],
      "name": [ {
        "family": "Evil",
        "prefix": [ "Dr" ]
      } ]
    },
    "request": {
      "method": "PUT",
      "url": "Practitioner/05536bb1-b3b5-413a-baba-1a672c635b5c"
    }
  }, {
    "fullUrl": "https://madie.cms.gov/MeasureReport/631b72bb-c809-47e1-81b0-ee8ee4f7bd66",
    "resource": {
      "resourceType": "MeasureReport",
      "id": "631b72bb-c809-47e1-81b0-ee8ee4f7bd66",
      "meta": {
        "profile": [ "http://hl7.org/fhir/us/cqfmeasures/StructureDefinition/test-case-cqfm" ]
      },
      "contained": [ {
        "resourceType": "Parameters",
        "id": "feb127b3-be33-40c6-b734-3fa10731a001-parameters",
        "parameter": [ {
          "name": "subject",
          "valueString": "393c7827-5136-4a2d-916d-3da088d2c053"
        } ]
      } ],
      "extension": [ {
        "url": "http://hl7.org/fhir/StructureDefinition/cqf-inputParameters",
        "valueReference": {
          "reference": "#feb127b3-be33-40c6-b734-3fa10731a001-parameters"
        }
      }, {
        "url": "http://hl7.org/fhir/us/cqfmeasures/StructureDefinition/cqfm-testCaseDescription",
        "valueMarkdown": "\"Oral Xa 11:59PM day after Inp.start\nHip replacement surgery Revelant Datetime after IP\"\n"
      } ],
      "modifierExtension": [ {
        "url": "http://hl7.org/fhir/us/cqfmeasures/StructureDefinition/cqfm-isTestCase",
        "valueBoolean": true
      } ],
      "status": "complete",
      "type": "individual",
      "measure": "https://madie.cms.gov/Measure/CMS108FHIRVTEProphylaxis",
      "period": {
        "start": "2026-01-01",
        "end": "2026-12-31"
      },
      "group": [ {
        "id": "Group_1",
        "population": [ {
          "id": "InitialPopulation_1",
          "code": {
            "coding": [ {
              "system": "http://terminology.hl7.org/CodeSystem/measure-population",
              "code": "initial-population",
              "display": "Initial Population"
            } ]
          },
          "count": 1
        }, {
          "id": "Denominator_1",
          "code": {
            "coding": [ {
              "system": "http://terminology.hl7.org/CodeSystem/measure-population",
              "code": "denominator",
              "display": "Denominator"
            } ]
          },
          "count": 1
        }, {
          "id": "DenominatorExclusion_1",
          "code": {
            "coding": [ {
              "system": "http://terminology.hl7.org/CodeSystem/measure-population",
              "code": "denominator-exclusion",
              "display": "Denominator Exclusion"
            } ]
          },
          "count": 0
        }, {
          "id": "Numerator_1",
          "code": {
            "coding": [ {
              "system": "http://terminology.hl7.org/CodeSystem/measure-population",
              "code": "numerator",
              "display": "Numerator"
            } ]
          },
          "count": 1
        } ],
        "measureScore": {
          "value": 0.0
        }
      } ],
      "evaluatedResource": [ {
        "reference": "Patient/393c7827-5136-4a2d-916d-3da088d2c053"
      }, {
        "reference": "Encounter/7daa15ea-16d6-4ab6-a4ac-1d7336f40bbc"
      }, {
        "reference": "Coverage/5cf92799-35f3-468d-83d6-95d7ee283d20"
      }, {
        "reference": "MedicationAdministration/cf91cab0-367e-4bbe-b580-7f07fdc47819"
      }, {
        "reference": "Procedure/48dfa52a-8f1f-4e69-92cb-d8e09642e831"
      }, {
        "reference": "Organization/b4cc79b7-40f2-4c62-96be-139e7466039b"
      }, {
        "reference": "Practitioner/05536bb1-b3b5-413a-baba-1a672c635b5c"
      } ]
    },
    "request": {
      "method": "PUT",
      "url": "MeasureReport/631b72bb-c809-47e1-81b0-ee8ee4f7bd66"
    }
  } ]
}