{
  "resourceType": "Bundle",
  "id": "610965b898086b538055c14a",
  "type": "transaction",
  "entry": [
    {
      "fullUrl": "https://madie.cms.gov/Patient/f29ea5d3-61df-48ab-bfa3-ae5c4342308f",
      "resource": {
        "resourceType": "Patient",
        "id": "f29ea5d3-61df-48ab-bfa3-ae5c4342308f",
        "meta": {
          "profile": [
            "http://hl7.org/fhir/us/qicore/StructureDefinition/qicore-patient"
          ]
        },
        "text": {
          "status": "generated",
          "div": "<div xmlns=\"http://www.w3.org/1999/xhtml\"><div class=\"hapiHeaderText\">EncOverlapsMPStart <b>IPPFAIL </b></div><table class=\"hapiPropertyTable\"><tbody><tr><td>Identifier</td><td>80993906fee6145b7a0aa9099fda8108238f7d436ea84320e27372252a04acb5</td></tr><tr><td>Date of birth</td><td><span>31 July 1992</span></td></tr></tbody></table></div>"
        },
        "extension": [
          {
            "url": "http://hl7.org/fhir/us/core/StructureDefinition/us-core-race",
            "extension": [
              {
                "url": "ombCategory",
                "valueCoding": {
                  "system": "urn:oid:2.16.840.1.113883.6.238",
                  "code": "1002-5",
                  "display": "American Indian or Alaska Native",
                  "userSelected": true
                }
              },
              {
                "url": "text",
                "valueString": "American Indian or Alaska Native"
              }
            ]
          },
          {
            "url": "http://hl7.org/fhir/us/core/StructureDefinition/us-core-ethnicity",
            "extension": [
              {
                "url": "ombCategory",
                "valueCoding": {
                  "system": "urn:oid:2.16.840.1.113883.6.238",
                  "code": "2135-2",
                  "display": "Hispanic or Latino",
                  "userSelected": true
                }
              },
              {
                "url": "text",
                "valueString": "Hispanic or Latino"
              }
            ]
          }
        ],
        "identifier": [
          {
            "type": {
              "coding": [
                {
                  "system": "http://terminology.hl7.org/CodeSystem/v2-0203",
                  "code": "MR"
                }
              ]
            },
            "system": "https://bonnie-fhir.healthit.gov/",
            "value": "610965b898086b538055c14a"
          }
        ],
        "active": true,
        "name": [
          {
            "use": "usual",
            "family": "IPPFail",
            "given": [
              "EncOverlapsMPStart"
            ]
          }
        ],
        "gender": "male",
        "birthDate": "1993-07-31"
      },
      "request": {
        "method": "PUT",
        "url": "Patient/f29ea5d3-61df-48ab-bfa3-ae5c4342308f"
      }
    },
    {
      "fullUrl": "https://madie.cms.gov/Encounter/a5854d3b-75c5-40a9-9913-d31030052777",
      "resource": {
        "resourceType": "Encounter",
        "id": "a5854d3b-75c5-40a9-9913-d31030052777",
        "meta": {
          "profile": [
            "http://hl7.org/fhir/us/qicore/StructureDefinition/qicore-encounter"
          ]
        },
        "status": "finished",
        "class": {
          "system": "http://terminology.hl7.org/CodeSystem/v3-ActCode",
          "code": "AMB",
          "display": "ambulatory",
          "userSelected": true
        },
        "type": [
          {
            "coding": [
              {
                "system": "http://www.ama-assn.org/go/cpt",
                "code": "99385"
              }
            ]
          }
        ],
        "subject": {
          "reference": "Patient/f29ea5d3-61df-48ab-bfa3-ae5c4342308f"
        },
        "period": {
          "start": "2024-12-31T23:59:00.000+00:00",
          "end": "2025-01-01T08:00:00.000+00:00"
        }
      },
      "request": {
        "method": "PUT",
        "url": "Encounter/a5854d3b-75c5-40a9-9913-d31030052777"
      }
    },
    {
      "fullUrl": "https://madie.cms.gov/MeasureReport/27d3549e-9c00-433e-a593-7e01d2cedd7d",
      "resource": {
        "resourceType": "MeasureReport",
        "id": "27d3549e-9c00-433e-a593-7e01d2cedd7d",
        "meta": {
          "profile": [
            "http://hl7.org/fhir/us/cqfmeasures/StructureDefinition/test-case-cqfm"
          ]
        },
        "contained": [
          {
            "resourceType": "Parameters",
            "id": "225ede39-ba35-40e0-8bd6-ca14aaea571e-parameters",
            "parameter": [
              {
                "name": "subject",
                "valueString": "f29ea5d3-61df-48ab-bfa3-ae5c4342308f"
              }
            ]
          }
        ],
        "extension": [
          {
            "url": "http://hl7.org/fhir/us/cqfmeasures/StructureDefinition/cqfm-inputParameters",
            "valueReference": {
              "reference": "#225ede39-ba35-40e0-8bd6-ca14aaea571e-parameters"
            }
          },
          {
            "url": "http://hl7.org/fhir/us/cqfmeasures/StructureDefinition/cqfm-testCaseDescription",
            "valueMarkdown": "Patient qualifies by age but qualifying encounter starts before measurement period start."
          }
        ],
        "modifierExtension": [
          {
            "url": "http://hl7.org/fhir/us/cqfmeasures/StructureDefinition/cqfm-isTestCase",
            "valueBoolean": true
          }
        ],
        "status": "complete",
        "type": "individual",
        "measure": "https://madie.cms.gov/Measure/HIVScreeningFHIR",
        "period": {
          "start": "2025-01-01",
          "end": "2025-12-31"
        },
        "group": [
          {
            "population": [
              {
                "code": {
                  "coding": [
                    {
                      "system": "http://terminology.hl7.org/CodeSystem/measure-population",
                      "code": "initial-population",
                      "display": "Initial Population"
                    }
                  ]
                },
                "count": 0
              },
              {
                "code": {
                  "coding": [
                    {
                      "system": "http://terminology.hl7.org/CodeSystem/measure-population",
                      "code": "denominator",
                      "display": "Denominator"
                    }
                  ]
                },
                "count": 0
              },
              {
                "code": {
                  "coding": [
                    {
                      "system": "http://terminology.hl7.org/CodeSystem/measure-population",
                      "code": "denominator-exclusion",
                      "display": "Denominator Exclusion"
                    }
                  ]
                },
                "count": 0
              },
              {
                "code": {
                  "coding": [
                    {
                      "system": "http://terminology.hl7.org/CodeSystem/measure-population",
                      "code": "numerator",
                      "display": "Numerator"
                    }
                  ]
                },
                "count": 0
              }
            ]
          }
        ],
        "evaluatedResource": [
          {
            "reference": "Patient/f29ea5d3-61df-48ab-bfa3-ae5c4342308f"
          },
          {
            "reference": "Encounter/a5854d3b-75c5-40a9-9913-d31030052777"
          }
        ]
      },
      "request": {
        "method": "PUT",
        "url": "MeasureReport/27d3549e-9c00-433e-a593-7e01d2cedd7d"
      }
    }
  ]
}