{
  "resourceType": "Bundle",
  "id": "6359776b6aee9629c8298235",
  "type": "transaction",
  "entry": [ {
    "fullUrl": "https://madie.cms.gov/Patient/cacdd197-cf7f-4159-ae68-96c6d3ed5ea7",
    "resource": {
      "resourceType": "Patient",
      "id": "cacdd197-cf7f-4159-ae68-96c6d3ed5ea7",
      "meta": {
        "profile": [ "http://hl7.org/fhir/us/qicore/StructureDefinition/qicore-patient" ]
      },
      "text": {
        "status": "generated",
        "div": "<div xmlns=\"http://www.w3.org/1999/xhtml\"><div class=\"hapiHeaderText\">RISKHctRsltDtTimeEQDelStartless1Min <b>RISKPass </b></div><table class=\"hapiPropertyTable\"><tbody><tr><td>Date of birth</td><td><span>01 February 2004</span></td></tr></tbody></table></div>"
      },
      "extension": [ {
        "url": "http://hl7.org/fhir/us/core/StructureDefinition/us-core-race",
        "extension": [ {
          "url": "ombCategory",
          "valueCoding": {
            "system": "urn:oid:2.16.840.1.113883.6.238",
            "code": "1002-5",
            "display": "American Indian or Alaska Native",
            "userSelected": true
          }
        }, {
          "url": "text",
          "valueString": "American Indian or Alaska Native"
        } ]
      }, {
        "url": "http://hl7.org/fhir/us/core/StructureDefinition/us-core-ethnicity",
        "extension": [ {
          "url": "ombCategory",
          "valueCoding": {
            "system": "urn:oid:2.16.840.1.113883.6.238",
            "code": "2135-2",
            "display": "Hispanic or Latino",
            "userSelected": true
          }
        }, {
          "url": "text",
          "valueString": "Hispanic or Latino"
        } ]
      } ],
      "identifier": [ {
        "type": {
          "coding": [ {
            "system": "http://terminology.hl7.org/CodeSystem/v2-0203",
            "code": "MR"
          } ]
        },
        "system": "https://bonnie-fhir.healthit.gov/",
        "value": "6359776b6aee9629c8298235"
      } ],
      "active": true,
      "name": [ {
        "use": "usual",
        "family": "RiskPass",
        "given": [ "RISKHctRsltDtTimeEQDelStartless1Min" ]
      } ],
      "gender": "female",
      "birthDate": "2005-02-01"
    },
    "request": {
      "method": "PUT",
      "url": "Patient/cacdd197-cf7f-4159-ae68-96c6d3ed5ea7"
    }
  }, {
    "fullUrl": "https://madie.cms.gov/Observation/c0b379e2-1f64-4274-848a-1d1d121d768c",
    "resource": {
      "resourceType": "Observation",
      "id": "c0b379e2-1f64-4274-848a-1d1d121d768c",
      "meta": {
        "profile": [ "http://hl7.org/fhir/us/qicore/StructureDefinition/qicore-simple-observation" ]
      },
      "status": "final",
      "category": [ {
        "coding": [ {
          "system": "http://terminology.hl7.org/CodeSystem/observation-category",
          "code": "exam",
          "display": "exam",
          "userSelected": true
        } ]
      } ],
      "code": {
        "coding": [ {
          "system": "http://loinc.org",
          "code": "93857-1"
        } ]
      },
      "subject": {
        "reference": "Patient/cacdd197-cf7f-4159-ae68-96c6d3ed5ea7"
      },
      "effectiveDateTime": "2026-02-01T08:00:00Z",
      "valueDateTime": "2026-02-01T08:00:00Z"
    },
    "request": {
      "method": "PUT",
      "url": "Observation/c0b379e2-1f64-4274-848a-1d1d121d768c"
    }
  }, {
    "fullUrl": "https://madie.cms.gov/Observation/759d2440-51c1-480a-a881-292b1514bfb5",
    "resource": {
      "resourceType": "Observation",
      "id": "759d2440-51c1-480a-a881-292b1514bfb5",
      "meta": {
        "profile": [ "http://hl7.org/fhir/us/qicore/StructureDefinition/qicore-simple-observation" ]
      },
      "status": "final",
      "category": [ {
        "coding": [ {
          "system": "http://terminology.hl7.org/CodeSystem/observation-category",
          "code": "exam",
          "display": "exam",
          "userSelected": true
        } ]
      } ],
      "code": {
        "coding": [ {
          "system": "http://loinc.org",
          "code": "11884-4"
        } ]
      },
      "subject": {
        "reference": "Patient/cacdd197-cf7f-4159-ae68-96c6d3ed5ea7"
      },
      "effectiveDateTime": "2026-02-01T08:00:00Z",
      "valueQuantity": {
        "value": 21,
        "system": "http://unitsofmeasure.org",
        "code": "wk"
      }
    },
    "request": {
      "method": "PUT",
      "url": "Observation/759d2440-51c1-480a-a881-292b1514bfb5"
    }
  }, {
    "fullUrl": "https://madie.cms.gov/Encounter/2e29e0d9-b2e7-4fdd-83d8-148ba5910750",
    "resource": {
      "resourceType": "Encounter",
      "id": "2e29e0d9-b2e7-4fdd-83d8-148ba5910750",
      "meta": {
        "profile": [ "http://hl7.org/fhir/us/qicore/StructureDefinition/qicore-encounter" ]
      },
      "status": "finished",
      "class": {
        "system": "http://terminology.hl7.org/CodeSystem/v3-ActCode",
        "code": "IMP",
        "display": "inpatient encounter"
      },
      "type": [ {
        "coding": [ {
          "system": "http://snomed.info/sct",
          "code": "183452005"
        } ]
      } ],
      "subject": {
        "reference": "Patient/cacdd197-cf7f-4159-ae68-96c6d3ed5ea7"
      },
      "period": {
        "start": "2026-02-01T08:00:00Z",
        "end": "2026-02-05T08:15:00Z"
      }
    },
    "request": {
      "method": "PUT",
      "url": "Encounter/2e29e0d9-b2e7-4fdd-83d8-148ba5910750"
    }
  }, {
    "fullUrl": "https://madie.cms.gov/Encounter/7a7f163e-fe3f-493f-b308-d94b7c36939f",
    "resource": {
      "resourceType": "Encounter",
      "id": "7a7f163e-fe3f-493f-b308-d94b7c36939f",
      "meta": {
        "profile": [ "http://hl7.org/fhir/us/qicore/StructureDefinition/qicore-encounter" ]
      },
      "status": "finished",
      "class": {
        "system": "http://terminology.hl7.org/CodeSystem/v3-ActCode",
        "code": "EMER",
        "display": "emergency"
      },
      "type": [ {
        "coding": [ {
          "system": "http://snomed.info/sct",
          "code": "4525004"
        } ]
      } ],
      "subject": {
        "reference": "Patient/cacdd197-cf7f-4159-ae68-96c6d3ed5ea7"
      },
      "period": {
        "start": "2026-02-01T07:00:00Z",
        "end": "2026-02-01T07:59:00Z"
      }
    },
    "request": {
      "method": "PUT",
      "url": "Encounter/7a7f163e-fe3f-493f-b308-d94b7c36939f"
    }
  }, {
    "fullUrl": "https://madie.cms.gov/Procedure/c44170c5-450e-420d-869a-04b25a1795ac",
    "resource": {
      "resourceType": "Procedure",
      "id": "c44170c5-450e-420d-869a-04b25a1795ac",
      "meta": {
        "profile": [ "http://hl7.org/fhir/us/qicore/StructureDefinition/qicore-procedure" ]
      },
      "extension": [ {
        "url": "http://hl7.org/fhir/us/qicore/StructureDefinition/qicore-recorded",
        "valueDateTime": "2026-02-04T13:35:00Z"
      } ],
      "status": "completed",
      "code": {
        "coding": [ {
          "system": "http://snomed.info/sct",
          "code": "10745001"
        } ]
      },
      "subject": {
        "reference": "Patient/cacdd197-cf7f-4159-ae68-96c6d3ed5ea7"
      },
      "performedPeriod": {
        "start": "2026-02-01T08:00:00Z",
        "end": "2026-02-05T08:15:00Z"
      }
    },
    "request": {
      "method": "PUT",
      "url": "Procedure/c44170c5-450e-420d-869a-04b25a1795ac"
    }
  }, {
    "fullUrl": "https://madie.cms.gov/Observation/2c7ee923-a86e-420a-ad57-a41636188791",
    "resource": {
      "resourceType": "Observation",
      "id": "2c7ee923-a86e-420a-ad57-a41636188791",
      "meta": {
        "profile": [ "http://hl7.org/fhir/us/qicore/StructureDefinition/qicore-observation-lab" ]
      },
      "status": "final",
      "category": [ {
        "coding": [ {
          "system": "http://terminology.hl7.org/CodeSystem/observation-category",
          "code": "laboratory",
          "display": "laboratory",
          "userSelected": true
        } ]
      } ],
      "code": {
        "coding": [ {
          "system": "http://loinc.org",
          "version": "2.73",
          "code": "20570-8",
          "display": "Hematocrit [Volume Fraction] in Blood",
          "userSelected": true
        } ]
      },
      "subject": {
        "reference": "Patient/cacdd197-cf7f-4159-ae68-96c6d3ed5ea7"
      },
      "effectiveDateTime": "2026-02-01T07:59:00Z",
      "issued": "2026-02-01T07:59:00Z",
      "valueQuantity": {
        "value": 20,
        "unit": "%"
      }
    },
    "request": {
      "method": "PUT",
      "url": "Observation/2c7ee923-a86e-420a-ad57-a41636188791"
    }
  }, {
    "fullUrl": "https://madie.cms.gov/MeasureReport/b9a22c80-73ad-4632-9d25-9557bc275922",
    "resource": {
      "resourceType": "MeasureReport",
      "id": "b9a22c80-73ad-4632-9d25-9557bc275922",
      "meta": {
        "profile": [ "http://hl7.org/fhir/us/cqfmeasures/StructureDefinition/test-case-cqfm" ]
      },
      "contained": [ {
        "resourceType": "Parameters",
        "id": "4f65b408-55c4-435e-9e92-9ce12dad474e-parameters",
        "parameter": [ {
          "name": "subject",
          "valueString": "cacdd197-cf7f-4159-ae68-96c6d3ed5ea7"
        } ]
      } ],
      "extension": [ {
        "url": "http://hl7.org/fhir/StructureDefinition/cqf-inputParameters",
        "valueReference": {
          "reference": "#4f65b408-55c4-435e-9e92-9ce12dad474e-parameters"
        }
      }, {
        "url": "http://hl7.org/fhir/us/cqfmeasures/StructureDefinition/cqfm-testCaseDescription",
        "valueMarkdown": "Patient with hematocrit result date/time = delivery date/time minus 1 minute\n"
      } ],
      "modifierExtension": [ {
        "url": "http://hl7.org/fhir/us/cqfmeasures/StructureDefinition/cqfm-isTestCase",
        "valueBoolean": true
      } ],
      "status": "complete",
      "type": "individual",
      "measure": "https://madie.cms.gov/Measure/CMS1028FHIRPCSevereOBComps",
      "period": {
        "start": "2026-01-01",
        "end": "2026-12-31"
      },
      "group": [ {
        "id": "Group_1",
        "population": [ {
          "id": "InitialPopulation_1",
          "code": {
            "coding": [ {
              "system": "http://terminology.hl7.org/CodeSystem/measure-population",
              "code": "initial-population",
              "display": "Initial Population"
            } ]
          },
          "count": 1
        }, {
          "id": "Denominator_1",
          "code": {
            "coding": [ {
              "system": "http://terminology.hl7.org/CodeSystem/measure-population",
              "code": "denominator",
              "display": "Denominator"
            } ]
          },
          "count": 1
        }, {
          "id": "Numerator_1",
          "code": {
            "coding": [ {
              "system": "http://terminology.hl7.org/CodeSystem/measure-population",
              "code": "numerator",
              "display": "Numerator"
            } ]
          },
          "count": 0
        }, {
          "id": "NumeratorExclusion_1",
          "code": {
            "coding": [ {
              "system": "http://terminology.hl7.org/CodeSystem/measure-population",
              "code": "numerator-exclusion",
              "display": "Numerator Exclusion"
            } ]
          },
          "count": 0
        } ],
        "measureScore": {
          "value": 0.0
        }
      }, {
        "id": "Group_2",
        "population": [ {
          "id": "InitialPopulation_2",
          "code": {
            "coding": [ {
              "system": "http://terminology.hl7.org/CodeSystem/measure-population",
              "code": "initial-population",
              "display": "Initial Population"
            } ]
          },
          "count": 1
        }, {
          "id": "Denominator_2",
          "code": {
            "coding": [ {
              "system": "http://terminology.hl7.org/CodeSystem/measure-population",
              "code": "denominator",
              "display": "Denominator"
            } ]
          },
          "count": 1
        }, {
          "id": "Numerator_2",
          "code": {
            "coding": [ {
              "system": "http://terminology.hl7.org/CodeSystem/measure-population",
              "code": "numerator",
              "display": "Numerator"
            } ]
          },
          "count": 0
        }, {
          "id": "NumeratorExclusion_2",
          "code": {
            "coding": [ {
              "system": "http://terminology.hl7.org/CodeSystem/measure-population",
              "code": "numerator-exclusion",
              "display": "Numerator Exclusion"
            } ]
          },
          "count": 0
        } ],
        "measureScore": {
          "value": 0.0
        }
      } ],
      "evaluatedResource": [ {
        "reference": "Patient/cacdd197-cf7f-4159-ae68-96c6d3ed5ea7"
      }, {
        "reference": "Observation/c0b379e2-1f64-4274-848a-1d1d121d768c"
      }, {
        "reference": "Observation/759d2440-51c1-480a-a881-292b1514bfb5"
      }, {
        "reference": "Encounter/2e29e0d9-b2e7-4fdd-83d8-148ba5910750"
      }, {
        "reference": "Encounter/7a7f163e-fe3f-493f-b308-d94b7c36939f"
      }, {
        "reference": "Procedure/c44170c5-450e-420d-869a-04b25a1795ac"
      }, {
        "reference": "Observation/2c7ee923-a86e-420a-ad57-a41636188791"
      } ]
    },
    "request": {
      "method": "PUT",
      "url": "MeasureReport/b9a22c80-73ad-4632-9d25-9557bc275922"
    }
  } ]
}