{"resourceType":"Bundle","id":"tests-3ee1e306-f3db-4d13-b6ab-b1388a23b378-bundle","type":"transaction","entry":[{"resource":{"resourceType":"Condition","id":"d11704b8-09d7-4781-ba17-4c5e3be56f1d","meta":{"profile":["http://hl7.org/fhir/us/qicore/StructureDefinition/qicore-condition-encounter-diagnosis"]},"category":[{"coding":[{"system":"http://terminology.hl7.org/CodeSystem/condition-category","code":"encounter-diagnosis","display":"Encounter Diagnosis"}]}],"code":{"coding":[{"system":"http://snomed.info/sct","version":"2023-09","code":"10349009","display":"Multi-infarct dementia with delirium (disorder)","userSelected":true}]},"subject":{"reference":"Patient/3ee1e306-f3db-4d13-b6ab-b1388a23b378"},"recordedDate":"2027-04-09T08:00:00.000+00:00"},"request":{"method":"PUT","url":"Condition/d11704b8-09d7-4781-ba17-4c5e3be56f1d"}},{"resource":{"resourceType":"Location","id":"5af204de-88a6-4479-8579-677939178a72","meta":{"profile":["http://hl7.org/fhir/us/qicore/StructureDefinition/qicore-location"]},"identifier":[{"use":"usual","system":"http://exampleoflocation.com","value":"B1-S.F2"}],"name":"Medical Surgical East, first floor","type":[{"coding":[{"system":"https://www.cdc.gov/nhsn/cdaportal/terminology/codesystem/hsloc.html","version":"2022","code":"1108-0","display":"Emergency Department","userSelected":true}]}]},"request":{"method":"PUT","url":"Location/5af204de-88a6-4479-8579-677939178a72"}},{"resource":{"resourceType":"Practitioner","id":"227fad1a-d6a1-48a3-b7c2-4895a0034136","meta":{"profile":["http://hl7.org/fhir/us/qicore/StructureDefinition/qicore-practitioner"]},"identifier":[{"system":"http://hl7.org/fhir/sid/us-npi","value":"9999999896"}],"name":[{"family":"Evil","prefix":["Dr"]}]},"request":{"method":"PUT","url":"Practitioner/227fad1a-d6a1-48a3-b7c2-4895a0034136"}},{"resource":{"resourceType":"Encounter","id":"4743bc38-31c6-4d83-9178-12142816c5ca","meta":{"profile":["http://hl7.org/fhir/us/qicore/StructureDefinition/qicore-encounter"]},"status":"finished","class":{"system":"http://terminology.hl7.org/CodeSystem/v3-ActCode","code":"IMP","display":"inpatient encounter"},"type":[{"coding":[{"system":"http://snomed.info/sct","version":"2023-09","code":"183452005","display":"Emergency hospital admission (procedure)","userSelected":true}]}],"subject":{"reference":"Patient/3ee1e306-f3db-4d13-b6ab-b1388a23b378"},"period":{"start":"2027-05-01T09:00:00.000+00:00","end":"2027-05-03T06:15:00.000+00:00"}},"request":{"method":"PUT","url":"Encounter/4743bc38-31c6-4d83-9178-12142816c5ca"}},{"resource":{"resourceType":"Encounter","id":"e3349082-053b-4308-ad04-a88f88aeb84f","meta":{"profile":["http://hl7.org/fhir/us/qicore/StructureDefinition/qicore-encounter"]},"status":"finished","class":{"system":"http://terminology.hl7.org/CodeSystem/v3-ActCode","code":"EMER","display":"emergency department"},"type":[{"coding":[{"system":"http://snomed.info/sct","version":"2023-09","code":"4525004","display":"Emergency department patient visit (procedure)","userSelected":true}]}],"subject":{"reference":"Patient/3ee1e306-f3db-4d13-b6ab-b1388a23b378"},"period":{"start":"2027-05-01T06:00:00.000+00:00","end":"2027-05-01T13:15:00.000+00:00"},"diagnosis":[{"condition":{"reference":"Condition/d11704b8-09d7-4781-ba17-4c5e3be56f1d"},"use":{"coding":[{"system":"http://terminology.hl7.org/CodeSystem/diagnosis-role","code":"billing"}]},"rank":1}],"location":[{"location":{"reference":"Location/5af204de-88a6-4479-8579-677939178a72"},"period":{"start":"2027-05-01T06:00:00.000+00:00","end":"2027-05-01T13:15:00.000+00:00"}}]},"request":{"method":"PUT","url":"Encounter/e3349082-053b-4308-ad04-a88f88aeb84f"}},{"resource":{"resourceType":"Patient","id":"3ee1e306-f3db-4d13-b6ab-b1388a23b378","meta":{"profile":["http://hl7.org/fhir/us/qicore/StructureDefinition/qicore-patient"]},"extension":[{"url":"http://hl7.org/fhir/us/core/StructureDefinition/us-core-race","extension":[{"url":"ombCategory","valueCoding":{"system":"urn:oid:2.16.840.1.113883.6.238","code":"1002-5","display":"American Indian or Alaska Native","userSelected":true}},{"url":"text","valueString":"American Indian or Alaska Native"}]},{"url":"http://hl7.org/fhir/us/core/StructureDefinition/us-core-ethnicity","extension":[{"url":"ombCategory","valueCoding":{"system":"urn:oid:2.16.840.1.113883.6.238","code":"2135-2","display":"Hispanic or Latino","userSelected":true}},{"url":"text","valueString":"Hispanic or Latino"}]},{"url":"http://hl7.org/fhir/us/core/StructureDefinition/us-core-sex","valueCode":"248153007"}],"identifier":[{"type":{"coding":[{"system":"http://terminology.hl7.org/CodeSystem/v2-0203","code":"MR"}]},"system":"https://bonnie-fhir.healthit.gov/","value":"661476b015ed5841a5547ebf"}],"name":[{"family":"NUMERStrat4Pass","given":["AdmittedInpatient"]}],"gender":"male","birthDate":"2009-01-01"},"request":{"method":"PUT","url":"Patient/3ee1e306-f3db-4d13-b6ab-b1388a23b378"}},{"resource":{"resourceType":"Coverage","id":"73bfe8f6-d4e5-4b72-ae89-66f5886379b4","meta":{"profile":["http://hl7.org/fhir/us/qicore/StructureDefinition/qicore-coverage"]},"identifier":[{"type":{"coding":[{"system":"http://terminology.hl7.org/CodeSystem/v2-0203","code":"MB"}]}}],"status":"active","beneficiary":{"reference":"Patient/3ee1e306-f3db-4d13-b6ab-b1388a23b378"},"relationship":{"coding":[{"system":"http://terminology.hl7.org/CodeSystem/subscriber-relationship","code":"self"}]},"payor":[{"reference":"Organization/0e9e2dd3-fec2-4240-9128-095ffa88f82c"}]},"request":{"method":"PUT","url":"Coverage/73bfe8f6-d4e5-4b72-ae89-66f5886379b4"}},{"resource":{"resourceType":"Claim","id":"ClaimBehavior-NotSubsAbuse","meta":{"profile":["http://hl7.org/fhir/us/qicore/StructureDefinition/qicore-claim"]},"status":"active","type":{"coding":[{"system":"http://terminology.hl7.org/CodeSystem/claim-type","code":"institutional"}]},"use":"claim","patient":{"reference":"Patient/3ee1e306-f3db-4d13-b6ab-b1388a23b378"},"created":"2027-05-01","provider":{"reference":"Practitioner/227fad1a-d6a1-48a3-b7c2-4895a0034136"},"priority":{"coding":[{"system":"http://terminology.hl7.org/CodeSystem/processpriority","code":"normal"}]},"diagnosis":[{"sequence":1,"diagnosisReference":{"reference":"Condition/d11704b8-09d7-4781-ba17-4c5e3be56f1d"},"type":[{"coding":[{"system":"http://terminology.hl7.org/CodeSystem/ex-diagnosistype","code":"principal"}]}]}],"insurance":[{"sequence":1,"focal":true,"coverage":{"reference":"Coverage/73bfe8f6-d4e5-4b72-ae89-66f5886379b4"}}],"item":[{"sequence":1,"diagnosisSequence":[1],"productOrService":{"coding":[{"system":"http://terminology.hl7.org/CodeSystem/ex-USCLS","code":"99555"}]},"encounter":[{"reference":"Encounter/e3349082-053b-4308-ad04-a88f88aeb84f"}]}]},"request":{"method":"PUT","url":"Claim/ClaimBehavior-NotSubsAbuse"}},{"resource":{"resourceType":"Bundle","id":"661476b015ed5841a5547ebf","type":"transaction","entry":[{"fullUrl":"https://madie.cms.gov/Patient/3ee1e306-f3db-4d13-b6ab-b1388a23b378","resource":{"resourceType":"Patient","id":"3ee1e306-f3db-4d13-b6ab-b1388a23b378","meta":{"profile":["http://hl7.org/fhir/us/qicore/StructureDefinition/qicore-patient"]},"extension":[{"url":"http://hl7.org/fhir/us/core/StructureDefinition/us-core-race","extension":[{"url":"ombCategory","valueCoding":{"system":"urn:oid:2.16.840.1.113883.6.238","code":"1002-5","display":"American Indian or Alaska Native","userSelected":true}},{"url":"text","valueString":"American Indian or Alaska Native"}]},{"url":"http://hl7.org/fhir/us/core/StructureDefinition/us-core-ethnicity","extension":[{"url":"ombCategory","valueCoding":{"system":"urn:oid:2.16.840.1.113883.6.238","code":"2135-2","display":"Hispanic or Latino","userSelected":true}},{"url":"text","valueString":"Hispanic or Latino"}]},{"url":"http://hl7.org/fhir/us/core/StructureDefinition/us-core-sex","valueCode":"248153007"}],"identifier":[{"type":{"coding":[{"system":"http://terminology.hl7.org/CodeSystem/v2-0203","code":"MR"}]},"system":"https://bonnie-fhir.healthit.gov/","value":"661476b015ed5841a5547ebf"}],"name":[{"family":"NUMERStrat4Pass","given":["AdmittedInpatient"]}],"gender":"male","birthDate":"2009-01-01"},"request":{"method":"PUT","url":"Patient/3ee1e306-f3db-4d13-b6ab-b1388a23b378"}},{"fullUrl":"https://madie.cms.gov/Encounter/e3349082-053b-4308-ad04-a88f88aeb84f","resource":{"resourceType":"Encounter","id":"e3349082-053b-4308-ad04-a88f88aeb84f","meta":{"profile":["http://hl7.org/fhir/us/qicore/StructureDefinition/qicore-encounter"]},"status":"finished","class":{"system":"http://terminology.hl7.org/CodeSystem/v3-ActCode","code":"EMER","display":"emergency department"},"type":[{"coding":[{"system":"http://snomed.info/sct","version":"2023-09","code":"4525004","display":"Emergency department patient visit (procedure)","userSelected":true}]}],"subject":{"reference":"Patient/3ee1e306-f3db-4d13-b6ab-b1388a23b378"},"period":{"start":"2027-05-01T06:00:00.000+00:00","end":"2027-05-01T13:15:00.000+00:00"},"diagnosis":[{"condition":{"reference":"Condition/d11704b8-09d7-4781-ba17-4c5e3be56f1d"},"use":{"coding":[{"system":"http://terminology.hl7.org/CodeSystem/diagnosis-role","code":"billing"}]},"rank":1}],"location":[{"location":{"reference":"Location/5af204de-88a6-4479-8579-677939178a72"},"period":{"start":"2027-05-01T06:00:00.000+00:00","end":"2027-05-01T13:15:00.000+00:00"}}]},"request":{"method":"PUT","url":"Encounter/e3349082-053b-4308-ad04-a88f88aeb84f"}},{"fullUrl":"https://madie.cms.gov/Encounter/4743bc38-31c6-4d83-9178-12142816c5ca","resource":{"resourceType":"Encounter","id":"4743bc38-31c6-4d83-9178-12142816c5ca","meta":{"profile":["http://hl7.org/fhir/us/qicore/StructureDefinition/qicore-encounter"]},"status":"finished","class":{"system":"http://terminology.hl7.org/CodeSystem/v3-ActCode","code":"IMP","display":"inpatient encounter"},"type":[{"coding":[{"system":"http://snomed.info/sct","version":"2023-09","code":"183452005","display":"Emergency hospital admission (procedure)","userSelected":true}]}],"subject":{"reference":"Patient/3ee1e306-f3db-4d13-b6ab-b1388a23b378"},"period":{"start":"2027-05-01T09:00:00.000+00:00","end":"2027-05-03T06:15:00.000+00:00"}},"request":{"method":"PUT","url":"Encounter/4743bc38-31c6-4d83-9178-12142816c5ca"}},{"fullUrl":"https://madie.cms.gov/Location/5af204de-88a6-4479-8579-677939178a72","resource":{"resourceType":"Location","id":"5af204de-88a6-4479-8579-677939178a72","meta":{"profile":["http://hl7.org/fhir/us/qicore/StructureDefinition/qicore-location"]},"identifier":[{"use":"usual","system":"http://exampleoflocation.com","value":"B1-S.F2"}],"name":"Medical Surgical East, first floor","type":[{"coding":[{"system":"https://www.cdc.gov/nhsn/cdaportal/terminology/codesystem/hsloc.html","version":"2022","code":"1108-0","display":"Emergency Department","userSelected":true}]}]},"request":{"method":"PUT","url":"Location/5af204de-88a6-4479-8579-677939178a72"}},{"fullUrl":"https://madie.cms.gov/Coverage/73bfe8f6-d4e5-4b72-ae89-66f5886379b4","resource":{"resourceType":"Coverage","id":"73bfe8f6-d4e5-4b72-ae89-66f5886379b4","meta":{"profile":["http://hl7.org/fhir/us/qicore/StructureDefinition/qicore-coverage"]},"identifier":[{"type":{"coding":[{"system":"http://terminology.hl7.org/CodeSystem/v2-0203","code":"MB"}]}}],"status":"active","beneficiary":{"reference":"Patient/3ee1e306-f3db-4d13-b6ab-b1388a23b378"},"relationship":{"coding":[{"system":"http://terminology.hl7.org/CodeSystem/subscriber-relationship","code":"self"}]},"payor":[{"reference":"Organization/0e9e2dd3-fec2-4240-9128-095ffa88f82c"}]},"request":{"method":"PUT","url":"Coverage/73bfe8f6-d4e5-4b72-ae89-66f5886379b4"}},{"fullUrl":"https://madie.cms.gov/Condition/d11704b8-09d7-4781-ba17-4c5e3be56f1d","resource":{"resourceType":"Condition","id":"d11704b8-09d7-4781-ba17-4c5e3be56f1d","meta":{"profile":["http://hl7.org/fhir/us/qicore/StructureDefinition/qicore-condition-encounter-diagnosis"]},"category":[{"coding":[{"system":"http://terminology.hl7.org/CodeSystem/condition-category","code":"encounter-diagnosis","display":"Encounter Diagnosis"}]}],"code":{"coding":[{"system":"http://snomed.info/sct","version":"2023-09","code":"10349009","display":"Multi-infarct dementia with delirium (disorder)","userSelected":true}]},"subject":{"reference":"Patient/3ee1e306-f3db-4d13-b6ab-b1388a23b378"},"recordedDate":"2027-04-09T08:00:00.000+00:00"},"request":{"method":"PUT","url":"Condition/d11704b8-09d7-4781-ba17-4c5e3be56f1d"}},{"fullUrl":"https://madie.cms.gov/claim/ClaimBehavior-NotSubsAbuse","resource":{"resourceType":"Claim","id":"ClaimBehavior-NotSubsAbuse","meta":{"profile":["http://hl7.org/fhir/us/qicore/StructureDefinition/qicore-claim"]},"status":"active","type":{"coding":[{"system":"http://terminology.hl7.org/CodeSystem/claim-type","code":"institutional"}]},"use":"claim","patient":{"reference":"Patient/3ee1e306-f3db-4d13-b6ab-b1388a23b378"},"created":"2027-05-01","provider":{"reference":"Practitioner/227fad1a-d6a1-48a3-b7c2-4895a0034136"},"priority":{"coding":[{"system":"http://terminology.hl7.org/CodeSystem/processpriority","code":"normal"}]},"diagnosis":[{"sequence":1,"diagnosisReference":{"reference":"Condition/d11704b8-09d7-4781-ba17-4c5e3be56f1d"},"type":[{"coding":[{"system":"http://terminology.hl7.org/CodeSystem/ex-diagnosistype","code":"principal"}]}]}],"insurance":[{"sequence":1,"focal":true,"coverage":{"reference":"Coverage/73bfe8f6-d4e5-4b72-ae89-66f5886379b4"}}],"item":[{"sequence":1,"diagnosisSequence":[1],"productOrService":{"coding":[{"system":"http://terminology.hl7.org/CodeSystem/ex-USCLS","code":"99555"}]},"encounter":[{"reference":"Encounter/e3349082-053b-4308-ad04-a88f88aeb84f"}]}]},"request":{"method":"PUT","url":"Claim/ClaimBehavior-NotSubsAbuse"}},{"fullUrl":"https://madie.cms.gov/Organization/0e9e2dd3-fec2-4240-9128-095ffa88f82c","resource":{"resourceType":"Organization","id":"0e9e2dd3-fec2-4240-9128-095ffa88f82c","meta":{"profile":["http://hl7.org/fhir/us/qicore/StructureDefinition/qicore-organization"]},"identifier":[{"use":"temp","system":"urn:oid:2.16.840.1.113883.4.4","value":"21-3259825"}],"active":true,"type":[{"coding":[{"system":"http://terminology.hl7.org/CodeSystem/organization-type","code":"pay","display":"Payer"}]}],"name":"Blue Cross Blue Shield of Texas","telecom":[{"system":"phone","value":"(+1) 972-766-6900"}],"address":[{"use":"billing","type":"postal","line":["P.O. Box 660044"],"city":"Dallas","state":"TX","postalCode":"75266-0044","country":"USA"}]},"request":{"method":"PUT","url":"Organization/0e9e2dd3-fec2-4240-9128-095ffa88f82c"}},{"fullUrl":"https://madie.cms.gov/Practitioner/227fad1a-d6a1-48a3-b7c2-4895a0034136","resource":{"resourceType":"Practitioner","id":"227fad1a-d6a1-48a3-b7c2-4895a0034136","meta":{"profile":["http://hl7.org/fhir/us/qicore/StructureDefinition/qicore-practitioner"]},"identifier":[{"system":"http://hl7.org/fhir/sid/us-npi","value":"9999999896"}],"name":[{"family":"Evil","prefix":["Dr"]}]},"request":{"method":"PUT","url":"Practitioner/227fad1a-d6a1-48a3-b7c2-4895a0034136"}},{"fullUrl":"https://madie.cms.gov/MeasureReport/d3d5acc8-b03d-4fa9-9ebc-b06249e85247","resource":{"resourceType":"MeasureReport","id":"d3d5acc8-b03d-4fa9-9ebc-b06249e85247","meta":{"profile":["http://hl7.org/fhir/us/cqfmeasures/StructureDefinition/test-case-cqfm"]},"contained":[{"resourceType":"Parameters","id":"fe1c548f-067b-4aae-b59d-0aea085af592-parameters","parameter":[{"name":"subject","valueString":"3ee1e306-f3db-4d13-b6ab-b1388a23b378"}]}],"extension":[{"url":"http://hl7.org/fhir/StructureDefinition/cqf-inputParameters","valueReference":{"reference":"#fe1c548f-067b-4aae-b59d-0aea085af592-parameters"}},{"url":"http://hl7.org/fhir/us/cqfmeasures/StructureDefinition/cqfm-testCaseDescription","valueMarkdown":"Adult, age 18 ED enc first day of MP,  admitted to inpatient (resource: encounter) with behavioral health dx"}],"modifierExtension":[{"url":"http://hl7.org/fhir/us/cqfmeasures/StructureDefinition/cqfm-isTestCase","valueBoolean":true}],"status":"complete","type":"individual","measure":"https://madie.cms.gov/Measure/CMS1244FHIRECATHOQR","period":{"start":"2027-01-01","end":"2027-12-31"},"group":[{"id":"Group_1","population":[{"id":"InitialPopulation_1","code":{"coding":[{"system":"http://terminology.hl7.org/CodeSystem/measure-population","code":"initial-population","display":"Initial Population"}]},"count":1},{"id":"Denominator_1","code":{"coding":[{"system":"http://terminology.hl7.org/CodeSystem/measure-population","code":"denominator","display":"Denominator"}]},"count":1},{"id":"Numerator_1","code":{"coding":[{"system":"http://terminology.hl7.org/CodeSystem/measure-population","code":"numerator","display":"Numerator"}]},"count":1}],"measureScore":{"value":0.0},"stratifier":[{"id":"Stratification_1_1","code":[{"text":"Strata-1"}],"stratum":[{"value":{"text":"Strata-1"},"population":[{"id":"InitialPopulation_1","code":{"coding":[{"system":"http://terminology.hl7.org/CodeSystem/measure-population","code":"initial-population","display":"Initial Population"}]},"count":0},{"id":"Denominator_1","code":{"coding":[{"system":"http://terminology.hl7.org/CodeSystem/measure-population","code":"denominator","display":"Denominator"}]},"count":0},{"id":"Numerator_1","code":{"coding":[{"system":"http://terminology.hl7.org/CodeSystem/measure-population","code":"numerator","display":"Numerator"}]},"count":0}]}]},{"id":"Stratification_1_2","code":[{"text":"Strata-2"}],"stratum":[{"value":{"text":"Strata-2"},"population":[{"id":"InitialPopulation_1","code":{"coding":[{"system":"http://terminology.hl7.org/CodeSystem/measure-population","code":"initial-population","display":"Initial Population"}]},"count":0},{"id":"Denominator_1","code":{"coding":[{"system":"http://terminology.hl7.org/CodeSystem/measure-population","code":"denominator","display":"Denominator"}]},"count":0},{"id":"Numerator_1","code":{"coding":[{"system":"http://terminology.hl7.org/CodeSystem/measure-population","code":"numerator","display":"Numerator"}]},"count":0}]}]},{"id":"Stratification_1_3","code":[{"text":"Strata-3"}],"stratum":[{"value":{"text":"Strata-3"},"population":[{"id":"InitialPopulation_1","code":{"coding":[{"system":"http://terminology.hl7.org/CodeSystem/measure-population","code":"initial-population","display":"Initial Population"}]},"count":0},{"id":"Denominator_1","code":{"coding":[{"system":"http://terminology.hl7.org/CodeSystem/measure-population","code":"denominator","display":"Denominator"}]},"count":0},{"id":"Numerator_1","code":{"coding":[{"system":"http://terminology.hl7.org/CodeSystem/measure-population","code":"numerator","display":"Numerator"}]},"count":0}]}]},{"id":"Stratification_1_4","code":[{"text":"Strata-4"}],"stratum":[{"value":{"text":"Strata-4"},"population":[{"id":"InitialPopulation_1","code":{"coding":[{"system":"http://terminology.hl7.org/CodeSystem/measure-population","code":"initial-population","display":"Initial Population"}]},"count":1},{"id":"Denominator_1","code":{"coding":[{"system":"http://terminology.hl7.org/CodeSystem/measure-population","code":"denominator","display":"Denominator"}]},"count":1},{"id":"Numerator_1","code":{"coding":[{"system":"http://terminology.hl7.org/CodeSystem/measure-population","code":"numerator","display":"Numerator"}]},"count":1}]}]}]}],"evaluatedResource":[{"reference":"Patient/3ee1e306-f3db-4d13-b6ab-b1388a23b378"},{"reference":"Encounter/e3349082-053b-4308-ad04-a88f88aeb84f"},{"reference":"Encounter/4743bc38-31c6-4d83-9178-12142816c5ca"},{"reference":"Location/5af204de-88a6-4479-8579-677939178a72"},{"reference":"Coverage/73bfe8f6-d4e5-4b72-ae89-66f5886379b4"},{"reference":"Condition/d11704b8-09d7-4781-ba17-4c5e3be56f1d"},{"reference":"Claim/ClaimBehavior-NotSubsAbuse"},{"reference":"Organization/0e9e2dd3-fec2-4240-9128-095ffa88f82c"},{"reference":"Practitioner/227fad1a-d6a1-48a3-b7c2-4895a0034136"}]},"request":{"method":"PUT","url":"MeasureReport/d3d5acc8-b03d-4fa9-9ebc-b06249e85247"}}]},"request":{"method":"PUT","url":"Bundle/661476b015ed5841a5547ebf"}},{"resource":{"resourceType":"Organization","id":"0e9e2dd3-fec2-4240-9128-095ffa88f82c","meta":{"profile":["http://hl7.org/fhir/us/qicore/StructureDefinition/qicore-organization"]},"identifier":[{"use":"temp","system":"urn:oid:2.16.840.1.113883.4.4","value":"21-3259825"}],"active":true,"type":[{"coding":[{"system":"http://terminology.hl7.org/CodeSystem/organization-type","code":"pay","display":"Payer"}]}],"name":"Blue Cross Blue Shield of Texas","telecom":[{"system":"phone","value":"(+1) 972-766-6900"}],"address":[{"use":"billing","type":"postal","line":["P.O. Box 660044"],"city":"Dallas","state":"TX","postalCode":"75266-0044","country":"USA"}]},"request":{"method":"PUT","url":"Organization/0e9e2dd3-fec2-4240-9128-095ffa88f82c"}},{"resource":{"resourceType":"MeasureReport","id":"d3d5acc8-b03d-4fa9-9ebc-b06249e85247","meta":{"profile":["http://hl7.org/fhir/us/cqfmeasures/StructureDefinition/test-case-cqfm"]},"contained":[{"resourceType":"Parameters","id":"fe1c548f-067b-4aae-b59d-0aea085af592-parameters","parameter":[{"name":"subject","valueString":"3ee1e306-f3db-4d13-b6ab-b1388a23b378"}]}],"extension":[{"url":"http://hl7.org/fhir/StructureDefinition/cqf-inputParameters","valueReference":{"reference":"#fe1c548f-067b-4aae-b59d-0aea085af592-parameters"}},{"url":"http://hl7.org/fhir/us/cqfmeasures/StructureDefinition/cqfm-testCaseDescription","valueMarkdown":"Adult, age 18 ED enc first day of MP,  admitted to inpatient (resource: encounter) with behavioral health dx"}],"modifierExtension":[{"url":"http://hl7.org/fhir/us/cqfmeasures/StructureDefinition/cqfm-isTestCase","valueBoolean":true}],"status":"complete","type":"individual","measure":"https://madie.cms.gov/Measure/CMS1244FHIRECATHOQR","period":{"start":"2027-01-01","end":"2027-12-31"},"group":[{"id":"Group_1","population":[{"id":"InitialPopulation_1","code":{"coding":[{"system":"http://terminology.hl7.org/CodeSystem/measure-population","code":"initial-population","display":"Initial Population"}]},"count":1},{"id":"Denominator_1","code":{"coding":[{"system":"http://terminology.hl7.org/CodeSystem/measure-population","code":"denominator","display":"Denominator"}]},"count":1},{"id":"Numerator_1","code":{"coding":[{"system":"http://terminology.hl7.org/CodeSystem/measure-population","code":"numerator","display":"Numerator"}]},"count":1}],"measureScore":{"value":0.0},"stratifier":[{"id":"Stratification_1_1","code":[{"text":"Strata-1"}],"stratum":[{"value":{"text":"Strata-1"},"population":[{"id":"InitialPopulation_1","code":{"coding":[{"system":"http://terminology.hl7.org/CodeSystem/measure-population","code":"initial-population","display":"Initial Population"}]},"count":0},{"id":"Denominator_1","code":{"coding":[{"system":"http://terminology.hl7.org/CodeSystem/measure-population","code":"denominator","display":"Denominator"}]},"count":0},{"id":"Numerator_1","code":{"coding":[{"system":"http://terminology.hl7.org/CodeSystem/measure-population","code":"numerator","display":"Numerator"}]},"count":0}]}]},{"id":"Stratification_1_2","code":[{"text":"Strata-2"}],"stratum":[{"value":{"text":"Strata-2"},"population":[{"id":"InitialPopulation_1","code":{"coding":[{"system":"http://terminology.hl7.org/CodeSystem/measure-population","code":"initial-population","display":"Initial Population"}]},"count":0},{"id":"Denominator_1","code":{"coding":[{"system":"http://terminology.hl7.org/CodeSystem/measure-population","code":"denominator","display":"Denominator"}]},"count":0},{"id":"Numerator_1","code":{"coding":[{"system":"http://terminology.hl7.org/CodeSystem/measure-population","code":"numerator","display":"Numerator"}]},"count":0}]}]},{"id":"Stratification_1_3","code":[{"text":"Strata-3"}],"stratum":[{"value":{"text":"Strata-3"},"population":[{"id":"InitialPopulation_1","code":{"coding":[{"system":"http://terminology.hl7.org/CodeSystem/measure-population","code":"initial-population","display":"Initial Population"}]},"count":0},{"id":"Denominator_1","code":{"coding":[{"system":"http://terminology.hl7.org/CodeSystem/measure-population","code":"denominator","display":"Denominator"}]},"count":0},{"id":"Numerator_1","code":{"coding":[{"system":"http://terminology.hl7.org/CodeSystem/measure-population","code":"numerator","display":"Numerator"}]},"count":0}]}]},{"id":"Stratification_1_4","code":[{"text":"Strata-4"}],"stratum":[{"value":{"text":"Strata-4"},"population":[{"id":"InitialPopulation_1","code":{"coding":[{"system":"http://terminology.hl7.org/CodeSystem/measure-population","code":"initial-population","display":"Initial Population"}]},"count":1},{"id":"Denominator_1","code":{"coding":[{"system":"http://terminology.hl7.org/CodeSystem/measure-population","code":"denominator","display":"Denominator"}]},"count":1},{"id":"Numerator_1","code":{"coding":[{"system":"http://terminology.hl7.org/CodeSystem/measure-population","code":"numerator","display":"Numerator"}]},"count":1}]}]}]}],"evaluatedResource":[{"reference":"Patient/3ee1e306-f3db-4d13-b6ab-b1388a23b378"},{"reference":"Encounter/e3349082-053b-4308-ad04-a88f88aeb84f"},{"reference":"Encounter/4743bc38-31c6-4d83-9178-12142816c5ca"},{"reference":"Location/5af204de-88a6-4479-8579-677939178a72"},{"reference":"Coverage/73bfe8f6-d4e5-4b72-ae89-66f5886379b4"},{"reference":"Condition/d11704b8-09d7-4781-ba17-4c5e3be56f1d"},{"reference":"Claim/ClaimBehavior-NotSubsAbuse"},{"reference":"Organization/0e9e2dd3-fec2-4240-9128-095ffa88f82c"},{"reference":"Practitioner/227fad1a-d6a1-48a3-b7c2-4895a0034136"}]},"request":{"method":"PUT","url":"MeasureReport/d3d5acc8-b03d-4fa9-9ebc-b06249e85247"}}]}