{"resourceType":"Bundle","id":"tests-cc00e728-de5f-4df8-abcb-1e610496be66-bundle","type":"transaction","entry":[{"resource":{"resourceType":"Coverage","id":"a34cf104-f43b-4ff6-b827-bb135db7a9cc","meta":{"profile":["http://hl7.org/fhir/us/qicore/StructureDefinition/qicore-coverage"]},"identifier":[{"type":{"coding":[{"system":"http://terminology.hl7.org/CodeSystem/v2-0203","code":"MB"}]}}],"status":"active","beneficiary":{"reference":"Patient/cc00e728-de5f-4df8-abcb-1e610496be66"},"relationship":{"coding":[{"system":"http://terminology.hl7.org/CodeSystem/subscriber-relationship","code":"self"}]},"payor":[{"reference":"Organization/60bcd4fd-2bd3-4591-b721-7706207e213a"}]},"request":{"method":"PUT","url":"Coverage/a34cf104-f43b-4ff6-b827-bb135db7a9cc"}},{"resource":{"resourceType":"Bundle","id":"661579e3db207d74c03b8a54","type":"transaction","entry":[{"fullUrl":"https://madie.cms.gov/Patient/cc00e728-de5f-4df8-abcb-1e610496be66","resource":{"resourceType":"Patient","id":"cc00e728-de5f-4df8-abcb-1e610496be66","meta":{"profile":["http://hl7.org/fhir/us/qicore/StructureDefinition/qicore-patient"]},"extension":[{"url":"http://hl7.org/fhir/us/core/StructureDefinition/us-core-race","extension":[{"url":"ombCategory","valueCoding":{"system":"urn:oid:2.16.840.1.113883.6.238","code":"2076-8","display":"Native Hawaiian or Other Pacific Islander","userSelected":true}},{"url":"text","valueString":"Native Hawaiian or Other Pacific Islander"}]},{"url":"http://hl7.org/fhir/us/core/StructureDefinition/us-core-ethnicity","extension":[{"url":"ombCategory","valueCoding":{"system":"urn:oid:2.16.840.1.113883.6.238","code":"2186-5","display":"Not Hispanic or Latino","userSelected":true}},{"url":"text","valueString":"Not Hispanic or Latino"}]},{"url":"http://hl7.org/fhir/us/core/StructureDefinition/us-core-sex","valueCode":"248152002"}],"identifier":[{"type":{"coding":[{"system":"http://terminology.hl7.org/CodeSystem/v2-0203","code":"MR"}]},"system":"https://bonnie-fhir.healthit.gov/","value":"661579e3db207d74c03b8a54"}],"name":[{"family":"NUMERStrat1Fail","given":["TimeToTx60Min"]}],"gender":"female","birthDate":"2010-12-31"},"request":{"method":"PUT","url":"Patient/cc00e728-de5f-4df8-abcb-1e610496be66"}},{"fullUrl":"https://madie.cms.gov/Encounter/23f03660-8c8c-4349-9e22-ea2412124c2f","resource":{"resourceType":"Encounter","id":"23f03660-8c8c-4349-9e22-ea2412124c2f","meta":{"profile":["http://hl7.org/fhir/us/qicore/StructureDefinition/qicore-encounter"]},"status":"finished","class":{"system":"http://terminology.hl7.org/CodeSystem/v3-ActCode","code":"EMER","display":"emergency"},"type":[{"coding":[{"system":"http://snomed.info/sct","version":"2023-09","code":"4525004","display":"Emergency department patient visit (procedure)","userSelected":true}]}],"subject":{"reference":"Patient/cc00e728-de5f-4df8-abcb-1e610496be66"},"period":{"start":"2027-05-01T08:00:00.000+00:00","end":"2027-05-01T12:15:00.000+00:00"},"location":[{"location":{"reference":"Location/7144e1fe-b09e-47e3-bdb7-baaa9e72c1ef"},"period":{"start":"2027-05-01T07:45:00.000+00:00","end":"2027-05-01T12:15:00.000+00:00"}},{"location":{"reference":"Location/a52344a0-4b4a-4de3-86ff-2f654a8d5e1c"},"period":{"start":"2027-05-01T08:45:00.000+00:00","end":"2027-05-01T12:15:00.000+00:00"}}]},"request":{"method":"PUT","url":"Encounter/23f03660-8c8c-4349-9e22-ea2412124c2f"}},{"fullUrl":"https://madie.cms.gov/Location/7144e1fe-b09e-47e3-bdb7-baaa9e72c1ef","resource":{"resourceType":"Location","id":"7144e1fe-b09e-47e3-bdb7-baaa9e72c1ef","meta":{"profile":["http://hl7.org/fhir/us/qicore/StructureDefinition/qicore-location"]},"identifier":[{"use":"usual","system":"http://exampleoflocation.com","value":"B1-S.F1"}],"name":"Medical Surgical East, first floor","type":[{"coding":[{"system":"https://www.cdc.gov/nhsn/cdaportal/terminology/codesystem/hsloc.html","version":"2022","code":"1108-0","display":"Emergency Department","userSelected":true}]}]},"request":{"method":"PUT","url":"Location/7144e1fe-b09e-47e3-bdb7-baaa9e72c1ef"}},{"fullUrl":"https://madie.cms.gov/Location/a52344a0-4b4a-4de3-86ff-2f654a8d5e1c","resource":{"resourceType":"Location","id":"a52344a0-4b4a-4de3-86ff-2f654a8d5e1c","meta":{"profile":["http://hl7.org/fhir/us/qicore/StructureDefinition/qicore-location"]},"identifier":[{"use":"usual","system":"http://exampleoflocation.com","value":"B1-S.F2"}],"name":"Medical Surgical East, first floor","type":[{"coding":[{"system":"https://www.cdc.gov/nhsn/cdaportal/terminology/codesystem/hsloc.html","version":"2022","code":"1209-6","display":"Treatment Room","userSelected":true}]}]},"request":{"method":"PUT","url":"Location/a52344a0-4b4a-4de3-86ff-2f654a8d5e1c"}},{"fullUrl":"https://madie.cms.gov/Condition/96186d72-7065-487f-b7d1-928b85c0a85e","resource":{"resourceType":"Condition","id":"96186d72-7065-487f-b7d1-928b85c0a85e","meta":{"profile":["http://hl7.org/fhir/us/qicore/StructureDefinition/qicore-condition-encounter-diagnosis"]},"category":[{"coding":[{"system":"http://terminology.hl7.org/CodeSystem/condition-category","code":"encounter-diagnosis","display":"Encounter Diagnosis"}]}],"code":{"coding":[{"system":"http://snomed.info/sct","version":"2023-09","code":"10660471000119109","display":"Ulcer of left foot due to type 2 diabetes mellitus (disorder)","userSelected":true}]},"subject":{"reference":"Patient/cc00e728-de5f-4df8-abcb-1e610496be66"},"recordedDate":"2027-05-01T08:00:00.000+00:00"},"request":{"method":"PUT","url":"Condition/96186d72-7065-487f-b7d1-928b85c0a85e"}},{"fullUrl":"https://madie.cms.gov/Location/aa1d2c64-7a83-4f01-85f1-3b91c40d7852","resource":{"resourceType":"Location","id":"aa1d2c64-7a83-4f01-85f1-3b91c40d7852","meta":{"profile":["http://hl7.org/fhir/us/qicore/StructureDefinition/qicore-location"]},"identifier":[{"use":"usual","system":"http://exampleoflocation.com","value":"B1-S.F2"}],"name":"Medical Surgical East, first floor","type":[{"coding":[{"system":"https://www.cdc.gov/nhsn/cdaportal/terminology/codesystem/hsloc.html","version":"2022","code":"1108-0","display":"Emergency Department","userSelected":true}]}]},"request":{"method":"PUT","url":"Location/aa1d2c64-7a83-4f01-85f1-3b91c40d7852"}},{"fullUrl":"https://madie.cms.gov/Location/aef22260-9e20-4647-8762-b21f41efd015","resource":{"resourceType":"Location","id":"aef22260-9e20-4647-8762-b21f41efd015","meta":{"profile":["http://hl7.org/fhir/us/qicore/StructureDefinition/qicore-location"]},"identifier":[{"use":"usual","system":"http://exampleoflocation.com","value":"B1-S.F2"}],"name":"Medical Surgical East, first floor","type":[{"coding":[{"system":"https://www.cdc.gov/nhsn/cdaportal/terminology/codesystem/hsloc.html","version":"2022","code":"1108-0","display":"Emergency Department","userSelected":true}]}]},"request":{"method":"PUT","url":"Location/aef22260-9e20-4647-8762-b21f41efd015"}},{"fullUrl":"https://madie.cms.gov/claim/ClaimBehavior-NotSubsAbuse","resource":{"resourceType":"Claim","id":"ClaimBehavior-NotSubsAbuse","meta":{"profile":["http://hl7.org/fhir/us/qicore/StructureDefinition/qicore-claim"]},"status":"active","type":{"coding":[{"system":"http://terminology.hl7.org/CodeSystem/claim-type","code":"institutional"}]},"use":"claim","patient":{"reference":"Patient/cc00e728-de5f-4df8-abcb-1e610496be66"},"created":"2027-05-01","provider":{"reference":"Practitioner/e005fedd-28d4-4806-aa95-66ba8a2ab0b0"},"priority":{"coding":[{"system":"http://terminology.hl7.org/CodeSystem/processpriority","code":"normal"}]},"diagnosis":[{"sequence":1,"diagnosisReference":{"reference":"Condition/96186d72-7065-487f-b7d1-928b85c0a85e"},"type":[{"coding":[{"system":"http://terminology.hl7.org/CodeSystem/ex-diagnosistype","code":"principal"}]}]}],"insurance":[{"sequence":1,"focal":true,"coverage":{"reference":"Coverage/a34cf104-f43b-4ff6-b827-bb135db7a9cc"}}],"item":[{"sequence":1,"diagnosisSequence":[1],"productOrService":{"coding":[{"system":"http://terminology.hl7.org/CodeSystem/ex-USCLS","code":"99555"}]},"encounter":[{"reference":"Encounter/23f03660-8c8c-4349-9e22-ea2412124c2f"}]}]},"request":{"method":"PUT","url":"Claim/ClaimBehavior-NotSubsAbuse"}},{"fullUrl":"https://madie.cms.gov/Coverage/a34cf104-f43b-4ff6-b827-bb135db7a9cc","resource":{"resourceType":"Coverage","id":"a34cf104-f43b-4ff6-b827-bb135db7a9cc","meta":{"profile":["http://hl7.org/fhir/us/qicore/StructureDefinition/qicore-coverage"]},"identifier":[{"type":{"coding":[{"system":"http://terminology.hl7.org/CodeSystem/v2-0203","code":"MB"}]}}],"status":"active","beneficiary":{"reference":"Patient/cc00e728-de5f-4df8-abcb-1e610496be66"},"relationship":{"coding":[{"system":"http://terminology.hl7.org/CodeSystem/subscriber-relationship","code":"self"}]},"payor":[{"reference":"Organization/60bcd4fd-2bd3-4591-b721-7706207e213a"}]},"request":{"method":"PUT","url":"Coverage/a34cf104-f43b-4ff6-b827-bb135db7a9cc"}},{"fullUrl":"https://madie.cms.gov/Organization/60bcd4fd-2bd3-4591-b721-7706207e213a","resource":{"resourceType":"Organization","id":"60bcd4fd-2bd3-4591-b721-7706207e213a","meta":{"profile":["http://hl7.org/fhir/us/qicore/StructureDefinition/qicore-organization"]},"identifier":[{"use":"temp","system":"urn:oid:2.16.840.1.113883.4.4","value":"21-3259825"}],"active":true,"type":[{"coding":[{"system":"http://terminology.hl7.org/CodeSystem/organization-type","code":"pay","display":"Payer"}]}],"name":"Blue Cross Blue Shield of Texas","telecom":[{"system":"phone","value":"(+1) 972-766-6900"}],"address":[{"use":"billing","type":"postal","line":["P.O. Box 660044"],"city":"Dallas","state":"TX","postalCode":"75266-0044","country":"USA"}]},"request":{"method":"PUT","url":"Organization/60bcd4fd-2bd3-4591-b721-7706207e213a"}},{"fullUrl":"https://madie.cms.gov/Practitioner/e005fedd-28d4-4806-aa95-66ba8a2ab0b0","resource":{"resourceType":"Practitioner","id":"e005fedd-28d4-4806-aa95-66ba8a2ab0b0","meta":{"profile":["http://hl7.org/fhir/us/qicore/StructureDefinition/qicore-practitioner"]},"identifier":[{"system":"http://hl7.org/fhir/sid/us-npi","value":"9999999896"}],"name":[{"family":"Evil","prefix":["Dr"]}]},"request":{"method":"PUT","url":"Practitioner/e005fedd-28d4-4806-aa95-66ba8a2ab0b0"}},{"fullUrl":"https://madie.cms.gov/MeasureReport/61acd43b-f691-4716-9866-e8d8e688433d","resource":{"resourceType":"MeasureReport","id":"61acd43b-f691-4716-9866-e8d8e688433d","meta":{"profile":["http://hl7.org/fhir/us/cqfmeasures/StructureDefinition/test-case-cqfm"]},"contained":[{"resourceType":"Parameters","id":"e2f8d70c-f602-40dc-be23-34bcbbfc7e93-parameters","parameter":[{"name":"subject","valueString":"cc00e728-de5f-4df8-abcb-1e610496be66"}]}],"extension":[{"url":"http://hl7.org/fhir/StructureDefinition/cqf-inputParameters","valueReference":{"reference":"#e2f8d70c-f602-40dc-be23-34bcbbfc7e93-parameters"}},{"url":"http://hl7.org/fhir/us/cqfmeasures/StructureDefinition/cqfm-testCaseDescription","valueMarkdown":"Child ED enc first day of MP, time to tx 60minutes. "}],"modifierExtension":[{"url":"http://hl7.org/fhir/us/cqfmeasures/StructureDefinition/cqfm-isTestCase","valueBoolean":true}],"status":"complete","type":"individual","measure":"https://madie.cms.gov/Measure/CMS1244FHIRECATHOQR","period":{"start":"2027-01-01","end":"2027-12-31"},"group":[{"id":"Group_1","population":[{"id":"InitialPopulation_1","code":{"coding":[{"system":"http://terminology.hl7.org/CodeSystem/measure-population","code":"initial-population","display":"Initial Population"}]},"count":1},{"id":"Denominator_1","code":{"coding":[{"system":"http://terminology.hl7.org/CodeSystem/measure-population","code":"denominator","display":"Denominator"}]},"count":1},{"id":"Numerator_1","code":{"coding":[{"system":"http://terminology.hl7.org/CodeSystem/measure-population","code":"numerator","display":"Numerator"}]},"count":0}],"measureScore":{"value":0.0},"stratifier":[{"id":"Stratification_1_1","code":[{"text":"Strata-1"}],"stratum":[{"value":{"text":"Strata-1"},"population":[{"id":"InitialPopulation_1","code":{"coding":[{"system":"http://terminology.hl7.org/CodeSystem/measure-population","code":"initial-population","display":"Initial Population"}]},"count":1},{"id":"Denominator_1","code":{"coding":[{"system":"http://terminology.hl7.org/CodeSystem/measure-population","code":"denominator","display":"Denominator"}]},"count":1},{"id":"Numerator_1","code":{"coding":[{"system":"http://terminology.hl7.org/CodeSystem/measure-population","code":"numerator","display":"Numerator"}]},"count":0}]}]},{"id":"Stratification_1_2","code":[{"text":"Strata-2"}],"stratum":[{"value":{"text":"Strata-2"},"population":[{"id":"InitialPopulation_1","code":{"coding":[{"system":"http://terminology.hl7.org/CodeSystem/measure-population","code":"initial-population","display":"Initial Population"}]},"count":0},{"id":"Denominator_1","code":{"coding":[{"system":"http://terminology.hl7.org/CodeSystem/measure-population","code":"denominator","display":"Denominator"}]},"count":0},{"id":"Numerator_1","code":{"coding":[{"system":"http://terminology.hl7.org/CodeSystem/measure-population","code":"numerator","display":"Numerator"}]},"count":0}]}]},{"id":"Stratification_1_3","code":[{"text":"Strata-3"}],"stratum":[{"value":{"text":"Strata-3"},"population":[{"id":"InitialPopulation_1","code":{"coding":[{"system":"http://terminology.hl7.org/CodeSystem/measure-population","code":"initial-population","display":"Initial Population"}]},"count":0},{"id":"Denominator_1","code":{"coding":[{"system":"http://terminology.hl7.org/CodeSystem/measure-population","code":"denominator","display":"Denominator"}]},"count":0},{"id":"Numerator_1","code":{"coding":[{"system":"http://terminology.hl7.org/CodeSystem/measure-population","code":"numerator","display":"Numerator"}]},"count":0}]}]},{"id":"Stratification_1_4","code":[{"text":"Strata-4"}],"stratum":[{"value":{"text":"Strata-4"},"population":[{"id":"InitialPopulation_1","code":{"coding":[{"system":"http://terminology.hl7.org/CodeSystem/measure-population","code":"initial-population","display":"Initial Population"}]},"count":0},{"id":"Denominator_1","code":{"coding":[{"system":"http://terminology.hl7.org/CodeSystem/measure-population","code":"denominator","display":"Denominator"}]},"count":0},{"id":"Numerator_1","code":{"coding":[{"system":"http://terminology.hl7.org/CodeSystem/measure-population","code":"numerator","display":"Numerator"}]},"count":0}]}]}]}],"evaluatedResource":[{"reference":"Patient/cc00e728-de5f-4df8-abcb-1e610496be66"},{"reference":"Encounter/23f03660-8c8c-4349-9e22-ea2412124c2f"},{"reference":"Location/7144e1fe-b09e-47e3-bdb7-baaa9e72c1ef"},{"reference":"Location/a52344a0-4b4a-4de3-86ff-2f654a8d5e1c"},{"reference":"Condition/96186d72-7065-487f-b7d1-928b85c0a85e"},{"reference":"Location/aa1d2c64-7a83-4f01-85f1-3b91c40d7852"},{"reference":"Location/aef22260-9e20-4647-8762-b21f41efd015"},{"reference":"Claim/ClaimBehavior-NotSubsAbuse"},{"reference":"Coverage/a34cf104-f43b-4ff6-b827-bb135db7a9cc"},{"reference":"Organization/60bcd4fd-2bd3-4591-b721-7706207e213a"},{"reference":"Practitioner/e005fedd-28d4-4806-aa95-66ba8a2ab0b0"}]},"request":{"method":"PUT","url":"MeasureReport/61acd43b-f691-4716-9866-e8d8e688433d"}}]},"request":{"method":"PUT","url":"Bundle/661579e3db207d74c03b8a54"}},{"resource":{"resourceType":"Organization","id":"60bcd4fd-2bd3-4591-b721-7706207e213a","meta":{"profile":["http://hl7.org/fhir/us/qicore/StructureDefinition/qicore-organization"]},"identifier":[{"use":"temp","system":"urn:oid:2.16.840.1.113883.4.4","value":"21-3259825"}],"active":true,"type":[{"coding":[{"system":"http://terminology.hl7.org/CodeSystem/organization-type","code":"pay","display":"Payer"}]}],"name":"Blue Cross Blue Shield of Texas","telecom":[{"system":"phone","value":"(+1) 972-766-6900"}],"address":[{"use":"billing","type":"postal","line":["P.O. Box 660044"],"city":"Dallas","state":"TX","postalCode":"75266-0044","country":"USA"}]},"request":{"method":"PUT","url":"Organization/60bcd4fd-2bd3-4591-b721-7706207e213a"}},{"resource":{"resourceType":"MeasureReport","id":"61acd43b-f691-4716-9866-e8d8e688433d","meta":{"profile":["http://hl7.org/fhir/us/cqfmeasures/StructureDefinition/test-case-cqfm"]},"contained":[{"resourceType":"Parameters","id":"e2f8d70c-f602-40dc-be23-34bcbbfc7e93-parameters","parameter":[{"name":"subject","valueString":"cc00e728-de5f-4df8-abcb-1e610496be66"}]}],"extension":[{"url":"http://hl7.org/fhir/StructureDefinition/cqf-inputParameters","valueReference":{"reference":"#e2f8d70c-f602-40dc-be23-34bcbbfc7e93-parameters"}},{"url":"http://hl7.org/fhir/us/cqfmeasures/StructureDefinition/cqfm-testCaseDescription","valueMarkdown":"Child ED enc first day of MP, time to tx 60minutes. "}],"modifierExtension":[{"url":"http://hl7.org/fhir/us/cqfmeasures/StructureDefinition/cqfm-isTestCase","valueBoolean":true}],"status":"complete","type":"individual","measure":"https://madie.cms.gov/Measure/CMS1244FHIRECATHOQR","period":{"start":"2027-01-01","end":"2027-12-31"},"group":[{"id":"Group_1","population":[{"id":"InitialPopulation_1","code":{"coding":[{"system":"http://terminology.hl7.org/CodeSystem/measure-population","code":"initial-population","display":"Initial Population"}]},"count":1},{"id":"Denominator_1","code":{"coding":[{"system":"http://terminology.hl7.org/CodeSystem/measure-population","code":"denominator","display":"Denominator"}]},"count":1},{"id":"Numerator_1","code":{"coding":[{"system":"http://terminology.hl7.org/CodeSystem/measure-population","code":"numerator","display":"Numerator"}]},"count":0}],"measureScore":{"value":0.0},"stratifier":[{"id":"Stratification_1_1","code":[{"text":"Strata-1"}],"stratum":[{"value":{"text":"Strata-1"},"population":[{"id":"InitialPopulation_1","code":{"coding":[{"system":"http://terminology.hl7.org/CodeSystem/measure-population","code":"initial-population","display":"Initial Population"}]},"count":1},{"id":"Denominator_1","code":{"coding":[{"system":"http://terminology.hl7.org/CodeSystem/measure-population","code":"denominator","display":"Denominator"}]},"count":1},{"id":"Numerator_1","code":{"coding":[{"system":"http://terminology.hl7.org/CodeSystem/measure-population","code":"numerator","display":"Numerator"}]},"count":0}]}]},{"id":"Stratification_1_2","code":[{"text":"Strata-2"}],"stratum":[{"value":{"text":"Strata-2"},"population":[{"id":"InitialPopulation_1","code":{"coding":[{"system":"http://terminology.hl7.org/CodeSystem/measure-population","code":"initial-population","display":"Initial Population"}]},"count":0},{"id":"Denominator_1","code":{"coding":[{"system":"http://terminology.hl7.org/CodeSystem/measure-population","code":"denominator","display":"Denominator"}]},"count":0},{"id":"Numerator_1","code":{"coding":[{"system":"http://terminology.hl7.org/CodeSystem/measure-population","code":"numerator","display":"Numerator"}]},"count":0}]}]},{"id":"Stratification_1_3","code":[{"text":"Strata-3"}],"stratum":[{"value":{"text":"Strata-3"},"population":[{"id":"InitialPopulation_1","code":{"coding":[{"system":"http://terminology.hl7.org/CodeSystem/measure-population","code":"initial-population","display":"Initial Population"}]},"count":0},{"id":"Denominator_1","code":{"coding":[{"system":"http://terminology.hl7.org/CodeSystem/measure-population","code":"denominator","display":"Denominator"}]},"count":0},{"id":"Numerator_1","code":{"coding":[{"system":"http://terminology.hl7.org/CodeSystem/measure-population","code":"numerator","display":"Numerator"}]},"count":0}]}]},{"id":"Stratification_1_4","code":[{"text":"Strata-4"}],"stratum":[{"value":{"text":"Strata-4"},"population":[{"id":"InitialPopulation_1","code":{"coding":[{"system":"http://terminology.hl7.org/CodeSystem/measure-population","code":"initial-population","display":"Initial Population"}]},"count":0},{"id":"Denominator_1","code":{"coding":[{"system":"http://terminology.hl7.org/CodeSystem/measure-population","code":"denominator","display":"Denominator"}]},"count":0},{"id":"Numerator_1","code":{"coding":[{"system":"http://terminology.hl7.org/CodeSystem/measure-population","code":"numerator","display":"Numerator"}]},"count":0}]}]}]}],"evaluatedResource":[{"reference":"Patient/cc00e728-de5f-4df8-abcb-1e610496be66"},{"reference":"Encounter/23f03660-8c8c-4349-9e22-ea2412124c2f"},{"reference":"Location/7144e1fe-b09e-47e3-bdb7-baaa9e72c1ef"},{"reference":"Location/a52344a0-4b4a-4de3-86ff-2f654a8d5e1c"},{"reference":"Condition/96186d72-7065-487f-b7d1-928b85c0a85e"},{"reference":"Location/aa1d2c64-7a83-4f01-85f1-3b91c40d7852"},{"reference":"Location/aef22260-9e20-4647-8762-b21f41efd015"},{"reference":"Claim/ClaimBehavior-NotSubsAbuse"},{"reference":"Coverage/a34cf104-f43b-4ff6-b827-bb135db7a9cc"},{"reference":"Organization/60bcd4fd-2bd3-4591-b721-7706207e213a"},{"reference":"Practitioner/e005fedd-28d4-4806-aa95-66ba8a2ab0b0"}]},"request":{"method":"PUT","url":"MeasureReport/61acd43b-f691-4716-9866-e8d8e688433d"}},{"resource":{"resourceType":"Location","id":"aa1d2c64-7a83-4f01-85f1-3b91c40d7852","meta":{"profile":["http://hl7.org/fhir/us/qicore/StructureDefinition/qicore-location"]},"identifier":[{"use":"usual","system":"http://exampleoflocation.com","value":"B1-S.F2"}],"name":"Medical Surgical East, first floor","type":[{"coding":[{"system":"https://www.cdc.gov/nhsn/cdaportal/terminology/codesystem/hsloc.html","version":"2022","code":"1108-0","display":"Emergency Department","userSelected":true}]}]},"request":{"method":"PUT","url":"Location/aa1d2c64-7a83-4f01-85f1-3b91c40d7852"}},{"resource":{"resourceType":"Practitioner","id":"e005fedd-28d4-4806-aa95-66ba8a2ab0b0","meta":{"profile":["http://hl7.org/fhir/us/qicore/StructureDefinition/qicore-practitioner"]},"identifier":[{"system":"http://hl7.org/fhir/sid/us-npi","value":"9999999896"}],"name":[{"family":"Evil","prefix":["Dr"]}]},"request":{"method":"PUT","url":"Practitioner/e005fedd-28d4-4806-aa95-66ba8a2ab0b0"}},{"resource":{"resourceType":"Condition","id":"96186d72-7065-487f-b7d1-928b85c0a85e","meta":{"profile":["http://hl7.org/fhir/us/qicore/StructureDefinition/qicore-condition-encounter-diagnosis"]},"category":[{"coding":[{"system":"http://terminology.hl7.org/CodeSystem/condition-category","code":"encounter-diagnosis","display":"Encounter Diagnosis"}]}],"code":{"coding":[{"system":"http://snomed.info/sct","version":"2023-09","code":"10660471000119109","display":"Ulcer of left foot due to type 2 diabetes mellitus (disorder)","userSelected":true}]},"subject":{"reference":"Patient/cc00e728-de5f-4df8-abcb-1e610496be66"},"recordedDate":"2027-05-01T08:00:00.000+00:00"},"request":{"method":"PUT","url":"Condition/96186d72-7065-487f-b7d1-928b85c0a85e"}},{"resource":{"resourceType":"Patient","id":"cc00e728-de5f-4df8-abcb-1e610496be66","meta":{"profile":["http://hl7.org/fhir/us/qicore/StructureDefinition/qicore-patient"]},"extension":[{"url":"http://hl7.org/fhir/us/core/StructureDefinition/us-core-race","extension":[{"url":"ombCategory","valueCoding":{"system":"urn:oid:2.16.840.1.113883.6.238","code":"2076-8","display":"Native Hawaiian or Other Pacific Islander","userSelected":true}},{"url":"text","valueString":"Native Hawaiian or Other Pacific Islander"}]},{"url":"http://hl7.org/fhir/us/core/StructureDefinition/us-core-ethnicity","extension":[{"url":"ombCategory","valueCoding":{"system":"urn:oid:2.16.840.1.113883.6.238","code":"2186-5","display":"Not Hispanic or Latino","userSelected":true}},{"url":"text","valueString":"Not Hispanic or Latino"}]},{"url":"http://hl7.org/fhir/us/core/StructureDefinition/us-core-sex","valueCode":"248152002"}],"identifier":[{"type":{"coding":[{"system":"http://terminology.hl7.org/CodeSystem/v2-0203","code":"MR"}]},"system":"https://bonnie-fhir.healthit.gov/","value":"661579e3db207d74c03b8a54"}],"name":[{"family":"NUMERStrat1Fail","given":["TimeToTx60Min"]}],"gender":"female","birthDate":"2010-12-31"},"request":{"method":"PUT","url":"Patient/cc00e728-de5f-4df8-abcb-1e610496be66"}},{"resource":{"resourceType":"Location","id":"a52344a0-4b4a-4de3-86ff-2f654a8d5e1c","meta":{"profile":["http://hl7.org/fhir/us/qicore/StructureDefinition/qicore-location"]},"identifier":[{"use":"usual","system":"http://exampleoflocation.com","value":"B1-S.F2"}],"name":"Medical Surgical East, first floor","type":[{"coding":[{"system":"https://www.cdc.gov/nhsn/cdaportal/terminology/codesystem/hsloc.html","version":"2022","code":"1209-6","display":"Treatment Room","userSelected":true}]}]},"request":{"method":"PUT","url":"Location/a52344a0-4b4a-4de3-86ff-2f654a8d5e1c"}},{"resource":{"resourceType":"Location","id":"aef22260-9e20-4647-8762-b21f41efd015","meta":{"profile":["http://hl7.org/fhir/us/qicore/StructureDefinition/qicore-location"]},"identifier":[{"use":"usual","system":"http://exampleoflocation.com","value":"B1-S.F2"}],"name":"Medical Surgical East, first floor","type":[{"coding":[{"system":"https://www.cdc.gov/nhsn/cdaportal/terminology/codesystem/hsloc.html","version":"2022","code":"1108-0","display":"Emergency Department","userSelected":true}]}]},"request":{"method":"PUT","url":"Location/aef22260-9e20-4647-8762-b21f41efd015"}},{"resource":{"resourceType":"Location","id":"7144e1fe-b09e-47e3-bdb7-baaa9e72c1ef","meta":{"profile":["http://hl7.org/fhir/us/qicore/StructureDefinition/qicore-location"]},"identifier":[{"use":"usual","system":"http://exampleoflocation.com","value":"B1-S.F1"}],"name":"Medical Surgical East, first floor","type":[{"coding":[{"system":"https://www.cdc.gov/nhsn/cdaportal/terminology/codesystem/hsloc.html","version":"2022","code":"1108-0","display":"Emergency Department","userSelected":true}]}]},"request":{"method":"PUT","url":"Location/7144e1fe-b09e-47e3-bdb7-baaa9e72c1ef"}},{"resource":{"resourceType":"Claim","id":"ClaimBehavior-NotSubsAbuse","meta":{"profile":["http://hl7.org/fhir/us/qicore/StructureDefinition/qicore-claim"]},"status":"active","type":{"coding":[{"system":"http://terminology.hl7.org/CodeSystem/claim-type","code":"institutional"}]},"use":"claim","patient":{"reference":"Patient/cc00e728-de5f-4df8-abcb-1e610496be66"},"created":"2027-05-01","provider":{"reference":"Practitioner/e005fedd-28d4-4806-aa95-66ba8a2ab0b0"},"priority":{"coding":[{"system":"http://terminology.hl7.org/CodeSystem/processpriority","code":"normal"}]},"diagnosis":[{"sequence":1,"diagnosisReference":{"reference":"Condition/96186d72-7065-487f-b7d1-928b85c0a85e"},"type":[{"coding":[{"system":"http://terminology.hl7.org/CodeSystem/ex-diagnosistype","code":"principal"}]}]}],"insurance":[{"sequence":1,"focal":true,"coverage":{"reference":"Coverage/a34cf104-f43b-4ff6-b827-bb135db7a9cc"}}],"item":[{"sequence":1,"diagnosisSequence":[1],"productOrService":{"coding":[{"system":"http://terminology.hl7.org/CodeSystem/ex-USCLS","code":"99555"}]},"encounter":[{"reference":"Encounter/23f03660-8c8c-4349-9e22-ea2412124c2f"}]}]},"request":{"method":"PUT","url":"Claim/ClaimBehavior-NotSubsAbuse"}},{"resource":{"resourceType":"Encounter","id":"23f03660-8c8c-4349-9e22-ea2412124c2f","meta":{"profile":["http://hl7.org/fhir/us/qicore/StructureDefinition/qicore-encounter"]},"status":"finished","class":{"system":"http://terminology.hl7.org/CodeSystem/v3-ActCode","code":"EMER","display":"emergency"},"type":[{"coding":[{"system":"http://snomed.info/sct","version":"2023-09","code":"4525004","display":"Emergency department patient visit (procedure)","userSelected":true}]}],"subject":{"reference":"Patient/cc00e728-de5f-4df8-abcb-1e610496be66"},"period":{"start":"2027-05-01T08:00:00.000+00:00","end":"2027-05-01T12:15:00.000+00:00"},"location":[{"location":{"reference":"Location/7144e1fe-b09e-47e3-bdb7-baaa9e72c1ef"},"period":{"start":"2027-05-01T07:45:00.000+00:00","end":"2027-05-01T12:15:00.000+00:00"}},{"location":{"reference":"Location/a52344a0-4b4a-4de3-86ff-2f654a8d5e1c"},"period":{"start":"2027-05-01T08:45:00.000+00:00","end":"2027-05-01T12:15:00.000+00:00"}}]},"request":{"method":"PUT","url":"Encounter/23f03660-8c8c-4349-9e22-ea2412124c2f"}}]}