{"resourceType":"Bundle","id":"tests-9fed66ec-d314-4a2e-a6d5-056ec2f702c2-bundle","type":"transaction","entry":[{"resource":{"resourceType":"MeasureReport","id":"7803fc0e-a512-400a-b51d-f3cd2d808e4f","meta":{"profile":["http://hl7.org/fhir/us/cqfmeasures/StructureDefinition/test-case-cqfm"]},"contained":[{"resourceType":"Parameters","id":"39bfc836-0bdd-4ca7-a1e3-f6bc30883750-parameters","parameter":[{"name":"subject","valueString":"9fed66ec-d314-4a2e-a6d5-056ec2f702c2"}]}],"extension":[{"url":"http://hl7.org/fhir/StructureDefinition/cqf-inputParameters","valueReference":{"reference":"#39bfc836-0bdd-4ca7-a1e3-f6bc30883750-parameters"}},{"url":"http://hl7.org/fhir/us/cqfmeasures/StructureDefinition/cqfm-testCaseDescription","valueMarkdown":"Time to ED to treatment, LOS in ED 8hr plus, with min observation stay"}],"modifierExtension":[{"url":"http://hl7.org/fhir/us/cqfmeasures/StructureDefinition/cqfm-isTestCase","valueBoolean":true}],"status":"complete","type":"individual","measure":"https://madie.cms.gov/Measure/CMS1244FHIRECATHOQR","period":{"start":"2027-01-01","end":"2027-12-31"},"group":[{"id":"Group_1","population":[{"id":"InitialPopulation_1","code":{"coding":[{"system":"http://terminology.hl7.org/CodeSystem/measure-population","code":"initial-population","display":"Initial Population"}]},"count":1},{"id":"Denominator_1","code":{"coding":[{"system":"http://terminology.hl7.org/CodeSystem/measure-population","code":"denominator","display":"Denominator"}]},"count":1},{"id":"Numerator_1","code":{"coding":[{"system":"http://terminology.hl7.org/CodeSystem/measure-population","code":"numerator","display":"Numerator"}]},"count":1}],"measureScore":{"value":0.0},"stratifier":[{"id":"Stratification_1_1","code":[{"text":"Strata-1"}],"stratum":[{"value":{"text":"Strata-1"},"population":[{"id":"InitialPopulation_1","code":{"coding":[{"system":"http://terminology.hl7.org/CodeSystem/measure-population","code":"initial-population","display":"Initial Population"}]},"count":1},{"id":"Denominator_1","code":{"coding":[{"system":"http://terminology.hl7.org/CodeSystem/measure-population","code":"denominator","display":"Denominator"}]},"count":1},{"id":"Numerator_1","code":{"coding":[{"system":"http://terminology.hl7.org/CodeSystem/measure-population","code":"numerator","display":"Numerator"}]},"count":1}]}]},{"id":"Stratification_1_2","code":[{"text":"Strata-2"}],"stratum":[{"value":{"text":"Strata-2"},"population":[{"id":"InitialPopulation_1","code":{"coding":[{"system":"http://terminology.hl7.org/CodeSystem/measure-population","code":"initial-population","display":"Initial Population"}]},"count":0},{"id":"Denominator_1","code":{"coding":[{"system":"http://terminology.hl7.org/CodeSystem/measure-population","code":"denominator","display":"Denominator"}]},"count":0},{"id":"Numerator_1","code":{"coding":[{"system":"http://terminology.hl7.org/CodeSystem/measure-population","code":"numerator","display":"Numerator"}]},"count":0}]}]},{"id":"Stratification_1_3","code":[{"text":"Strata-3"}],"stratum":[{"value":{"text":"Strata-3"},"population":[{"id":"InitialPopulation_1","code":{"coding":[{"system":"http://terminology.hl7.org/CodeSystem/measure-population","code":"initial-population","display":"Initial Population"}]},"count":0},{"id":"Denominator_1","code":{"coding":[{"system":"http://terminology.hl7.org/CodeSystem/measure-population","code":"denominator","display":"Denominator"}]},"count":0},{"id":"Numerator_1","code":{"coding":[{"system":"http://terminology.hl7.org/CodeSystem/measure-population","code":"numerator","display":"Numerator"}]},"count":0}]}]},{"id":"Stratification_1_4","code":[{"text":"Strata-4"}],"stratum":[{"value":{"text":"Strata-4"},"population":[{"id":"InitialPopulation_1","code":{"coding":[{"system":"http://terminology.hl7.org/CodeSystem/measure-population","code":"initial-population","display":"Initial Population"}]},"count":0},{"id":"Denominator_1","code":{"coding":[{"system":"http://terminology.hl7.org/CodeSystem/measure-population","code":"denominator","display":"Denominator"}]},"count":0},{"id":"Numerator_1","code":{"coding":[{"system":"http://terminology.hl7.org/CodeSystem/measure-population","code":"numerator","display":"Numerator"}]},"count":0}]}]}]}],"evaluatedResource":[{"reference":"Patient/9fed66ec-d314-4a2e-a6d5-056ec2f702c2"},{"reference":"Encounter/0ffacb1a-b6d5-4cd9-8df3-fda2ccd4e4ca"},{"reference":"Location/def919c7-1cde-469c-aa45-29056dc68a3d"},{"reference":"Encounter/7bb4c6eb-378f-4427-bcc6-1e741cc7ef97"},{"reference":"Location/56eb5e61-23b7-4b2a-926f-09604ed5988c"},{"reference":"Condition/529a82c5-0b87-4f0a-973d-aa2b6317f835"},{"reference":"Location/a9a900f6-4cce-45df-a03b-44fa9b75aaf5"},{"reference":"Location/b3520d93-7bc0-4122-8cab-6db09570baf6"},{"reference":"Claim/ClaimBehavior-NotSubsAbuse"},{"reference":"Coverage/a2894db5-4d2f-4f67-940b-373a958845c4"},{"reference":"Organization/155b13fe-3061-4644-acbd-bd5a29dbde0a"},{"reference":"Practitioner/7e6eebc1-991b-4ee9-84e8-48f67b0f06b3"}]},"request":{"method":"PUT","url":"MeasureReport/7803fc0e-a512-400a-b51d-f3cd2d808e4f"}},{"resource":{"resourceType":"Encounter","id":"0ffacb1a-b6d5-4cd9-8df3-fda2ccd4e4ca","meta":{"profile":["http://hl7.org/fhir/us/qicore/StructureDefinition/qicore-encounter"]},"status":"finished","class":{"system":"http://terminology.hl7.org/CodeSystem/v3-ActCode","code":"EMER","display":"emergency"},"type":[{"coding":[{"system":"http://snomed.info/sct","version":"2023-09","code":"4525004","display":"Emergency department patient visit (procedure)","userSelected":true}]}],"subject":{"reference":"Patient/9fed66ec-d314-4a2e-a6d5-056ec2f702c2"},"period":{"start":"2027-05-01T07:00:00.000+00:00","end":"2027-05-01T15:15:00.000+00:00"},"reasonReference":[{"reference":"Condition/529a82c5-0b87-4f0a-973d-aa2b6317f835"}],"location":[{"location":{"reference":"Location/def919c7-1cde-469c-aa45-29056dc68a3d"},"period":{"start":"2027-05-01T07:45:00.000+00:00","end":"2027-05-01T16:15:00.000+00:00"}},{"location":{"reference":"Location/56eb5e61-23b7-4b2a-926f-09604ed5988c"},"period":{"start":"2027-05-01T08:46:00.000+00:00","end":"2027-05-01T12:15:00.000+00:00"}}]},"request":{"method":"PUT","url":"Encounter/0ffacb1a-b6d5-4cd9-8df3-fda2ccd4e4ca"}},{"resource":{"resourceType":"Coverage","id":"a2894db5-4d2f-4f67-940b-373a958845c4","meta":{"profile":["http://hl7.org/fhir/us/qicore/StructureDefinition/qicore-coverage"]},"identifier":[{"type":{"coding":[{"system":"http://terminology.hl7.org/CodeSystem/v2-0203","code":"MB"}]}}],"status":"active","beneficiary":{"reference":"Patient/9fed66ec-d314-4a2e-a6d5-056ec2f702c2"},"relationship":{"coding":[{"system":"http://terminology.hl7.org/CodeSystem/subscriber-relationship","code":"self"}]},"payor":[{"reference":"Organization/155b13fe-3061-4644-acbd-bd5a29dbde0a"}]},"request":{"method":"PUT","url":"Coverage/a2894db5-4d2f-4f67-940b-373a958845c4"}},{"resource":{"resourceType":"Location","id":"56eb5e61-23b7-4b2a-926f-09604ed5988c","meta":{"profile":["http://hl7.org/fhir/us/qicore/StructureDefinition/qicore-location"]},"identifier":[{"use":"usual","system":"http://exampleoflocation.com","value":"B1-S.F2"}],"name":"Medical Surgical East, first floor","type":[{"coding":[{"system":"https://www.cdc.gov/nhsn/cdaportal/terminology/codesystem/hsloc.html","version":"2022","code":"1209-6","display":"Treatment Room","userSelected":true}]}]},"request":{"method":"PUT","url":"Location/56eb5e61-23b7-4b2a-926f-09604ed5988c"}},{"resource":{"resourceType":"Organization","id":"155b13fe-3061-4644-acbd-bd5a29dbde0a","meta":{"profile":["http://hl7.org/fhir/us/qicore/StructureDefinition/qicore-organization"]},"identifier":[{"use":"temp","system":"urn:oid:2.16.840.1.113883.4.4","value":"21-3259825"}],"active":true,"type":[{"coding":[{"system":"http://terminology.hl7.org/CodeSystem/organization-type","code":"pay","display":"Payer"}]}],"name":"Blue Cross Blue Shield of Texas","telecom":[{"system":"phone","value":"(+1) 972-766-6900"}],"address":[{"use":"billing","type":"postal","line":["P.O. Box 660044"],"city":"Dallas","state":"TX","postalCode":"75266-0044","country":"USA"}]},"request":{"method":"PUT","url":"Organization/155b13fe-3061-4644-acbd-bd5a29dbde0a"}},{"resource":{"resourceType":"Location","id":"def919c7-1cde-469c-aa45-29056dc68a3d","meta":{"profile":["http://hl7.org/fhir/us/qicore/StructureDefinition/qicore-location"]},"identifier":[{"use":"usual","system":"http://exampleoflocation.com","value":"B1-S.F1"}],"name":"Medical Surgical East, first floor","type":[{"coding":[{"system":"https://www.cdc.gov/nhsn/cdaportal/terminology/codesystem/hsloc.html","version":"2022","code":"1108-0","display":"Emergency Department","userSelected":true}]}]},"request":{"method":"PUT","url":"Location/def919c7-1cde-469c-aa45-29056dc68a3d"}},{"resource":{"resourceType":"Condition","id":"529a82c5-0b87-4f0a-973d-aa2b6317f835","meta":{"profile":["http://hl7.org/fhir/us/qicore/StructureDefinition/qicore-condition-encounter-diagnosis"]},"category":[{"coding":[{"system":"http://terminology.hl7.org/CodeSystem/condition-category","code":"encounter-diagnosis","display":"Encounter Diagnosis"}]}],"code":{"coding":[{"system":"http://snomed.info/sct","version":"2023-09","code":"10660471000119109","display":"Ulcer of left foot due to type 2 diabetes mellitus (disorder)","userSelected":true}]},"subject":{"reference":"Patient/9fed66ec-d314-4a2e-a6d5-056ec2f702c2"},"encounter":{"reference":"Encounter/0ffacb1a-b6d5-4cd9-8df3-fda2ccd4e4ca"},"recordedDate":"2027-05-01T08:00:00.000+00:00"},"request":{"method":"PUT","url":"Condition/529a82c5-0b87-4f0a-973d-aa2b6317f835"}},{"resource":{"resourceType":"Bundle","id":"661579e3db207d74c03b8a56","type":"transaction","entry":[{"fullUrl":"https://madie.cms.gov/Patient/9fed66ec-d314-4a2e-a6d5-056ec2f702c2","resource":{"resourceType":"Patient","id":"9fed66ec-d314-4a2e-a6d5-056ec2f702c2","meta":{"profile":["http://hl7.org/fhir/us/qicore/StructureDefinition/qicore-patient"]},"extension":[{"url":"http://hl7.org/fhir/us/core/StructureDefinition/us-core-race","extension":[{"url":"ombCategory","valueCoding":{"system":"urn:oid:2.16.840.1.113883.6.238","code":"2076-8","display":"Native Hawaiian or Other Pacific Islander","userSelected":true}},{"url":"text","valueString":"Native Hawaiian or Other Pacific Islander"}]},{"url":"http://hl7.org/fhir/us/core/StructureDefinition/us-core-ethnicity","extension":[{"url":"ombCategory","valueCoding":{"system":"urn:oid:2.16.840.1.113883.6.238","code":"2186-5","display":"Not Hispanic or Latino","userSelected":true}},{"url":"text","valueString":"Not Hispanic or Latino"}]},{"url":"http://hl7.org/fhir/us/core/StructureDefinition/us-core-sex","valueCode":"248153007"}],"identifier":[{"type":{"coding":[{"system":"http://terminology.hl7.org/CodeSystem/v2-0203","code":"MR"}]},"system":"https://bonnie-fhir.healthit.gov/","value":"661579e3db207d74c03b8a55"}],"name":[{"family":"NUMERStrat1Pass","given":["TimeTx61LOS481MinsObsStay"]}],"gender":"male","birthDate":"2010-12-31"},"request":{"method":"PUT","url":"Patient/9fed66ec-d314-4a2e-a6d5-056ec2f702c2"}},{"fullUrl":"https://madie.cms.gov/Encounter/0ffacb1a-b6d5-4cd9-8df3-fda2ccd4e4ca","resource":{"resourceType":"Encounter","id":"0ffacb1a-b6d5-4cd9-8df3-fda2ccd4e4ca","meta":{"profile":["http://hl7.org/fhir/us/qicore/StructureDefinition/qicore-encounter"]},"status":"finished","class":{"system":"http://terminology.hl7.org/CodeSystem/v3-ActCode","code":"EMER","display":"emergency"},"type":[{"coding":[{"system":"http://snomed.info/sct","version":"2023-09","code":"4525004","display":"Emergency department patient visit (procedure)","userSelected":true}]}],"subject":{"reference":"Patient/9fed66ec-d314-4a2e-a6d5-056ec2f702c2"},"period":{"start":"2027-05-01T07:00:00.000+00:00","end":"2027-05-01T15:15:00.000+00:00"},"reasonReference":[{"reference":"Condition/529a82c5-0b87-4f0a-973d-aa2b6317f835"}],"location":[{"location":{"reference":"Location/def919c7-1cde-469c-aa45-29056dc68a3d"},"period":{"start":"2027-05-01T07:45:00.000+00:00","end":"2027-05-01T16:15:00.000+00:00"}},{"location":{"reference":"Location/56eb5e61-23b7-4b2a-926f-09604ed5988c"},"period":{"start":"2027-05-01T08:46:00.000+00:00","end":"2027-05-01T12:15:00.000+00:00"}}]},"request":{"method":"PUT","url":"Encounter/0ffacb1a-b6d5-4cd9-8df3-fda2ccd4e4ca"}},{"fullUrl":"https://madie.cms.gov/Location/def919c7-1cde-469c-aa45-29056dc68a3d","resource":{"resourceType":"Location","id":"def919c7-1cde-469c-aa45-29056dc68a3d","meta":{"profile":["http://hl7.org/fhir/us/qicore/StructureDefinition/qicore-location"]},"identifier":[{"use":"usual","system":"http://exampleoflocation.com","value":"B1-S.F1"}],"name":"Medical Surgical East, first floor","type":[{"coding":[{"system":"https://www.cdc.gov/nhsn/cdaportal/terminology/codesystem/hsloc.html","version":"2022","code":"1108-0","display":"Emergency Department","userSelected":true}]}]},"request":{"method":"PUT","url":"Location/def919c7-1cde-469c-aa45-29056dc68a3d"}},{"fullUrl":"https://madie.cms.gov/Encounter/7bb4c6eb-378f-4427-bcc6-1e741cc7ef97","resource":{"resourceType":"Encounter","id":"7bb4c6eb-378f-4427-bcc6-1e741cc7ef97","meta":{"profile":["http://hl7.org/fhir/us/qicore/StructureDefinition/qicore-encounter"]},"status":"finished","class":{"system":"http://terminology.hl7.org/CodeSystem/v3-ActCode","code":"EMER","display":"emergency"},"type":[{"coding":[{"system":"http://snomed.info/sct","code":"448951000124107","display":"Admission to observation unit (procedure)","userSelected":true}]}],"subject":{"reference":"Patient/9fed66ec-d314-4a2e-a6d5-056ec2f702c2"},"period":{"start":"2027-05-01T08:01:00.000+00:00","end":"2027-05-01T12:59:00.000+00:00"}},"request":{"method":"PUT","url":"Encounter/7bb4c6eb-378f-4427-bcc6-1e741cc7ef97"}},{"fullUrl":"https://madie.cms.gov/Location/56eb5e61-23b7-4b2a-926f-09604ed5988c","resource":{"resourceType":"Location","id":"56eb5e61-23b7-4b2a-926f-09604ed5988c","meta":{"profile":["http://hl7.org/fhir/us/qicore/StructureDefinition/qicore-location"]},"identifier":[{"use":"usual","system":"http://exampleoflocation.com","value":"B1-S.F2"}],"name":"Medical Surgical East, first floor","type":[{"coding":[{"system":"https://www.cdc.gov/nhsn/cdaportal/terminology/codesystem/hsloc.html","version":"2022","code":"1209-6","display":"Treatment Room","userSelected":true}]}]},"request":{"method":"PUT","url":"Location/56eb5e61-23b7-4b2a-926f-09604ed5988c"}},{"fullUrl":"https://madie.cms.gov/Condition/529a82c5-0b87-4f0a-973d-aa2b6317f835","resource":{"resourceType":"Condition","id":"529a82c5-0b87-4f0a-973d-aa2b6317f835","meta":{"profile":["http://hl7.org/fhir/us/qicore/StructureDefinition/qicore-condition-encounter-diagnosis"]},"category":[{"coding":[{"system":"http://terminology.hl7.org/CodeSystem/condition-category","code":"encounter-diagnosis","display":"Encounter Diagnosis"}]}],"code":{"coding":[{"system":"http://snomed.info/sct","version":"2023-09","code":"10660471000119109","display":"Ulcer of left foot due to type 2 diabetes mellitus (disorder)","userSelected":true}]},"subject":{"reference":"Patient/9fed66ec-d314-4a2e-a6d5-056ec2f702c2"},"encounter":{"reference":"Encounter/0ffacb1a-b6d5-4cd9-8df3-fda2ccd4e4ca"},"recordedDate":"2027-05-01T08:00:00.000+00:00"},"request":{"method":"PUT","url":"Condition/529a82c5-0b87-4f0a-973d-aa2b6317f835"}},{"fullUrl":"https://madie.cms.gov/Location/a9a900f6-4cce-45df-a03b-44fa9b75aaf5","resource":{"resourceType":"Location","id":"a9a900f6-4cce-45df-a03b-44fa9b75aaf5","meta":{"profile":["http://hl7.org/fhir/us/qicore/StructureDefinition/qicore-location"]},"identifier":[{"use":"usual","system":"http://exampleoflocation.com","value":"B1-S.F2"}],"name":"Medical Surgical East, first floor","type":[{"coding":[{"system":"https://www.cdc.gov/nhsn/cdaportal/terminology/codesystem/hsloc.html","version":"2022","code":"1108-0","display":"Emergency Department","userSelected":true}]}]},"request":{"method":"PUT","url":"Location/a9a900f6-4cce-45df-a03b-44fa9b75aaf5"}},{"fullUrl":"https://madie.cms.gov/Location/b3520d93-7bc0-4122-8cab-6db09570baf6","resource":{"resourceType":"Location","id":"b3520d93-7bc0-4122-8cab-6db09570baf6","meta":{"profile":["http://hl7.org/fhir/us/qicore/StructureDefinition/qicore-location"]},"identifier":[{"use":"usual","system":"http://exampleoflocation.com","value":"B1-S.F2"}],"name":"Medical Surgical East, first floor","type":[{"coding":[{"system":"https://www.cdc.gov/nhsn/cdaportal/terminology/codesystem/hsloc.html","version":"2022","code":"1108-0","display":"Emergency Department","userSelected":true}]}]},"request":{"method":"PUT","url":"Location/b3520d93-7bc0-4122-8cab-6db09570baf6"}},{"fullUrl":"https://madie.cms.gov/claim/ClaimBehavior-NotSubsAbuse","resource":{"resourceType":"Claim","id":"ClaimBehavior-NotSubsAbuse","meta":{"profile":["http://hl7.org/fhir/us/qicore/StructureDefinition/qicore-claim"]},"status":"active","type":{"coding":[{"system":"http://terminology.hl7.org/CodeSystem/claim-type","code":"institutional"}]},"use":"claim","patient":{"reference":"Patient/9fed66ec-d314-4a2e-a6d5-056ec2f702c2"},"created":"2027-05-01","provider":{"reference":"Practitioner/7e6eebc1-991b-4ee9-84e8-48f67b0f06b3"},"priority":{"coding":[{"system":"http://terminology.hl7.org/CodeSystem/processpriority","code":"normal"}]},"diagnosis":[{"sequence":1,"diagnosisReference":{"reference":"Condition/529a82c5-0b87-4f0a-973d-aa2b6317f835"},"type":[{"coding":[{"system":"http://terminology.hl7.org/CodeSystem/ex-diagnosistype","code":"principal"}]}]}],"insurance":[{"sequence":1,"focal":true,"coverage":{"reference":"Coverage/a2894db5-4d2f-4f67-940b-373a958845c4"}}],"item":[{"sequence":1,"diagnosisSequence":[1],"productOrService":{"coding":[{"system":"http://terminology.hl7.org/CodeSystem/ex-USCLS","code":"99555"}]},"encounter":[{"reference":"Encounter/0ffacb1a-b6d5-4cd9-8df3-fda2ccd4e4ca"}]}]},"request":{"method":"PUT","url":"Claim/ClaimBehavior-NotSubsAbuse"}},{"fullUrl":"https://madie.cms.gov/Coverage/a2894db5-4d2f-4f67-940b-373a958845c4","resource":{"resourceType":"Coverage","id":"a2894db5-4d2f-4f67-940b-373a958845c4","meta":{"profile":["http://hl7.org/fhir/us/qicore/StructureDefinition/qicore-coverage"]},"identifier":[{"type":{"coding":[{"system":"http://terminology.hl7.org/CodeSystem/v2-0203","code":"MB"}]}}],"status":"active","beneficiary":{"reference":"Patient/9fed66ec-d314-4a2e-a6d5-056ec2f702c2"},"relationship":{"coding":[{"system":"http://terminology.hl7.org/CodeSystem/subscriber-relationship","code":"self"}]},"payor":[{"reference":"Organization/155b13fe-3061-4644-acbd-bd5a29dbde0a"}]},"request":{"method":"PUT","url":"Coverage/a2894db5-4d2f-4f67-940b-373a958845c4"}},{"fullUrl":"https://madie.cms.gov/Organization/155b13fe-3061-4644-acbd-bd5a29dbde0a","resource":{"resourceType":"Organization","id":"155b13fe-3061-4644-acbd-bd5a29dbde0a","meta":{"profile":["http://hl7.org/fhir/us/qicore/StructureDefinition/qicore-organization"]},"identifier":[{"use":"temp","system":"urn:oid:2.16.840.1.113883.4.4","value":"21-3259825"}],"active":true,"type":[{"coding":[{"system":"http://terminology.hl7.org/CodeSystem/organization-type","code":"pay","display":"Payer"}]}],"name":"Blue Cross Blue Shield of Texas","telecom":[{"system":"phone","value":"(+1) 972-766-6900"}],"address":[{"use":"billing","type":"postal","line":["P.O. Box 660044"],"city":"Dallas","state":"TX","postalCode":"75266-0044","country":"USA"}]},"request":{"method":"PUT","url":"Organization/155b13fe-3061-4644-acbd-bd5a29dbde0a"}},{"fullUrl":"https://madie.cms.gov/Practitioner/7e6eebc1-991b-4ee9-84e8-48f67b0f06b3","resource":{"resourceType":"Practitioner","id":"7e6eebc1-991b-4ee9-84e8-48f67b0f06b3","meta":{"profile":["http://hl7.org/fhir/us/qicore/StructureDefinition/qicore-practitioner"]},"identifier":[{"system":"http://hl7.org/fhir/sid/us-npi","value":"9999999896"}],"name":[{"family":"Evil","prefix":["Dr"]}]},"request":{"method":"PUT","url":"Practitioner/7e6eebc1-991b-4ee9-84e8-48f67b0f06b3"}},{"fullUrl":"https://madie.cms.gov/MeasureReport/7803fc0e-a512-400a-b51d-f3cd2d808e4f","resource":{"resourceType":"MeasureReport","id":"7803fc0e-a512-400a-b51d-f3cd2d808e4f","meta":{"profile":["http://hl7.org/fhir/us/cqfmeasures/StructureDefinition/test-case-cqfm"]},"contained":[{"resourceType":"Parameters","id":"39bfc836-0bdd-4ca7-a1e3-f6bc30883750-parameters","parameter":[{"name":"subject","valueString":"9fed66ec-d314-4a2e-a6d5-056ec2f702c2"}]}],"extension":[{"url":"http://hl7.org/fhir/StructureDefinition/cqf-inputParameters","valueReference":{"reference":"#39bfc836-0bdd-4ca7-a1e3-f6bc30883750-parameters"}},{"url":"http://hl7.org/fhir/us/cqfmeasures/StructureDefinition/cqfm-testCaseDescription","valueMarkdown":"Time to ED to treatment, LOS in ED 8hr plus, with min observation stay"}],"modifierExtension":[{"url":"http://hl7.org/fhir/us/cqfmeasures/StructureDefinition/cqfm-isTestCase","valueBoolean":true}],"status":"complete","type":"individual","measure":"https://madie.cms.gov/Measure/CMS1244FHIRECATHOQR","period":{"start":"2027-01-01","end":"2027-12-31"},"group":[{"id":"Group_1","population":[{"id":"InitialPopulation_1","code":{"coding":[{"system":"http://terminology.hl7.org/CodeSystem/measure-population","code":"initial-population","display":"Initial Population"}]},"count":1},{"id":"Denominator_1","code":{"coding":[{"system":"http://terminology.hl7.org/CodeSystem/measure-population","code":"denominator","display":"Denominator"}]},"count":1},{"id":"Numerator_1","code":{"coding":[{"system":"http://terminology.hl7.org/CodeSystem/measure-population","code":"numerator","display":"Numerator"}]},"count":1}],"measureScore":{"value":0.0},"stratifier":[{"id":"Stratification_1_1","code":[{"text":"Strata-1"}],"stratum":[{"value":{"text":"Strata-1"},"population":[{"id":"InitialPopulation_1","code":{"coding":[{"system":"http://terminology.hl7.org/CodeSystem/measure-population","code":"initial-population","display":"Initial Population"}]},"count":1},{"id":"Denominator_1","code":{"coding":[{"system":"http://terminology.hl7.org/CodeSystem/measure-population","code":"denominator","display":"Denominator"}]},"count":1},{"id":"Numerator_1","code":{"coding":[{"system":"http://terminology.hl7.org/CodeSystem/measure-population","code":"numerator","display":"Numerator"}]},"count":1}]}]},{"id":"Stratification_1_2","code":[{"text":"Strata-2"}],"stratum":[{"value":{"text":"Strata-2"},"population":[{"id":"InitialPopulation_1","code":{"coding":[{"system":"http://terminology.hl7.org/CodeSystem/measure-population","code":"initial-population","display":"Initial Population"}]},"count":0},{"id":"Denominator_1","code":{"coding":[{"system":"http://terminology.hl7.org/CodeSystem/measure-population","code":"denominator","display":"Denominator"}]},"count":0},{"id":"Numerator_1","code":{"coding":[{"system":"http://terminology.hl7.org/CodeSystem/measure-population","code":"numerator","display":"Numerator"}]},"count":0}]}]},{"id":"Stratification_1_3","code":[{"text":"Strata-3"}],"stratum":[{"value":{"text":"Strata-3"},"population":[{"id":"InitialPopulation_1","code":{"coding":[{"system":"http://terminology.hl7.org/CodeSystem/measure-population","code":"initial-population","display":"Initial Population"}]},"count":0},{"id":"Denominator_1","code":{"coding":[{"system":"http://terminology.hl7.org/CodeSystem/measure-population","code":"denominator","display":"Denominator"}]},"count":0},{"id":"Numerator_1","code":{"coding":[{"system":"http://terminology.hl7.org/CodeSystem/measure-population","code":"numerator","display":"Numerator"}]},"count":0}]}]},{"id":"Stratification_1_4","code":[{"text":"Strata-4"}],"stratum":[{"value":{"text":"Strata-4"},"population":[{"id":"InitialPopulation_1","code":{"coding":[{"system":"http://terminology.hl7.org/CodeSystem/measure-population","code":"initial-population","display":"Initial Population"}]},"count":0},{"id":"Denominator_1","code":{"coding":[{"system":"http://terminology.hl7.org/CodeSystem/measure-population","code":"denominator","display":"Denominator"}]},"count":0},{"id":"Numerator_1","code":{"coding":[{"system":"http://terminology.hl7.org/CodeSystem/measure-population","code":"numerator","display":"Numerator"}]},"count":0}]}]}]}],"evaluatedResource":[{"reference":"Patient/9fed66ec-d314-4a2e-a6d5-056ec2f702c2"},{"reference":"Encounter/0ffacb1a-b6d5-4cd9-8df3-fda2ccd4e4ca"},{"reference":"Location/def919c7-1cde-469c-aa45-29056dc68a3d"},{"reference":"Encounter/7bb4c6eb-378f-4427-bcc6-1e741cc7ef97"},{"reference":"Location/56eb5e61-23b7-4b2a-926f-09604ed5988c"},{"reference":"Condition/529a82c5-0b87-4f0a-973d-aa2b6317f835"},{"reference":"Location/a9a900f6-4cce-45df-a03b-44fa9b75aaf5"},{"reference":"Location/b3520d93-7bc0-4122-8cab-6db09570baf6"},{"reference":"Claim/ClaimBehavior-NotSubsAbuse"},{"reference":"Coverage/a2894db5-4d2f-4f67-940b-373a958845c4"},{"reference":"Organization/155b13fe-3061-4644-acbd-bd5a29dbde0a"},{"reference":"Practitioner/7e6eebc1-991b-4ee9-84e8-48f67b0f06b3"}]},"request":{"method":"PUT","url":"MeasureReport/7803fc0e-a512-400a-b51d-f3cd2d808e4f"}}]},"request":{"method":"PUT","url":"Bundle/661579e3db207d74c03b8a56"}},{"resource":{"resourceType":"Location","id":"b3520d93-7bc0-4122-8cab-6db09570baf6","meta":{"profile":["http://hl7.org/fhir/us/qicore/StructureDefinition/qicore-location"]},"identifier":[{"use":"usual","system":"http://exampleoflocation.com","value":"B1-S.F2"}],"name":"Medical Surgical East, first floor","type":[{"coding":[{"system":"https://www.cdc.gov/nhsn/cdaportal/terminology/codesystem/hsloc.html","version":"2022","code":"1108-0","display":"Emergency Department","userSelected":true}]}]},"request":{"method":"PUT","url":"Location/b3520d93-7bc0-4122-8cab-6db09570baf6"}},{"resource":{"resourceType":"Patient","id":"9fed66ec-d314-4a2e-a6d5-056ec2f702c2","meta":{"profile":["http://hl7.org/fhir/us/qicore/StructureDefinition/qicore-patient"]},"extension":[{"url":"http://hl7.org/fhir/us/core/StructureDefinition/us-core-race","extension":[{"url":"ombCategory","valueCoding":{"system":"urn:oid:2.16.840.1.113883.6.238","code":"2076-8","display":"Native Hawaiian or Other Pacific Islander","userSelected":true}},{"url":"text","valueString":"Native Hawaiian or Other Pacific Islander"}]},{"url":"http://hl7.org/fhir/us/core/StructureDefinition/us-core-ethnicity","extension":[{"url":"ombCategory","valueCoding":{"system":"urn:oid:2.16.840.1.113883.6.238","code":"2186-5","display":"Not Hispanic or Latino","userSelected":true}},{"url":"text","valueString":"Not Hispanic or Latino"}]},{"url":"http://hl7.org/fhir/us/core/StructureDefinition/us-core-sex","valueCode":"248153007"}],"identifier":[{"type":{"coding":[{"system":"http://terminology.hl7.org/CodeSystem/v2-0203","code":"MR"}]},"system":"https://bonnie-fhir.healthit.gov/","value":"661579e3db207d74c03b8a55"}],"name":[{"family":"NUMERStrat1Pass","given":["TimeTx61LOS481MinsObsStay"]}],"gender":"male","birthDate":"2010-12-31"},"request":{"method":"PUT","url":"Patient/9fed66ec-d314-4a2e-a6d5-056ec2f702c2"}},{"resource":{"resourceType":"Practitioner","id":"7e6eebc1-991b-4ee9-84e8-48f67b0f06b3","meta":{"profile":["http://hl7.org/fhir/us/qicore/StructureDefinition/qicore-practitioner"]},"identifier":[{"system":"http://hl7.org/fhir/sid/us-npi","value":"9999999896"}],"name":[{"family":"Evil","prefix":["Dr"]}]},"request":{"method":"PUT","url":"Practitioner/7e6eebc1-991b-4ee9-84e8-48f67b0f06b3"}},{"resource":{"resourceType":"Location","id":"a9a900f6-4cce-45df-a03b-44fa9b75aaf5","meta":{"profile":["http://hl7.org/fhir/us/qicore/StructureDefinition/qicore-location"]},"identifier":[{"use":"usual","system":"http://exampleoflocation.com","value":"B1-S.F2"}],"name":"Medical Surgical East, first floor","type":[{"coding":[{"system":"https://www.cdc.gov/nhsn/cdaportal/terminology/codesystem/hsloc.html","version":"2022","code":"1108-0","display":"Emergency Department","userSelected":true}]}]},"request":{"method":"PUT","url":"Location/a9a900f6-4cce-45df-a03b-44fa9b75aaf5"}},{"resource":{"resourceType":"Claim","id":"ClaimBehavior-NotSubsAbuse","meta":{"profile":["http://hl7.org/fhir/us/qicore/StructureDefinition/qicore-claim"]},"status":"active","type":{"coding":[{"system":"http://terminology.hl7.org/CodeSystem/claim-type","code":"institutional"}]},"use":"claim","patient":{"reference":"Patient/9fed66ec-d314-4a2e-a6d5-056ec2f702c2"},"created":"2027-05-01","provider":{"reference":"Practitioner/7e6eebc1-991b-4ee9-84e8-48f67b0f06b3"},"priority":{"coding":[{"system":"http://terminology.hl7.org/CodeSystem/processpriority","code":"normal"}]},"diagnosis":[{"sequence":1,"diagnosisReference":{"reference":"Condition/529a82c5-0b87-4f0a-973d-aa2b6317f835"},"type":[{"coding":[{"system":"http://terminology.hl7.org/CodeSystem/ex-diagnosistype","code":"principal"}]}]}],"insurance":[{"sequence":1,"focal":true,"coverage":{"reference":"Coverage/a2894db5-4d2f-4f67-940b-373a958845c4"}}],"item":[{"sequence":1,"diagnosisSequence":[1],"productOrService":{"coding":[{"system":"http://terminology.hl7.org/CodeSystem/ex-USCLS","code":"99555"}]},"encounter":[{"reference":"Encounter/0ffacb1a-b6d5-4cd9-8df3-fda2ccd4e4ca"}]}]},"request":{"method":"PUT","url":"Claim/ClaimBehavior-NotSubsAbuse"}},{"resource":{"resourceType":"Encounter","id":"7bb4c6eb-378f-4427-bcc6-1e741cc7ef97","meta":{"profile":["http://hl7.org/fhir/us/qicore/StructureDefinition/qicore-encounter"]},"status":"finished","class":{"system":"http://terminology.hl7.org/CodeSystem/v3-ActCode","code":"EMER","display":"emergency"},"type":[{"coding":[{"system":"http://snomed.info/sct","code":"448951000124107","display":"Admission to observation unit (procedure)","userSelected":true}]}],"subject":{"reference":"Patient/9fed66ec-d314-4a2e-a6d5-056ec2f702c2"},"period":{"start":"2027-05-01T08:01:00.000+00:00","end":"2027-05-01T12:59:00.000+00:00"}},"request":{"method":"PUT","url":"Encounter/7bb4c6eb-378f-4427-bcc6-1e741cc7ef97"}}]}