{"resourceType":"Bundle","id":"tests-a8c8b95f-b734-4a56-8a62-2cba1e9ffc77-bundle","type":"transaction","entry":[{"resource":{"resourceType":"Location","id":"995bfdd5-e45d-4def-948f-3d94c4b463c1","meta":{"profile":["http://hl7.org/fhir/us/qicore/StructureDefinition/qicore-location"]},"identifier":[{"use":"usual","system":"http://exampleoflocation.com","value":"B1-S.F2"}],"name":"Medical Surgical East, first floor","type":[{"coding":[{"system":"https://www.cdc.gov/nhsn/cdaportal/terminology/codesystem/hsloc.html","version":"2022","code":"1209-6","display":"Treatment Room","userSelected":true}]}]},"request":{"method":"PUT","url":"Location/995bfdd5-e45d-4def-948f-3d94c4b463c1"}},{"resource":{"resourceType":"Location","id":"ae0b611f-8d75-428c-81be-033867e9498a","meta":{"profile":["http://hl7.org/fhir/us/qicore/StructureDefinition/qicore-location"]},"identifier":[{"use":"usual","system":"http://exampleoflocation.com","value":"B1-S.F2"}],"name":"Medical Surgical East, first floor","type":[{"coding":[{"system":"https://www.cdc.gov/nhsn/cdaportal/terminology/codesystem/hsloc.html","version":"2022","code":"1209-6","display":"Treatment Room"}]}]},"request":{"method":"PUT","url":"Location/ae0b611f-8d75-428c-81be-033867e9498a"}},{"resource":{"resourceType":"MeasureReport","id":"eba34ad8-b4ca-4746-9411-f66bef07133d","meta":{"profile":["http://hl7.org/fhir/us/cqfmeasures/StructureDefinition/test-case-cqfm"]},"contained":[{"resourceType":"Parameters","id":"493cc4c4-7ed3-410a-a997-34e874ec8f0b-parameters","parameter":[{"name":"subject","valueString":"a8c8b95f-b734-4a56-8a62-2cba1e9ffc77"}]}],"extension":[{"url":"http://hl7.org/fhir/StructureDefinition/cqf-inputParameters","valueReference":{"reference":"#493cc4c4-7ed3-410a-a997-34e874ec8f0b-parameters"}},{"url":"http://hl7.org/fhir/us/cqfmeasures/StructureDefinition/cqfm-testCaseDescription","valueMarkdown":"Adult, mental diagnosis, LOS 8+ hours. Triage before EM start"}],"modifierExtension":[{"url":"http://hl7.org/fhir/us/cqfmeasures/StructureDefinition/cqfm-isTestCase","valueBoolean":true}],"status":"complete","type":"individual","measure":"https://madie.cms.gov/Measure/CMS1244FHIRECATHOQR","period":{"start":"2027-01-01","end":"2027-12-31"},"group":[{"id":"Group_1","population":[{"id":"InitialPopulation_1","code":{"coding":[{"system":"http://terminology.hl7.org/CodeSystem/measure-population","code":"initial-population","display":"Initial Population"}]},"count":1},{"id":"Denominator_1","code":{"coding":[{"system":"http://terminology.hl7.org/CodeSystem/measure-population","code":"denominator","display":"Denominator"}]},"count":1},{"id":"Numerator_1","code":{"coding":[{"system":"http://terminology.hl7.org/CodeSystem/measure-population","code":"numerator","display":"Numerator"}]},"count":1}],"measureScore":{"value":0.0},"stratifier":[{"id":"Stratification_1_1","code":[{"text":"Strata-1"}],"stratum":[{"value":{"text":"Strata-1"},"population":[{"id":"InitialPopulation_1","code":{"coding":[{"system":"http://terminology.hl7.org/CodeSystem/measure-population","code":"initial-population","display":"Initial Population"}]},"count":0},{"id":"Denominator_1","code":{"coding":[{"system":"http://terminology.hl7.org/CodeSystem/measure-population","code":"denominator","display":"Denominator"}]},"count":0},{"id":"Numerator_1","code":{"coding":[{"system":"http://terminology.hl7.org/CodeSystem/measure-population","code":"numerator","display":"Numerator"}]},"count":0}]}]},{"id":"Stratification_1_2","code":[{"text":"Strata-2"}],"stratum":[{"value":{"text":"Strata-2"},"population":[{"id":"InitialPopulation_1","code":{"coding":[{"system":"http://terminology.hl7.org/CodeSystem/measure-population","code":"initial-population","display":"Initial Population"}]},"count":0},{"id":"Denominator_1","code":{"coding":[{"system":"http://terminology.hl7.org/CodeSystem/measure-population","code":"denominator","display":"Denominator"}]},"count":0},{"id":"Numerator_1","code":{"coding":[{"system":"http://terminology.hl7.org/CodeSystem/measure-population","code":"numerator","display":"Numerator"}]},"count":0}]}]},{"id":"Stratification_1_3","code":[{"text":"Strata-3"}],"stratum":[{"value":{"text":"Strata-3"},"population":[{"id":"InitialPopulation_1","code":{"coding":[{"system":"http://terminology.hl7.org/CodeSystem/measure-population","code":"initial-population","display":"Initial Population"}]},"count":0},{"id":"Denominator_1","code":{"coding":[{"system":"http://terminology.hl7.org/CodeSystem/measure-population","code":"denominator","display":"Denominator"}]},"count":0},{"id":"Numerator_1","code":{"coding":[{"system":"http://terminology.hl7.org/CodeSystem/measure-population","code":"numerator","display":"Numerator"}]},"count":0}]}]},{"id":"Stratification_1_4","code":[{"text":"Strata-4"}],"stratum":[{"value":{"text":"Strata-4"},"population":[{"id":"InitialPopulation_1","code":{"coding":[{"system":"http://terminology.hl7.org/CodeSystem/measure-population","code":"initial-population","display":"Initial Population"}]},"count":1},{"id":"Denominator_1","code":{"coding":[{"system":"http://terminology.hl7.org/CodeSystem/measure-population","code":"denominator","display":"Denominator"}]},"count":1},{"id":"Numerator_1","code":{"coding":[{"system":"http://terminology.hl7.org/CodeSystem/measure-population","code":"numerator","display":"Numerator"}]},"count":1}]}]}]}],"evaluatedResource":[{"reference":"Patient/a8c8b95f-b734-4a56-8a62-2cba1e9ffc77"},{"reference":"Encounter/1f27d880-2401-4e3f-905a-acc5b834d568"},{"reference":"Encounter/5c14fbb9-ce3f-4ba2-8b6c-aeff667a8419"},{"reference":"Location/469b6939-8e24-40b6-9256-9582aab848be"},{"reference":"Location/995bfdd5-e45d-4def-948f-3d94c4b463c1"},{"reference":"Condition/426ad110-eeca-4324-ada6-02ad3e7173a4"},{"reference":"Location/248ea807-7f6a-4903-a3af-44259a505079"},{"reference":"Location/ae0b611f-8d75-428c-81be-033867e9498a"},{"reference":"Claim/ClaimBehavior-NotSubsAbuse"},{"reference":"Coverage/dc2e1249-64ea-46bb-be62-d145b89433d6"},{"reference":"Organization/69b2ed44-1293-4294-b645-e0c3cef68e5f"},{"reference":"Practitioner/6e511264-798c-49e9-aab5-f3bd1b62152b"}]},"request":{"method":"PUT","url":"MeasureReport/eba34ad8-b4ca-4746-9411-f66bef07133d"}},{"resource":{"resourceType":"Bundle","id":"661579e3db207d74c03b8a59","type":"transaction","entry":[{"fullUrl":"https://madie.cms.gov/Patient/a8c8b95f-b734-4a56-8a62-2cba1e9ffc77","resource":{"resourceType":"Patient","id":"a8c8b95f-b734-4a56-8a62-2cba1e9ffc77","meta":{"profile":["http://hl7.org/fhir/us/qicore/StructureDefinition/qicore-patient"]},"extension":[{"url":"http://hl7.org/fhir/us/core/StructureDefinition/us-core-race","extension":[{"url":"ombCategory","valueCoding":{"system":"urn:oid:2.16.840.1.113883.6.238","code":"2076-8","display":"Native Hawaiian or Other Pacific Islander","userSelected":true}},{"url":"text","valueString":"Native Hawaiian or Other Pacific Islander"}]},{"url":"http://hl7.org/fhir/us/core/StructureDefinition/us-core-ethnicity","extension":[{"url":"ombCategory","valueCoding":{"system":"urn:oid:2.16.840.1.113883.6.238","code":"2186-5","display":"Not Hispanic or Latino","userSelected":true}},{"url":"text","valueString":"Not Hispanic or Latino"}]},{"url":"http://hl7.org/fhir/us/core/StructureDefinition/us-core-sex","valueCode":"248152002"}],"identifier":[{"type":{"coding":[{"system":"http://terminology.hl7.org/CodeSystem/v2-0203","code":"MR"}]},"system":"https://bonnie-fhir.healthit.gov/","value":"661579e3db207d74c03b8a59"}],"name":[{"family":"NUMERStrat4Pass","given":["TimeToTx61Min"]}],"gender":"female","birthDate":"2008-12-31"},"request":{"method":"PUT","url":"Patient/a8c8b95f-b734-4a56-8a62-2cba1e9ffc77"}},{"fullUrl":"https://madie.cms.gov/Encounter/1f27d880-2401-4e3f-905a-acc5b834d568","resource":{"resourceType":"Encounter","id":"1f27d880-2401-4e3f-905a-acc5b834d568","meta":{"profile":["http://hl7.org/fhir/us/qicore/StructureDefinition/qicore-encounter"]},"status":"finished","class":{"system":"http://terminology.hl7.org/CodeSystem/v3-ActCode","code":"EMER","display":"emergency"},"type":[{"coding":[{"system":"http://snomed.info/sct","version":"2023-09","code":"225390008","display":"Triage (procedure)","userSelected":true}]}],"subject":{"reference":"Patient/a8c8b95f-b734-4a56-8a62-2cba1e9ffc77"},"period":{"start":"2027-05-01T06:00:00.000+00:00","end":"2027-05-01T06:15:00.000+00:00"}},"request":{"method":"PUT","url":"Encounter/1f27d880-2401-4e3f-905a-acc5b834d568"}},{"fullUrl":"https://madie.cms.gov/Encounter/5c14fbb9-ce3f-4ba2-8b6c-aeff667a8419","resource":{"resourceType":"Encounter","id":"5c14fbb9-ce3f-4ba2-8b6c-aeff667a8419","meta":{"profile":["http://hl7.org/fhir/us/qicore/StructureDefinition/qicore-encounter"]},"status":"finished","class":{"system":"http://terminology.hl7.org/CodeSystem/v3-ActCode","code":"EMER","display":"emergency"},"type":[{"coding":[{"system":"http://snomed.info/sct","version":"2023-09","code":"4525004","display":"Emergency department patient visit (procedure)","userSelected":true}]}],"subject":{"reference":"Patient/a8c8b95f-b734-4a56-8a62-2cba1e9ffc77"},"period":{"start":"2027-05-01T08:00:00.000+00:00","end":"2027-05-01T12:15:00.000+00:00"},"diagnosis":[{"condition":{"reference":"Condition/426ad110-eeca-4324-ada6-02ad3e7173a4"},"use":{"coding":[{"system":"http://terminology.hl7.org/CodeSystem/diagnosis-role","code":"billing"}]},"rank":1}],"location":[{"location":{"reference":"Location/469b6939-8e24-40b6-9256-9582aab848be"},"period":{"start":"2027-05-01T07:45:00.000+00:00","end":"2027-05-01T16:31:00.000+00:00"}},{"location":{"reference":"Location/995bfdd5-e45d-4def-948f-3d94c4b463c1"},"period":{"start":"2027-05-01T09:31:00.000+00:00","end":"2027-05-01T12:15:00.000+00:00"}},{"location":{"reference":"Location/ae0b611f-8d75-428c-81be-033867e9498a"},"period":{"start":"2027-05-01T08:40:00.000+00:00","end":"2027-05-01T12:15:00.000+00:00"}},{"location":{"reference":"Location/248ea807-7f6a-4903-a3af-44259a505079"},"period":{"start":"2027-05-01T08:30:00.000+00:00","end":"2027-05-01T15:46:00.000+00:00"}}]},"request":{"method":"PUT","url":"Encounter/5c14fbb9-ce3f-4ba2-8b6c-aeff667a8419"}},{"fullUrl":"https://madie.cms.gov/Location/469b6939-8e24-40b6-9256-9582aab848be","resource":{"resourceType":"Location","id":"469b6939-8e24-40b6-9256-9582aab848be","meta":{"profile":["http://hl7.org/fhir/us/qicore/StructureDefinition/qicore-location"]},"identifier":[{"use":"usual","system":"http://exampleoflocation.com","value":"B1-S.F1"}],"name":"Medical Surgical East, first floor","type":[{"coding":[{"system":"https://www.cdc.gov/nhsn/cdaportal/terminology/codesystem/hsloc.html","version":"2022","code":"1108-0","display":"Emergency Department","userSelected":true}]}]},"request":{"method":"PUT","url":"Location/469b6939-8e24-40b6-9256-9582aab848be"}},{"fullUrl":"https://madie.cms.gov/Location/995bfdd5-e45d-4def-948f-3d94c4b463c1","resource":{"resourceType":"Location","id":"995bfdd5-e45d-4def-948f-3d94c4b463c1","meta":{"profile":["http://hl7.org/fhir/us/qicore/StructureDefinition/qicore-location"]},"identifier":[{"use":"usual","system":"http://exampleoflocation.com","value":"B1-S.F2"}],"name":"Medical Surgical East, first floor","type":[{"coding":[{"system":"https://www.cdc.gov/nhsn/cdaportal/terminology/codesystem/hsloc.html","version":"2022","code":"1209-6","display":"Treatment Room","userSelected":true}]}]},"request":{"method":"PUT","url":"Location/995bfdd5-e45d-4def-948f-3d94c4b463c1"}},{"fullUrl":"https://madie.cms.gov/Condition/426ad110-eeca-4324-ada6-02ad3e7173a4","resource":{"resourceType":"Condition","id":"426ad110-eeca-4324-ada6-02ad3e7173a4","meta":{"profile":["http://hl7.org/fhir/us/qicore/StructureDefinition/qicore-condition-encounter-diagnosis"]},"category":[{"coding":[{"system":"http://terminology.hl7.org/CodeSystem/condition-category","code":"encounter-diagnosis","display":"Encounter Diagnosis"}]}],"code":{"coding":[{"system":"http://snomed.info/sct","version":"2023-09","code":"10349009","display":"Multi-infarct dementia with delirium (disorder)","userSelected":true}]},"subject":{"reference":"Patient/a8c8b95f-b734-4a56-8a62-2cba1e9ffc77"},"recordedDate":"2027-04-09T08:00:00.000+00:00"},"request":{"method":"PUT","url":"Condition/426ad110-eeca-4324-ada6-02ad3e7173a4"}},{"fullUrl":"https://madie.cms.gov/Location/248ea807-7f6a-4903-a3af-44259a505079","resource":{"resourceType":"Location","id":"248ea807-7f6a-4903-a3af-44259a505079","meta":{"profile":["http://hl7.org/fhir/us/qicore/StructureDefinition/qicore-location"]},"identifier":[{"use":"usual","system":"http://exampleoflocation.com","value":"B1-S.F2"}],"name":"Medical Surgical East, first floor","type":[{"coding":[{"system":"https://www.cdc.gov/nhsn/cdaportal/terminology/codesystem/hsloc.html","version":"2022","code":"1108-0","display":"Emergency Department","userSelected":true}]}]},"request":{"method":"PUT","url":"Location/248ea807-7f6a-4903-a3af-44259a505079"}},{"fullUrl":"https://madie.cms.gov/Location/ae0b611f-8d75-428c-81be-033867e9498a","resource":{"resourceType":"Location","id":"ae0b611f-8d75-428c-81be-033867e9498a","meta":{"profile":["http://hl7.org/fhir/us/qicore/StructureDefinition/qicore-location"]},"identifier":[{"use":"usual","system":"http://exampleoflocation.com","value":"B1-S.F2"}],"name":"Medical Surgical East, first floor","type":[{"coding":[{"system":"https://www.cdc.gov/nhsn/cdaportal/terminology/codesystem/hsloc.html","version":"2022","code":"1209-6","display":"Treatment Room"}]}]},"request":{"method":"PUT","url":"Location/ae0b611f-8d75-428c-81be-033867e9498a"}},{"fullUrl":"https://madie.cms.gov/claim/ClaimBehavior-NotSubsAbuse","resource":{"resourceType":"Claim","id":"ClaimBehavior-NotSubsAbuse","meta":{"profile":["http://hl7.org/fhir/us/qicore/StructureDefinition/qicore-claim"]},"status":"active","type":{"coding":[{"system":"http://terminology.hl7.org/CodeSystem/claim-type","code":"institutional"}]},"use":"claim","patient":{"reference":"Patient/a8c8b95f-b734-4a56-8a62-2cba1e9ffc77"},"created":"2027-05-01","provider":{"reference":"Practitioner/6e511264-798c-49e9-aab5-f3bd1b62152b"},"priority":{"coding":[{"system":"http://terminology.hl7.org/CodeSystem/processpriority","code":"normal"}]},"diagnosis":[{"sequence":1,"diagnosisReference":{"reference":"Condition/426ad110-eeca-4324-ada6-02ad3e7173a4"},"type":[{"coding":[{"system":"http://terminology.hl7.org/CodeSystem/ex-diagnosistype","code":"principal"}]}]}],"insurance":[{"sequence":1,"focal":true,"coverage":{"reference":"Coverage/dc2e1249-64ea-46bb-be62-d145b89433d6"}}],"item":[{"sequence":1,"diagnosisSequence":[1],"productOrService":{"coding":[{"system":"http://terminology.hl7.org/CodeSystem/ex-USCLS","code":"99555"}]},"encounter":[{"reference":"Encounter/5c14fbb9-ce3f-4ba2-8b6c-aeff667a8419"}]}]},"request":{"method":"PUT","url":"Claim/ClaimBehavior-NotSubsAbuse"}},{"fullUrl":"https://madie.cms.gov/Coverage/dc2e1249-64ea-46bb-be62-d145b89433d6","resource":{"resourceType":"Coverage","id":"dc2e1249-64ea-46bb-be62-d145b89433d6","meta":{"profile":["http://hl7.org/fhir/us/qicore/StructureDefinition/qicore-coverage"]},"identifier":[{"type":{"coding":[{"system":"http://terminology.hl7.org/CodeSystem/v2-0203","code":"MB"}]}}],"status":"active","beneficiary":{"reference":"Patient/a8c8b95f-b734-4a56-8a62-2cba1e9ffc77"},"relationship":{"coding":[{"system":"http://terminology.hl7.org/CodeSystem/subscriber-relationship","code":"self"}]},"payor":[{"reference":"Organization/69b2ed44-1293-4294-b645-e0c3cef68e5f"}]},"request":{"method":"PUT","url":"Coverage/dc2e1249-64ea-46bb-be62-d145b89433d6"}},{"fullUrl":"https://madie.cms.gov/Organization/69b2ed44-1293-4294-b645-e0c3cef68e5f","resource":{"resourceType":"Organization","id":"69b2ed44-1293-4294-b645-e0c3cef68e5f","meta":{"profile":["http://hl7.org/fhir/us/qicore/StructureDefinition/qicore-organization"]},"identifier":[{"use":"temp","system":"urn:oid:2.16.840.1.113883.4.4","value":"21-3259825"}],"active":true,"type":[{"coding":[{"system":"http://terminology.hl7.org/CodeSystem/organization-type","code":"pay","display":"Payer"}]}],"name":"Blue Cross Blue Shield of Texas","telecom":[{"system":"phone","value":"(+1) 972-766-6900"}],"address":[{"use":"billing","type":"postal","line":["P.O. Box 660044"],"city":"Dallas","state":"TX","postalCode":"75266-0044","country":"USA"}]},"request":{"method":"PUT","url":"Organization/69b2ed44-1293-4294-b645-e0c3cef68e5f"}},{"fullUrl":"https://madie.cms.gov/Practitioner/6e511264-798c-49e9-aab5-f3bd1b62152b","resource":{"resourceType":"Practitioner","id":"6e511264-798c-49e9-aab5-f3bd1b62152b","meta":{"profile":["http://hl7.org/fhir/us/qicore/StructureDefinition/qicore-practitioner"]},"identifier":[{"system":"http://hl7.org/fhir/sid/us-npi","value":"9999999896"}],"name":[{"family":"Evil","prefix":["Dr"]}]},"request":{"method":"PUT","url":"Practitioner/6e511264-798c-49e9-aab5-f3bd1b62152b"}},{"fullUrl":"https://madie.cms.gov/MeasureReport/eba34ad8-b4ca-4746-9411-f66bef07133d","resource":{"resourceType":"MeasureReport","id":"eba34ad8-b4ca-4746-9411-f66bef07133d","meta":{"profile":["http://hl7.org/fhir/us/cqfmeasures/StructureDefinition/test-case-cqfm"]},"contained":[{"resourceType":"Parameters","id":"493cc4c4-7ed3-410a-a997-34e874ec8f0b-parameters","parameter":[{"name":"subject","valueString":"a8c8b95f-b734-4a56-8a62-2cba1e9ffc77"}]}],"extension":[{"url":"http://hl7.org/fhir/StructureDefinition/cqf-inputParameters","valueReference":{"reference":"#493cc4c4-7ed3-410a-a997-34e874ec8f0b-parameters"}},{"url":"http://hl7.org/fhir/us/cqfmeasures/StructureDefinition/cqfm-testCaseDescription","valueMarkdown":"Adult, mental diagnosis, LOS 8+ hours. Triage before EM start"}],"modifierExtension":[{"url":"http://hl7.org/fhir/us/cqfmeasures/StructureDefinition/cqfm-isTestCase","valueBoolean":true}],"status":"complete","type":"individual","measure":"https://madie.cms.gov/Measure/CMS1244FHIRECATHOQR","period":{"start":"2027-01-01","end":"2027-12-31"},"group":[{"id":"Group_1","population":[{"id":"InitialPopulation_1","code":{"coding":[{"system":"http://terminology.hl7.org/CodeSystem/measure-population","code":"initial-population","display":"Initial Population"}]},"count":1},{"id":"Denominator_1","code":{"coding":[{"system":"http://terminology.hl7.org/CodeSystem/measure-population","code":"denominator","display":"Denominator"}]},"count":1},{"id":"Numerator_1","code":{"coding":[{"system":"http://terminology.hl7.org/CodeSystem/measure-population","code":"numerator","display":"Numerator"}]},"count":1}],"measureScore":{"value":0.0},"stratifier":[{"id":"Stratification_1_1","code":[{"text":"Strata-1"}],"stratum":[{"value":{"text":"Strata-1"},"population":[{"id":"InitialPopulation_1","code":{"coding":[{"system":"http://terminology.hl7.org/CodeSystem/measure-population","code":"initial-population","display":"Initial Population"}]},"count":0},{"id":"Denominator_1","code":{"coding":[{"system":"http://terminology.hl7.org/CodeSystem/measure-population","code":"denominator","display":"Denominator"}]},"count":0},{"id":"Numerator_1","code":{"coding":[{"system":"http://terminology.hl7.org/CodeSystem/measure-population","code":"numerator","display":"Numerator"}]},"count":0}]}]},{"id":"Stratification_1_2","code":[{"text":"Strata-2"}],"stratum":[{"value":{"text":"Strata-2"},"population":[{"id":"InitialPopulation_1","code":{"coding":[{"system":"http://terminology.hl7.org/CodeSystem/measure-population","code":"initial-population","display":"Initial Population"}]},"count":0},{"id":"Denominator_1","code":{"coding":[{"system":"http://terminology.hl7.org/CodeSystem/measure-population","code":"denominator","display":"Denominator"}]},"count":0},{"id":"Numerator_1","code":{"coding":[{"system":"http://terminology.hl7.org/CodeSystem/measure-population","code":"numerator","display":"Numerator"}]},"count":0}]}]},{"id":"Stratification_1_3","code":[{"text":"Strata-3"}],"stratum":[{"value":{"text":"Strata-3"},"population":[{"id":"InitialPopulation_1","code":{"coding":[{"system":"http://terminology.hl7.org/CodeSystem/measure-population","code":"initial-population","display":"Initial Population"}]},"count":0},{"id":"Denominator_1","code":{"coding":[{"system":"http://terminology.hl7.org/CodeSystem/measure-population","code":"denominator","display":"Denominator"}]},"count":0},{"id":"Numerator_1","code":{"coding":[{"system":"http://terminology.hl7.org/CodeSystem/measure-population","code":"numerator","display":"Numerator"}]},"count":0}]}]},{"id":"Stratification_1_4","code":[{"text":"Strata-4"}],"stratum":[{"value":{"text":"Strata-4"},"population":[{"id":"InitialPopulation_1","code":{"coding":[{"system":"http://terminology.hl7.org/CodeSystem/measure-population","code":"initial-population","display":"Initial Population"}]},"count":1},{"id":"Denominator_1","code":{"coding":[{"system":"http://terminology.hl7.org/CodeSystem/measure-population","code":"denominator","display":"Denominator"}]},"count":1},{"id":"Numerator_1","code":{"coding":[{"system":"http://terminology.hl7.org/CodeSystem/measure-population","code":"numerator","display":"Numerator"}]},"count":1}]}]}]}],"evaluatedResource":[{"reference":"Patient/a8c8b95f-b734-4a56-8a62-2cba1e9ffc77"},{"reference":"Encounter/1f27d880-2401-4e3f-905a-acc5b834d568"},{"reference":"Encounter/5c14fbb9-ce3f-4ba2-8b6c-aeff667a8419"},{"reference":"Location/469b6939-8e24-40b6-9256-9582aab848be"},{"reference":"Location/995bfdd5-e45d-4def-948f-3d94c4b463c1"},{"reference":"Condition/426ad110-eeca-4324-ada6-02ad3e7173a4"},{"reference":"Location/248ea807-7f6a-4903-a3af-44259a505079"},{"reference":"Location/ae0b611f-8d75-428c-81be-033867e9498a"},{"reference":"Claim/ClaimBehavior-NotSubsAbuse"},{"reference":"Coverage/dc2e1249-64ea-46bb-be62-d145b89433d6"},{"reference":"Organization/69b2ed44-1293-4294-b645-e0c3cef68e5f"},{"reference":"Practitioner/6e511264-798c-49e9-aab5-f3bd1b62152b"}]},"request":{"method":"PUT","url":"MeasureReport/eba34ad8-b4ca-4746-9411-f66bef07133d"}}]},"request":{"method":"PUT","url":"Bundle/661579e3db207d74c03b8a59"}},{"resource":{"resourceType":"Encounter","id":"5c14fbb9-ce3f-4ba2-8b6c-aeff667a8419","meta":{"profile":["http://hl7.org/fhir/us/qicore/StructureDefinition/qicore-encounter"]},"status":"finished","class":{"system":"http://terminology.hl7.org/CodeSystem/v3-ActCode","code":"EMER","display":"emergency"},"type":[{"coding":[{"system":"http://snomed.info/sct","version":"2023-09","code":"4525004","display":"Emergency department patient visit (procedure)","userSelected":true}]}],"subject":{"reference":"Patient/a8c8b95f-b734-4a56-8a62-2cba1e9ffc77"},"period":{"start":"2027-05-01T08:00:00.000+00:00","end":"2027-05-01T12:15:00.000+00:00"},"diagnosis":[{"condition":{"reference":"Condition/426ad110-eeca-4324-ada6-02ad3e7173a4"},"use":{"coding":[{"system":"http://terminology.hl7.org/CodeSystem/diagnosis-role","code":"billing"}]},"rank":1}],"location":[{"location":{"reference":"Location/469b6939-8e24-40b6-9256-9582aab848be"},"period":{"start":"2027-05-01T07:45:00.000+00:00","end":"2027-05-01T16:31:00.000+00:00"}},{"location":{"reference":"Location/995bfdd5-e45d-4def-948f-3d94c4b463c1"},"period":{"start":"2027-05-01T09:31:00.000+00:00","end":"2027-05-01T12:15:00.000+00:00"}},{"location":{"reference":"Location/ae0b611f-8d75-428c-81be-033867e9498a"},"period":{"start":"2027-05-01T08:40:00.000+00:00","end":"2027-05-01T12:15:00.000+00:00"}},{"location":{"reference":"Location/248ea807-7f6a-4903-a3af-44259a505079"},"period":{"start":"2027-05-01T08:30:00.000+00:00","end":"2027-05-01T15:46:00.000+00:00"}}]},"request":{"method":"PUT","url":"Encounter/5c14fbb9-ce3f-4ba2-8b6c-aeff667a8419"}},{"resource":{"resourceType":"Patient","id":"a8c8b95f-b734-4a56-8a62-2cba1e9ffc77","meta":{"profile":["http://hl7.org/fhir/us/qicore/StructureDefinition/qicore-patient"]},"extension":[{"url":"http://hl7.org/fhir/us/core/StructureDefinition/us-core-race","extension":[{"url":"ombCategory","valueCoding":{"system":"urn:oid:2.16.840.1.113883.6.238","code":"2076-8","display":"Native Hawaiian or Other Pacific Islander","userSelected":true}},{"url":"text","valueString":"Native Hawaiian or Other Pacific Islander"}]},{"url":"http://hl7.org/fhir/us/core/StructureDefinition/us-core-ethnicity","extension":[{"url":"ombCategory","valueCoding":{"system":"urn:oid:2.16.840.1.113883.6.238","code":"2186-5","display":"Not Hispanic or Latino","userSelected":true}},{"url":"text","valueString":"Not Hispanic or Latino"}]},{"url":"http://hl7.org/fhir/us/core/StructureDefinition/us-core-sex","valueCode":"248152002"}],"identifier":[{"type":{"coding":[{"system":"http://terminology.hl7.org/CodeSystem/v2-0203","code":"MR"}]},"system":"https://bonnie-fhir.healthit.gov/","value":"661579e3db207d74c03b8a59"}],"name":[{"family":"NUMERStrat4Pass","given":["TimeToTx61Min"]}],"gender":"female","birthDate":"2008-12-31"},"request":{"method":"PUT","url":"Patient/a8c8b95f-b734-4a56-8a62-2cba1e9ffc77"}},{"resource":{"resourceType":"Location","id":"248ea807-7f6a-4903-a3af-44259a505079","meta":{"profile":["http://hl7.org/fhir/us/qicore/StructureDefinition/qicore-location"]},"identifier":[{"use":"usual","system":"http://exampleoflocation.com","value":"B1-S.F2"}],"name":"Medical Surgical East, first floor","type":[{"coding":[{"system":"https://www.cdc.gov/nhsn/cdaportal/terminology/codesystem/hsloc.html","version":"2022","code":"1108-0","display":"Emergency Department","userSelected":true}]}]},"request":{"method":"PUT","url":"Location/248ea807-7f6a-4903-a3af-44259a505079"}},{"resource":{"resourceType":"Condition","id":"426ad110-eeca-4324-ada6-02ad3e7173a4","meta":{"profile":["http://hl7.org/fhir/us/qicore/StructureDefinition/qicore-condition-encounter-diagnosis"]},"category":[{"coding":[{"system":"http://terminology.hl7.org/CodeSystem/condition-category","code":"encounter-diagnosis","display":"Encounter Diagnosis"}]}],"code":{"coding":[{"system":"http://snomed.info/sct","version":"2023-09","code":"10349009","display":"Multi-infarct dementia with delirium (disorder)","userSelected":true}]},"subject":{"reference":"Patient/a8c8b95f-b734-4a56-8a62-2cba1e9ffc77"},"recordedDate":"2027-04-09T08:00:00.000+00:00"},"request":{"method":"PUT","url":"Condition/426ad110-eeca-4324-ada6-02ad3e7173a4"}},{"resource":{"resourceType":"Coverage","id":"dc2e1249-64ea-46bb-be62-d145b89433d6","meta":{"profile":["http://hl7.org/fhir/us/qicore/StructureDefinition/qicore-coverage"]},"identifier":[{"type":{"coding":[{"system":"http://terminology.hl7.org/CodeSystem/v2-0203","code":"MB"}]}}],"status":"active","beneficiary":{"reference":"Patient/a8c8b95f-b734-4a56-8a62-2cba1e9ffc77"},"relationship":{"coding":[{"system":"http://terminology.hl7.org/CodeSystem/subscriber-relationship","code":"self"}]},"payor":[{"reference":"Organization/69b2ed44-1293-4294-b645-e0c3cef68e5f"}]},"request":{"method":"PUT","url":"Coverage/dc2e1249-64ea-46bb-be62-d145b89433d6"}},{"resource":{"resourceType":"Organization","id":"69b2ed44-1293-4294-b645-e0c3cef68e5f","meta":{"profile":["http://hl7.org/fhir/us/qicore/StructureDefinition/qicore-organization"]},"identifier":[{"use":"temp","system":"urn:oid:2.16.840.1.113883.4.4","value":"21-3259825"}],"active":true,"type":[{"coding":[{"system":"http://terminology.hl7.org/CodeSystem/organization-type","code":"pay","display":"Payer"}]}],"name":"Blue Cross Blue Shield of Texas","telecom":[{"system":"phone","value":"(+1) 972-766-6900"}],"address":[{"use":"billing","type":"postal","line":["P.O. Box 660044"],"city":"Dallas","state":"TX","postalCode":"75266-0044","country":"USA"}]},"request":{"method":"PUT","url":"Organization/69b2ed44-1293-4294-b645-e0c3cef68e5f"}},{"resource":{"resourceType":"Claim","id":"ClaimBehavior-NotSubsAbuse","meta":{"profile":["http://hl7.org/fhir/us/qicore/StructureDefinition/qicore-claim"]},"status":"active","type":{"coding":[{"system":"http://terminology.hl7.org/CodeSystem/claim-type","code":"institutional"}]},"use":"claim","patient":{"reference":"Patient/a8c8b95f-b734-4a56-8a62-2cba1e9ffc77"},"created":"2027-05-01","provider":{"reference":"Practitioner/6e511264-798c-49e9-aab5-f3bd1b62152b"},"priority":{"coding":[{"system":"http://terminology.hl7.org/CodeSystem/processpriority","code":"normal"}]},"diagnosis":[{"sequence":1,"diagnosisReference":{"reference":"Condition/426ad110-eeca-4324-ada6-02ad3e7173a4"},"type":[{"coding":[{"system":"http://terminology.hl7.org/CodeSystem/ex-diagnosistype","code":"principal"}]}]}],"insurance":[{"sequence":1,"focal":true,"coverage":{"reference":"Coverage/dc2e1249-64ea-46bb-be62-d145b89433d6"}}],"item":[{"sequence":1,"diagnosisSequence":[1],"productOrService":{"coding":[{"system":"http://terminology.hl7.org/CodeSystem/ex-USCLS","code":"99555"}]},"encounter":[{"reference":"Encounter/5c14fbb9-ce3f-4ba2-8b6c-aeff667a8419"}]}]},"request":{"method":"PUT","url":"Claim/ClaimBehavior-NotSubsAbuse"}},{"resource":{"resourceType":"Practitioner","id":"6e511264-798c-49e9-aab5-f3bd1b62152b","meta":{"profile":["http://hl7.org/fhir/us/qicore/StructureDefinition/qicore-practitioner"]},"identifier":[{"system":"http://hl7.org/fhir/sid/us-npi","value":"9999999896"}],"name":[{"family":"Evil","prefix":["Dr"]}]},"request":{"method":"PUT","url":"Practitioner/6e511264-798c-49e9-aab5-f3bd1b62152b"}},{"resource":{"resourceType":"Encounter","id":"1f27d880-2401-4e3f-905a-acc5b834d568","meta":{"profile":["http://hl7.org/fhir/us/qicore/StructureDefinition/qicore-encounter"]},"status":"finished","class":{"system":"http://terminology.hl7.org/CodeSystem/v3-ActCode","code":"EMER","display":"emergency"},"type":[{"coding":[{"system":"http://snomed.info/sct","version":"2023-09","code":"225390008","display":"Triage (procedure)","userSelected":true}]}],"subject":{"reference":"Patient/a8c8b95f-b734-4a56-8a62-2cba1e9ffc77"},"period":{"start":"2027-05-01T06:00:00.000+00:00","end":"2027-05-01T06:15:00.000+00:00"}},"request":{"method":"PUT","url":"Encounter/1f27d880-2401-4e3f-905a-acc5b834d568"}},{"resource":{"resourceType":"Location","id":"469b6939-8e24-40b6-9256-9582aab848be","meta":{"profile":["http://hl7.org/fhir/us/qicore/StructureDefinition/qicore-location"]},"identifier":[{"use":"usual","system":"http://exampleoflocation.com","value":"B1-S.F1"}],"name":"Medical Surgical East, first floor","type":[{"coding":[{"system":"https://www.cdc.gov/nhsn/cdaportal/terminology/codesystem/hsloc.html","version":"2022","code":"1108-0","display":"Emergency Department","userSelected":true}]}]},"request":{"method":"PUT","url":"Location/469b6939-8e24-40b6-9256-9582aab848be"}}]}