{"resourceType":"Bundle","id":"tests-e982ec87-76b0-4fe2-b437-ac0503cf2159-bundle","type":"transaction","entry":[{"resource":{"resourceType":"Location","id":"f2fa8a33-03c1-459a-82ef-5bd1fdcd9343","meta":{"profile":["http://hl7.org/fhir/us/qicore/StructureDefinition/qicore-location"]},"identifier":[{"use":"usual","system":"http://exampleoflocation.com","value":"B1-S.F2"}],"name":"Medical Surgical East, first floor","type":[{"coding":[{"system":"https://www.cdc.gov/nhsn/cdaportal/terminology/codesystem/hsloc.html","version":"2022","code":"1108-0","display":"Emergency Department","userSelected":true}]}]},"request":{"method":"PUT","url":"Location/f2fa8a33-03c1-459a-82ef-5bd1fdcd9343"}},{"resource":{"resourceType":"Coverage","id":"8159f907-7fc2-4c3a-adbc-de5a284735ec","meta":{"profile":["http://hl7.org/fhir/us/qicore/StructureDefinition/qicore-coverage"]},"identifier":[{"type":{"coding":[{"system":"http://terminology.hl7.org/CodeSystem/v2-0203","code":"MB"}]}}],"status":"active","beneficiary":{"reference":"Patient/e982ec87-76b0-4fe2-b437-ac0503cf2159"},"relationship":{"coding":[{"system":"http://terminology.hl7.org/CodeSystem/subscriber-relationship","code":"self"}]},"payor":[{"reference":"Organization/18540a59-6323-4bb5-a8f6-da919a9021b6"}]},"request":{"method":"PUT","url":"Coverage/8159f907-7fc2-4c3a-adbc-de5a284735ec"}},{"resource":{"resourceType":"MeasureReport","id":"c7d2e126-fa94-4dfa-9b72-d00e74f34614","meta":{"profile":["http://hl7.org/fhir/us/cqfmeasures/StructureDefinition/test-case-cqfm"]},"contained":[{"resourceType":"Parameters","id":"9c07d633-1843-46fd-af75-89a2003e1510-parameters","parameter":[{"name":"subject","valueString":"e982ec87-76b0-4fe2-b437-ac0503cf2159"}]}],"extension":[{"url":"http://hl7.org/fhir/StructureDefinition/cqf-inputParameters","valueReference":{"reference":"#9c07d633-1843-46fd-af75-89a2003e1510-parameters"}},{"url":"http://hl7.org/fhir/us/cqfmeasures/StructureDefinition/cqfm-testCaseDescription","valueMarkdown":"Enc 1st minute of 1st day of MP; diabetic ulcer, no mental illness, admitted inpatient"}],"modifierExtension":[{"url":"http://hl7.org/fhir/us/cqfmeasures/StructureDefinition/cqfm-isTestCase","valueBoolean":true}],"status":"complete","type":"individual","measure":"https://madie.cms.gov/Measure/CMS1244FHIRECATHOQR","period":{"start":"2027-01-01","end":"2027-12-31"},"group":[{"id":"Group_1","population":[{"id":"InitialPopulation_1","code":{"coding":[{"system":"http://terminology.hl7.org/CodeSystem/measure-population","code":"initial-population","display":"Initial Population"}]},"count":1},{"id":"Denominator_1","code":{"coding":[{"system":"http://terminology.hl7.org/CodeSystem/measure-population","code":"denominator","display":"Denominator"}]},"count":1},{"id":"Numerator_1","code":{"coding":[{"system":"http://terminology.hl7.org/CodeSystem/measure-population","code":"numerator","display":"Numerator"}]},"count":1}],"measureScore":{"value":0.0},"stratifier":[{"id":"Stratification_1_1","code":[{"text":"Strata-1"}],"stratum":[{"value":{"text":"Strata-1"},"population":[{"id":"InitialPopulation_1","code":{"coding":[{"system":"http://terminology.hl7.org/CodeSystem/measure-population","code":"initial-population","display":"Initial Population"}]},"count":1},{"id":"Denominator_1","code":{"coding":[{"system":"http://terminology.hl7.org/CodeSystem/measure-population","code":"denominator","display":"Denominator"}]},"count":1},{"id":"Numerator_1","code":{"coding":[{"system":"http://terminology.hl7.org/CodeSystem/measure-population","code":"numerator","display":"Numerator"}]},"count":1}]}]},{"id":"Stratification_1_2","code":[{"text":"Strata-2"}],"stratum":[{"value":{"text":"Strata-2"},"population":[{"id":"InitialPopulation_1","code":{"coding":[{"system":"http://terminology.hl7.org/CodeSystem/measure-population","code":"initial-population","display":"Initial Population"}]},"count":0},{"id":"Denominator_1","code":{"coding":[{"system":"http://terminology.hl7.org/CodeSystem/measure-population","code":"denominator","display":"Denominator"}]},"count":0},{"id":"Numerator_1","code":{"coding":[{"system":"http://terminology.hl7.org/CodeSystem/measure-population","code":"numerator","display":"Numerator"}]},"count":0}]}]},{"id":"Stratification_1_3","code":[{"text":"Strata-3"}],"stratum":[{"value":{"text":"Strata-3"},"population":[{"id":"InitialPopulation_1","code":{"coding":[{"system":"http://terminology.hl7.org/CodeSystem/measure-population","code":"initial-population","display":"Initial Population"}]},"count":0},{"id":"Denominator_1","code":{"coding":[{"system":"http://terminology.hl7.org/CodeSystem/measure-population","code":"denominator","display":"Denominator"}]},"count":0},{"id":"Numerator_1","code":{"coding":[{"system":"http://terminology.hl7.org/CodeSystem/measure-population","code":"numerator","display":"Numerator"}]},"count":0}]}]},{"id":"Stratification_1_4","code":[{"text":"Strata-4"}],"stratum":[{"value":{"text":"Strata-4"},"population":[{"id":"InitialPopulation_1","code":{"coding":[{"system":"http://terminology.hl7.org/CodeSystem/measure-population","code":"initial-population","display":"Initial Population"}]},"count":0},{"id":"Denominator_1","code":{"coding":[{"system":"http://terminology.hl7.org/CodeSystem/measure-population","code":"denominator","display":"Denominator"}]},"count":0},{"id":"Numerator_1","code":{"coding":[{"system":"http://terminology.hl7.org/CodeSystem/measure-population","code":"numerator","display":"Numerator"}]},"count":0}]}]}]}],"evaluatedResource":[{"reference":"Patient/e982ec87-76b0-4fe2-b437-ac0503cf2159"},{"reference":"Encounter/24e2013f-63c5-42ec-a360-834d9c654522"},{"reference":"Condition/6ac4bca9-1e35-43ad-8e11-1eb3c929ad0f"},{"reference":"ServiceRequest/349c328c-8664-410f-919b-1a852f6994a8"},{"reference":"Location/f2fa8a33-03c1-459a-82ef-5bd1fdcd9343"},{"reference":"Encounter/74dc1e48-897c-43ac-8bf0-7c9dba5f1f13"},{"reference":"Claim/ClaimBehavior-NotSubsAbuse"},{"reference":"Coverage/8159f907-7fc2-4c3a-adbc-de5a284735ec"},{"reference":"Organization/18540a59-6323-4bb5-a8f6-da919a9021b6"},{"reference":"Practitioner/98a74101-556f-4deb-b8d4-d73e00dd29ed"}]},"request":{"method":"PUT","url":"MeasureReport/c7d2e126-fa94-4dfa-9b72-d00e74f34614"}},{"resource":{"resourceType":"Encounter","id":"74dc1e48-897c-43ac-8bf0-7c9dba5f1f13","meta":{"profile":["http://hl7.org/fhir/us/qicore/StructureDefinition/qicore-encounter"]},"status":"finished","class":{"system":"http://terminology.hl7.org/CodeSystem/v3-ActCode","code":"IMP","display":"inpatient"},"type":[{"coding":[{"system":"http://snomed.info/sct","version":"2023-09","code":"183452005","display":"Emergency hospital admission (procedure)","userSelected":true}]}],"subject":{"reference":"Patient/e982ec87-76b0-4fe2-b437-ac0503cf2159"},"period":{"start":"2027-05-01T05:00:00.000+00:00","end":"2027-05-04T07:15:00.000+00:00"}},"request":{"method":"PUT","url":"Encounter/74dc1e48-897c-43ac-8bf0-7c9dba5f1f13"}},{"resource":{"resourceType":"Patient","id":"e982ec87-76b0-4fe2-b437-ac0503cf2159","meta":{"profile":["http://hl7.org/fhir/us/qicore/StructureDefinition/qicore-patient"]},"extension":[{"url":"http://hl7.org/fhir/us/core/StructureDefinition/us-core-race","extension":[{"url":"ombCategory","valueCoding":{"system":"urn:oid:2.16.840.1.113883.6.238","code":"1002-5","display":"American Indian or Alaska Native","userSelected":true}},{"url":"text","valueString":"American Indian or Alaska Native"}]},{"url":"http://hl7.org/fhir/us/core/StructureDefinition/us-core-ethnicity","extension":[{"url":"ombCategory","valueCoding":{"system":"urn:oid:2.16.840.1.113883.6.238","code":"2135-2","display":"Hispanic or Latino","userSelected":true}},{"url":"text","valueString":"Hispanic or Latino"}]},{"url":"http://hl7.org/fhir/us/core/StructureDefinition/us-core-sex","valueCode":"248153007"}],"identifier":[{"type":{"coding":[{"system":"http://terminology.hl7.org/CodeSystem/v2-0203","code":"MR"}]},"system":"https://bonnie-fhir.healthit.gov/","value":"6627b12aa014f18eaf21b2c4"}],"name":[{"family":"NUMERStrat1Pass","given":["BedAssigned"]}],"gender":"male","birthDate":"2010-01-01"},"request":{"method":"PUT","url":"Patient/e982ec87-76b0-4fe2-b437-ac0503cf2159"}},{"resource":{"resourceType":"Practitioner","id":"98a74101-556f-4deb-b8d4-d73e00dd29ed","meta":{"profile":["http://hl7.org/fhir/us/qicore/StructureDefinition/qicore-practitioner"]},"identifier":[{"system":"http://hl7.org/fhir/sid/us-npi","value":"9999999896"}],"name":[{"family":"Evil","prefix":["Dr"]}]},"request":{"method":"PUT","url":"Practitioner/98a74101-556f-4deb-b8d4-d73e00dd29ed"}},{"resource":{"resourceType":"Bundle","id":"6627b12aa014f18eaf21b2c4","type":"transaction","entry":[{"fullUrl":"https://madie.cms.gov/Patient/e982ec87-76b0-4fe2-b437-ac0503cf2159","resource":{"resourceType":"Patient","id":"e982ec87-76b0-4fe2-b437-ac0503cf2159","meta":{"profile":["http://hl7.org/fhir/us/qicore/StructureDefinition/qicore-patient"]},"extension":[{"url":"http://hl7.org/fhir/us/core/StructureDefinition/us-core-race","extension":[{"url":"ombCategory","valueCoding":{"system":"urn:oid:2.16.840.1.113883.6.238","code":"1002-5","display":"American Indian or Alaska Native","userSelected":true}},{"url":"text","valueString":"American Indian or Alaska Native"}]},{"url":"http://hl7.org/fhir/us/core/StructureDefinition/us-core-ethnicity","extension":[{"url":"ombCategory","valueCoding":{"system":"urn:oid:2.16.840.1.113883.6.238","code":"2135-2","display":"Hispanic or Latino","userSelected":true}},{"url":"text","valueString":"Hispanic or Latino"}]},{"url":"http://hl7.org/fhir/us/core/StructureDefinition/us-core-sex","valueCode":"248153007"}],"identifier":[{"type":{"coding":[{"system":"http://terminology.hl7.org/CodeSystem/v2-0203","code":"MR"}]},"system":"https://bonnie-fhir.healthit.gov/","value":"6627b12aa014f18eaf21b2c4"}],"name":[{"family":"NUMERStrat1Pass","given":["BedAssigned"]}],"gender":"male","birthDate":"2010-01-01"},"request":{"method":"PUT","url":"Patient/e982ec87-76b0-4fe2-b437-ac0503cf2159"}},{"fullUrl":"https://madie.cms.gov/Encounter/24e2013f-63c5-42ec-a360-834d9c654522","resource":{"resourceType":"Encounter","id":"24e2013f-63c5-42ec-a360-834d9c654522","meta":{"profile":["http://hl7.org/fhir/us/qicore/StructureDefinition/qicore-encounter"]},"status":"finished","class":{"system":"http://terminology.hl7.org/CodeSystem/v3-ActCode","code":"AMB","display":"ambulatory"},"type":[{"coding":[{"system":"http://snomed.info/sct","version":"2023-09","code":"4525004","display":"Emergency department patient visit (procedure)","userSelected":true}]}],"subject":{"reference":"Patient/e982ec87-76b0-4fe2-b437-ac0503cf2159"},"period":{"start":"2027-05-01T01:00:00.000+00:00","end":"2027-05-01T06:01:00.000+00:00"},"diagnosis":[{"condition":{"reference":"Condition/6ac4bca9-1e35-43ad-8e11-1eb3c929ad0f"},"use":{"coding":[{"system":"http://terminology.hl7.org/CodeSystem/diagnosis-role","code":"billing"}]},"rank":1}],"location":[{"location":{"reference":"Location/f2fa8a33-03c1-459a-82ef-5bd1fdcd9343"},"period":{"start":"2027-05-01T01:00:00.000+00:00","end":"2027-05-01T06:01:00.000+00:00"}}]},"request":{"method":"PUT","url":"Encounter/24e2013f-63c5-42ec-a360-834d9c654522"}},{"fullUrl":"https://madie.cms.gov/Condition/6ac4bca9-1e35-43ad-8e11-1eb3c929ad0f","resource":{"resourceType":"Condition","id":"6ac4bca9-1e35-43ad-8e11-1eb3c929ad0f","meta":{"profile":["http://hl7.org/fhir/us/qicore/StructureDefinition/qicore-condition-encounter-diagnosis"]},"category":[{"coding":[{"system":"http://terminology.hl7.org/CodeSystem/condition-category","code":"encounter-diagnosis","display":"Encounter Diagnosis"}]}],"code":{"coding":[{"system":"http://snomed.info/sct","version":"2023-09","code":"10660471000119109","display":"Ulcer of left foot due to type 2 diabetes mellitus (disorder)","userSelected":true}]},"subject":{"reference":"Patient/e982ec87-76b0-4fe2-b437-ac0503cf2159"},"recordedDate":"2027-05-01T08:00:00.000+00:00"},"request":{"method":"PUT","url":"Condition/6ac4bca9-1e35-43ad-8e11-1eb3c929ad0f"}},{"fullUrl":"https://madie.cms.gov/ServiceRequest/349c328c-8664-410f-919b-1a852f6994a8","resource":{"resourceType":"ServiceRequest","id":"349c328c-8664-410f-919b-1a852f6994a8","meta":{"profile":["http://hl7.org/fhir/us/qicore/StructureDefinition/qicore-servicerequest"]},"status":"active","intent":"order","code":{"coding":[{"system":"http://snomed.info/sct","code":"5751000175101","display":"Patient bed assigned (finding)","userSelected":true}]},"subject":{"reference":"Patient/e982ec87-76b0-4fe2-b437-ac0503cf2159"},"authoredOn":"2027-05-01T02:00:00.000+00:00"},"request":{"method":"PUT","url":"ServiceRequest/349c328c-8664-410f-919b-1a852f6994a8"}},{"fullUrl":"https://madie.cms.gov/Location/f2fa8a33-03c1-459a-82ef-5bd1fdcd9343","resource":{"resourceType":"Location","id":"f2fa8a33-03c1-459a-82ef-5bd1fdcd9343","meta":{"profile":["http://hl7.org/fhir/us/qicore/StructureDefinition/qicore-location"]},"identifier":[{"use":"usual","system":"http://exampleoflocation.com","value":"B1-S.F2"}],"name":"Medical Surgical East, first floor","type":[{"coding":[{"system":"https://www.cdc.gov/nhsn/cdaportal/terminology/codesystem/hsloc.html","version":"2022","code":"1108-0","display":"Emergency Department","userSelected":true}]}]},"request":{"method":"PUT","url":"Location/f2fa8a33-03c1-459a-82ef-5bd1fdcd9343"}},{"fullUrl":"https://madie.cms.gov/Encounter/74dc1e48-897c-43ac-8bf0-7c9dba5f1f13","resource":{"resourceType":"Encounter","id":"74dc1e48-897c-43ac-8bf0-7c9dba5f1f13","meta":{"profile":["http://hl7.org/fhir/us/qicore/StructureDefinition/qicore-encounter"]},"status":"finished","class":{"system":"http://terminology.hl7.org/CodeSystem/v3-ActCode","code":"IMP","display":"inpatient"},"type":[{"coding":[{"system":"http://snomed.info/sct","version":"2023-09","code":"183452005","display":"Emergency hospital admission (procedure)","userSelected":true}]}],"subject":{"reference":"Patient/e982ec87-76b0-4fe2-b437-ac0503cf2159"},"period":{"start":"2027-05-01T05:00:00.000+00:00","end":"2027-05-04T07:15:00.000+00:00"}},"request":{"method":"PUT","url":"Encounter/74dc1e48-897c-43ac-8bf0-7c9dba5f1f13"}},{"fullUrl":"https://madie.cms.gov/claim/ClaimBehavior-NotSubsAbuse","resource":{"resourceType":"Claim","id":"ClaimBehavior-NotSubsAbuse","meta":{"profile":["http://hl7.org/fhir/us/qicore/StructureDefinition/qicore-claim"]},"status":"active","type":{"coding":[{"system":"http://terminology.hl7.org/CodeSystem/claim-type","code":"institutional"}]},"use":"claim","patient":{"reference":"Patient/e982ec87-76b0-4fe2-b437-ac0503cf2159"},"created":"2027-05-01","provider":{"reference":"Practitioner/98a74101-556f-4deb-b8d4-d73e00dd29ed"},"priority":{"coding":[{"system":"http://terminology.hl7.org/CodeSystem/processpriority","code":"normal"}]},"diagnosis":[{"sequence":1,"diagnosisReference":{"reference":"Condition/6ac4bca9-1e35-43ad-8e11-1eb3c929ad0f"},"type":[{"coding":[{"system":"http://terminology.hl7.org/CodeSystem/ex-diagnosistype","code":"principal"}]}]}],"insurance":[{"sequence":1,"focal":true,"coverage":{"reference":"Coverage/8159f907-7fc2-4c3a-adbc-de5a284735ec"}}],"item":[{"sequence":1,"diagnosisSequence":[1],"productOrService":{"coding":[{"system":"http://terminology.hl7.org/CodeSystem/ex-USCLS","code":"99555"}]},"encounter":[{"reference":"Encounter/24e2013f-63c5-42ec-a360-834d9c654522"}]}]},"request":{"method":"PUT","url":"Claim/ClaimBehavior-NotSubsAbuse"}},{"fullUrl":"https://madie.cms.gov/Coverage/8159f907-7fc2-4c3a-adbc-de5a284735ec","resource":{"resourceType":"Coverage","id":"8159f907-7fc2-4c3a-adbc-de5a284735ec","meta":{"profile":["http://hl7.org/fhir/us/qicore/StructureDefinition/qicore-coverage"]},"identifier":[{"type":{"coding":[{"system":"http://terminology.hl7.org/CodeSystem/v2-0203","code":"MB"}]}}],"status":"active","beneficiary":{"reference":"Patient/e982ec87-76b0-4fe2-b437-ac0503cf2159"},"relationship":{"coding":[{"system":"http://terminology.hl7.org/CodeSystem/subscriber-relationship","code":"self"}]},"payor":[{"reference":"Organization/18540a59-6323-4bb5-a8f6-da919a9021b6"}]},"request":{"method":"PUT","url":"Coverage/8159f907-7fc2-4c3a-adbc-de5a284735ec"}},{"fullUrl":"https://madie.cms.gov/Organization/18540a59-6323-4bb5-a8f6-da919a9021b6","resource":{"resourceType":"Organization","id":"18540a59-6323-4bb5-a8f6-da919a9021b6","meta":{"profile":["http://hl7.org/fhir/us/qicore/StructureDefinition/qicore-organization"]},"identifier":[{"use":"temp","system":"urn:oid:2.16.840.1.113883.4.4","value":"21-3259825"}],"active":true,"type":[{"coding":[{"system":"http://terminology.hl7.org/CodeSystem/organization-type","code":"pay","display":"Payer"}]}],"name":"Blue Cross Blue Shield of Texas","telecom":[{"system":"phone","value":"(+1) 972-766-6900"}],"address":[{"use":"billing","type":"postal","line":["P.O. Box 660044"],"city":"Dallas","state":"TX","postalCode":"75266-0044","country":"USA"}]},"request":{"method":"PUT","url":"Organization/18540a59-6323-4bb5-a8f6-da919a9021b6"}},{"fullUrl":"https://madie.cms.gov/Practitioner/98a74101-556f-4deb-b8d4-d73e00dd29ed","resource":{"resourceType":"Practitioner","id":"98a74101-556f-4deb-b8d4-d73e00dd29ed","meta":{"profile":["http://hl7.org/fhir/us/qicore/StructureDefinition/qicore-practitioner"]},"identifier":[{"system":"http://hl7.org/fhir/sid/us-npi","value":"9999999896"}],"name":[{"family":"Evil","prefix":["Dr"]}]},"request":{"method":"PUT","url":"Practitioner/98a74101-556f-4deb-b8d4-d73e00dd29ed"}},{"fullUrl":"https://madie.cms.gov/MeasureReport/c7d2e126-fa94-4dfa-9b72-d00e74f34614","resource":{"resourceType":"MeasureReport","id":"c7d2e126-fa94-4dfa-9b72-d00e74f34614","meta":{"profile":["http://hl7.org/fhir/us/cqfmeasures/StructureDefinition/test-case-cqfm"]},"contained":[{"resourceType":"Parameters","id":"9c07d633-1843-46fd-af75-89a2003e1510-parameters","parameter":[{"name":"subject","valueString":"e982ec87-76b0-4fe2-b437-ac0503cf2159"}]}],"extension":[{"url":"http://hl7.org/fhir/StructureDefinition/cqf-inputParameters","valueReference":{"reference":"#9c07d633-1843-46fd-af75-89a2003e1510-parameters"}},{"url":"http://hl7.org/fhir/us/cqfmeasures/StructureDefinition/cqfm-testCaseDescription","valueMarkdown":"Enc 1st minute of 1st day of MP; diabetic ulcer, no mental illness, admitted inpatient"}],"modifierExtension":[{"url":"http://hl7.org/fhir/us/cqfmeasures/StructureDefinition/cqfm-isTestCase","valueBoolean":true}],"status":"complete","type":"individual","measure":"https://madie.cms.gov/Measure/CMS1244FHIRECATHOQR","period":{"start":"2027-01-01","end":"2027-12-31"},"group":[{"id":"Group_1","population":[{"id":"InitialPopulation_1","code":{"coding":[{"system":"http://terminology.hl7.org/CodeSystem/measure-population","code":"initial-population","display":"Initial Population"}]},"count":1},{"id":"Denominator_1","code":{"coding":[{"system":"http://terminology.hl7.org/CodeSystem/measure-population","code":"denominator","display":"Denominator"}]},"count":1},{"id":"Numerator_1","code":{"coding":[{"system":"http://terminology.hl7.org/CodeSystem/measure-population","code":"numerator","display":"Numerator"}]},"count":1}],"measureScore":{"value":0.0},"stratifier":[{"id":"Stratification_1_1","code":[{"text":"Strata-1"}],"stratum":[{"value":{"text":"Strata-1"},"population":[{"id":"InitialPopulation_1","code":{"coding":[{"system":"http://terminology.hl7.org/CodeSystem/measure-population","code":"initial-population","display":"Initial Population"}]},"count":1},{"id":"Denominator_1","code":{"coding":[{"system":"http://terminology.hl7.org/CodeSystem/measure-population","code":"denominator","display":"Denominator"}]},"count":1},{"id":"Numerator_1","code":{"coding":[{"system":"http://terminology.hl7.org/CodeSystem/measure-population","code":"numerator","display":"Numerator"}]},"count":1}]}]},{"id":"Stratification_1_2","code":[{"text":"Strata-2"}],"stratum":[{"value":{"text":"Strata-2"},"population":[{"id":"InitialPopulation_1","code":{"coding":[{"system":"http://terminology.hl7.org/CodeSystem/measure-population","code":"initial-population","display":"Initial Population"}]},"count":0},{"id":"Denominator_1","code":{"coding":[{"system":"http://terminology.hl7.org/CodeSystem/measure-population","code":"denominator","display":"Denominator"}]},"count":0},{"id":"Numerator_1","code":{"coding":[{"system":"http://terminology.hl7.org/CodeSystem/measure-population","code":"numerator","display":"Numerator"}]},"count":0}]}]},{"id":"Stratification_1_3","code":[{"text":"Strata-3"}],"stratum":[{"value":{"text":"Strata-3"},"population":[{"id":"InitialPopulation_1","code":{"coding":[{"system":"http://terminology.hl7.org/CodeSystem/measure-population","code":"initial-population","display":"Initial Population"}]},"count":0},{"id":"Denominator_1","code":{"coding":[{"system":"http://terminology.hl7.org/CodeSystem/measure-population","code":"denominator","display":"Denominator"}]},"count":0},{"id":"Numerator_1","code":{"coding":[{"system":"http://terminology.hl7.org/CodeSystem/measure-population","code":"numerator","display":"Numerator"}]},"count":0}]}]},{"id":"Stratification_1_4","code":[{"text":"Strata-4"}],"stratum":[{"value":{"text":"Strata-4"},"population":[{"id":"InitialPopulation_1","code":{"coding":[{"system":"http://terminology.hl7.org/CodeSystem/measure-population","code":"initial-population","display":"Initial Population"}]},"count":0},{"id":"Denominator_1","code":{"coding":[{"system":"http://terminology.hl7.org/CodeSystem/measure-population","code":"denominator","display":"Denominator"}]},"count":0},{"id":"Numerator_1","code":{"coding":[{"system":"http://terminology.hl7.org/CodeSystem/measure-population","code":"numerator","display":"Numerator"}]},"count":0}]}]}]}],"evaluatedResource":[{"reference":"Patient/e982ec87-76b0-4fe2-b437-ac0503cf2159"},{"reference":"Encounter/24e2013f-63c5-42ec-a360-834d9c654522"},{"reference":"Condition/6ac4bca9-1e35-43ad-8e11-1eb3c929ad0f"},{"reference":"ServiceRequest/349c328c-8664-410f-919b-1a852f6994a8"},{"reference":"Location/f2fa8a33-03c1-459a-82ef-5bd1fdcd9343"},{"reference":"Encounter/74dc1e48-897c-43ac-8bf0-7c9dba5f1f13"},{"reference":"Claim/ClaimBehavior-NotSubsAbuse"},{"reference":"Coverage/8159f907-7fc2-4c3a-adbc-de5a284735ec"},{"reference":"Organization/18540a59-6323-4bb5-a8f6-da919a9021b6"},{"reference":"Practitioner/98a74101-556f-4deb-b8d4-d73e00dd29ed"}]},"request":{"method":"PUT","url":"MeasureReport/c7d2e126-fa94-4dfa-9b72-d00e74f34614"}}]},"request":{"method":"PUT","url":"Bundle/6627b12aa014f18eaf21b2c4"}},{"resource":{"resourceType":"Condition","id":"6ac4bca9-1e35-43ad-8e11-1eb3c929ad0f","meta":{"profile":["http://hl7.org/fhir/us/qicore/StructureDefinition/qicore-condition-encounter-diagnosis"]},"category":[{"coding":[{"system":"http://terminology.hl7.org/CodeSystem/condition-category","code":"encounter-diagnosis","display":"Encounter Diagnosis"}]}],"code":{"coding":[{"system":"http://snomed.info/sct","version":"2023-09","code":"10660471000119109","display":"Ulcer of left foot due to type 2 diabetes mellitus (disorder)","userSelected":true}]},"subject":{"reference":"Patient/e982ec87-76b0-4fe2-b437-ac0503cf2159"},"recordedDate":"2027-05-01T08:00:00.000+00:00"},"request":{"method":"PUT","url":"Condition/6ac4bca9-1e35-43ad-8e11-1eb3c929ad0f"}},{"resource":{"resourceType":"Encounter","id":"24e2013f-63c5-42ec-a360-834d9c654522","meta":{"profile":["http://hl7.org/fhir/us/qicore/StructureDefinition/qicore-encounter"]},"status":"finished","class":{"system":"http://terminology.hl7.org/CodeSystem/v3-ActCode","code":"AMB","display":"ambulatory"},"type":[{"coding":[{"system":"http://snomed.info/sct","version":"2023-09","code":"4525004","display":"Emergency department patient visit (procedure)","userSelected":true}]}],"subject":{"reference":"Patient/e982ec87-76b0-4fe2-b437-ac0503cf2159"},"period":{"start":"2027-05-01T01:00:00.000+00:00","end":"2027-05-01T06:01:00.000+00:00"},"diagnosis":[{"condition":{"reference":"Condition/6ac4bca9-1e35-43ad-8e11-1eb3c929ad0f"},"use":{"coding":[{"system":"http://terminology.hl7.org/CodeSystem/diagnosis-role","code":"billing"}]},"rank":1}],"location":[{"location":{"reference":"Location/f2fa8a33-03c1-459a-82ef-5bd1fdcd9343"},"period":{"start":"2027-05-01T01:00:00.000+00:00","end":"2027-05-01T06:01:00.000+00:00"}}]},"request":{"method":"PUT","url":"Encounter/24e2013f-63c5-42ec-a360-834d9c654522"}},{"resource":{"resourceType":"Organization","id":"18540a59-6323-4bb5-a8f6-da919a9021b6","meta":{"profile":["http://hl7.org/fhir/us/qicore/StructureDefinition/qicore-organization"]},"identifier":[{"use":"temp","system":"urn:oid:2.16.840.1.113883.4.4","value":"21-3259825"}],"active":true,"type":[{"coding":[{"system":"http://terminology.hl7.org/CodeSystem/organization-type","code":"pay","display":"Payer"}]}],"name":"Blue Cross Blue Shield of Texas","telecom":[{"system":"phone","value":"(+1) 972-766-6900"}],"address":[{"use":"billing","type":"postal","line":["P.O. Box 660044"],"city":"Dallas","state":"TX","postalCode":"75266-0044","country":"USA"}]},"request":{"method":"PUT","url":"Organization/18540a59-6323-4bb5-a8f6-da919a9021b6"}},{"resource":{"resourceType":"Claim","id":"ClaimBehavior-NotSubsAbuse","meta":{"profile":["http://hl7.org/fhir/us/qicore/StructureDefinition/qicore-claim"]},"status":"active","type":{"coding":[{"system":"http://terminology.hl7.org/CodeSystem/claim-type","code":"institutional"}]},"use":"claim","patient":{"reference":"Patient/e982ec87-76b0-4fe2-b437-ac0503cf2159"},"created":"2027-05-01","provider":{"reference":"Practitioner/98a74101-556f-4deb-b8d4-d73e00dd29ed"},"priority":{"coding":[{"system":"http://terminology.hl7.org/CodeSystem/processpriority","code":"normal"}]},"diagnosis":[{"sequence":1,"diagnosisReference":{"reference":"Condition/6ac4bca9-1e35-43ad-8e11-1eb3c929ad0f"},"type":[{"coding":[{"system":"http://terminology.hl7.org/CodeSystem/ex-diagnosistype","code":"principal"}]}]}],"insurance":[{"sequence":1,"focal":true,"coverage":{"reference":"Coverage/8159f907-7fc2-4c3a-adbc-de5a284735ec"}}],"item":[{"sequence":1,"diagnosisSequence":[1],"productOrService":{"coding":[{"system":"http://terminology.hl7.org/CodeSystem/ex-USCLS","code":"99555"}]},"encounter":[{"reference":"Encounter/24e2013f-63c5-42ec-a360-834d9c654522"}]}]},"request":{"method":"PUT","url":"Claim/ClaimBehavior-NotSubsAbuse"}},{"resource":{"resourceType":"ServiceRequest","id":"349c328c-8664-410f-919b-1a852f6994a8","meta":{"profile":["http://hl7.org/fhir/us/qicore/StructureDefinition/qicore-servicerequest"]},"status":"active","intent":"order","code":{"coding":[{"system":"http://snomed.info/sct","code":"5751000175101","display":"Patient bed assigned (finding)","userSelected":true}]},"subject":{"reference":"Patient/e982ec87-76b0-4fe2-b437-ac0503cf2159"},"authoredOn":"2027-05-01T02:00:00.000+00:00"},"request":{"method":"PUT","url":"ServiceRequest/349c328c-8664-410f-919b-1a852f6994a8"}}]}