{"resourceType":"Bundle","id":"tests-d5fe6f9c-6036-4004-9993-290f3a2be34a-bundle","type":"transaction","entry":[{"resource":{"resourceType":"Coverage","id":"48bc1b4f-4979-44cf-8a20-83059fd50df1","meta":{"profile":["http://hl7.org/fhir/us/qicore/StructureDefinition/qicore-coverage"]},"identifier":[{"type":{"coding":[{"system":"http://terminology.hl7.org/CodeSystem/v2-0203","code":"MB"}]}}],"status":"active","beneficiary":{"reference":"Patient/d5fe6f9c-6036-4004-9993-290f3a2be34a"},"relationship":{"coding":[{"system":"http://terminology.hl7.org/CodeSystem/subscriber-relationship","code":"self"}]},"payor":[{"reference":"Organization/6df6ce01-93b2-4300-9627-3b4fd331b6c2"}]},"request":{"method":"PUT","url":"Coverage/48bc1b4f-4979-44cf-8a20-83059fd50df1"}},{"resource":{"resourceType":"Condition","id":"5b9835af-99b1-46d4-86db-df8b60d7b708","meta":{"profile":["http://hl7.org/fhir/us/qicore/StructureDefinition/qicore-condition-encounter-diagnosis"]},"category":[{"coding":[{"system":"http://terminology.hl7.org/CodeSystem/condition-category","code":"encounter-diagnosis","display":"Encounter Diagnosis"}]}],"code":{"coding":[{"system":"http://snomed.info/sct","version":"2023-09","code":"10660471000119109","display":"Ulcer of left foot due to type 2 diabetes mellitus (disorder)","userSelected":true}]},"subject":{"reference":"Patient/d5fe6f9c-6036-4004-9993-290f3a2be34a"},"recordedDate":"2027-05-01T08:00:00.000+00:00"},"request":{"method":"PUT","url":"Condition/5b9835af-99b1-46d4-86db-df8b60d7b708"}},{"resource":{"resourceType":"Encounter","id":"37bc225a-7748-4dfc-adfd-007bc96765a1","meta":{"profile":["http://hl7.org/fhir/us/qicore/StructureDefinition/qicore-encounter"]},"status":"finished","class":{"system":"http://terminology.hl7.org/CodeSystem/v3-ActCode","code":"EMER","display":"emergency"},"type":[{"coding":[{"system":"http://snomed.info/sct","version":"2023-09","code":"4525004","display":"Emergency department patient visit (procedure)","userSelected":true}]}],"subject":{"reference":"Patient/d5fe6f9c-6036-4004-9993-290f3a2be34a"},"period":{"start":"2027-05-01T08:00:00.000+00:00","end":"2027-05-01T12:15:00.000+00:00"},"location":[{"location":{"reference":"Location/29db2e5a-a501-4dfe-99ff-90fbe0f51850"},"period":{"start":"2027-05-01T07:45:00.000+00:00","end":"2027-05-01T12:15:00.000+00:00"}},{"location":{"reference":"Location/b23aedd1-c599-4c67-ae21-bdfcedfe0473"},"period":{"start":"2027-05-01T08:46:00.000+00:00","end":"2027-05-01T12:15:00.000+00:00"}}]},"request":{"method":"PUT","url":"Encounter/37bc225a-7748-4dfc-adfd-007bc96765a1"}},{"resource":{"resourceType":"Organization","id":"6df6ce01-93b2-4300-9627-3b4fd331b6c2","meta":{"profile":["http://hl7.org/fhir/us/qicore/StructureDefinition/qicore-organization"]},"identifier":[{"use":"temp","system":"urn:oid:2.16.840.1.113883.4.4","value":"21-3259825"}],"active":true,"type":[{"coding":[{"system":"http://terminology.hl7.org/CodeSystem/organization-type","code":"pay","display":"Payer"}]}],"name":"Blue Cross Blue Shield of Texas","telecom":[{"system":"phone","value":"(+1) 972-766-6900"}],"address":[{"use":"billing","type":"postal","line":["P.O. Box 660044"],"city":"Dallas","state":"TX","postalCode":"75266-0044","country":"USA"}]},"request":{"method":"PUT","url":"Organization/6df6ce01-93b2-4300-9627-3b4fd331b6c2"}},{"resource":{"resourceType":"Location","id":"b23aedd1-c599-4c67-ae21-bdfcedfe0473","meta":{"profile":["http://hl7.org/fhir/us/qicore/StructureDefinition/qicore-location"]},"identifier":[{"use":"usual","system":"http://exampleoflocation.com","value":"B1-S.F2"}],"name":"Medical Surgical East, first floor","type":[{"coding":[{"system":"https://www.cdc.gov/nhsn/cdaportal/terminology/codesystem/hsloc.html","version":"2022","code":"1209-6","display":"Treatment Room","userSelected":true}]}]},"request":{"method":"PUT","url":"Location/b23aedd1-c599-4c67-ae21-bdfcedfe0473"}},{"resource":{"resourceType":"Patient","id":"d5fe6f9c-6036-4004-9993-290f3a2be34a","meta":{"profile":["http://hl7.org/fhir/us/qicore/StructureDefinition/qicore-patient"]},"extension":[{"url":"http://hl7.org/fhir/us/core/StructureDefinition/us-core-race","extension":[{"url":"ombCategory","valueCoding":{"system":"urn:oid:2.16.840.1.113883.6.238","code":"2076-8","display":"Native Hawaiian or Other Pacific Islander","userSelected":true}},{"url":"text","valueString":"Native Hawaiian or Other Pacific Islander"}]},{"url":"http://hl7.org/fhir/us/core/StructureDefinition/us-core-ethnicity","extension":[{"url":"ombCategory","valueCoding":{"system":"urn:oid:2.16.840.1.113883.6.238","code":"2186-5","display":"Not Hispanic or Latino","userSelected":true}},{"url":"text","valueString":"Not Hispanic or Latino"}]}],"identifier":[{"type":{"coding":[{"system":"http://terminology.hl7.org/CodeSystem/v2-0203","code":"MR"}]},"system":"https://bonnie-fhir.healthit.gov/","value":"661579e3db207d74c03b8a55"}],"name":[{"family":"NUMERStrat1Fail","given":["TimeToTx61Min"]}],"gender":"other","birthDate":"2010-12-31"},"request":{"method":"PUT","url":"Patient/d5fe6f9c-6036-4004-9993-290f3a2be34a"}},{"resource":{"resourceType":"Location","id":"29db2e5a-a501-4dfe-99ff-90fbe0f51850","meta":{"profile":["http://hl7.org/fhir/us/qicore/StructureDefinition/qicore-location"]},"identifier":[{"use":"usual","system":"http://exampleoflocation.com","value":"B1-S.F1"}],"name":"Medical Surgical East, first floor","type":[{"coding":[{"system":"https://www.cdc.gov/nhsn/cdaportal/terminology/codesystem/hsloc.html","version":"2022","code":"1108-0","display":"Emergency Department","userSelected":true}]}]},"request":{"method":"PUT","url":"Location/29db2e5a-a501-4dfe-99ff-90fbe0f51850"}},{"resource":{"resourceType":"Location","id":"e59e401d-4767-4f2d-8434-2c8ec5f8ca3c","meta":{"profile":["http://hl7.org/fhir/us/qicore/StructureDefinition/qicore-location"]},"identifier":[{"use":"usual","system":"http://exampleoflocation.com","value":"B1-S.F2"}],"name":"Medical Surgical East, first floor","type":[{"coding":[{"system":"https://www.cdc.gov/nhsn/cdaportal/terminology/codesystem/hsloc.html","version":"2022","code":"1108-0","display":"Emergency Department","userSelected":true}]}]},"request":{"method":"PUT","url":"Location/e59e401d-4767-4f2d-8434-2c8ec5f8ca3c"}},{"resource":{"resourceType":"Location","id":"d57d0cf8-41d2-4b12-abc6-aa77f9d35c91","meta":{"profile":["http://hl7.org/fhir/us/qicore/StructureDefinition/qicore-location"]},"identifier":[{"use":"usual","system":"http://exampleoflocation.com","value":"B1-S.F2"}],"name":"Medical Surgical East, first floor","type":[{"coding":[{"system":"https://www.cdc.gov/nhsn/cdaportal/terminology/codesystem/hsloc.html","version":"2022","code":"1108-0","display":"Emergency Department","userSelected":true}]}]},"request":{"method":"PUT","url":"Location/d57d0cf8-41d2-4b12-abc6-aa77f9d35c91"}},{"resource":{"resourceType":"Claim","id":"ClaimBehavior-NotSubsAbuse","meta":{"profile":["http://hl7.org/fhir/us/qicore/StructureDefinition/qicore-claim"]},"status":"active","type":{"coding":[{"system":"http://terminology.hl7.org/CodeSystem/claim-type","code":"institutional"}]},"use":"claim","patient":{"reference":"Patient/d5fe6f9c-6036-4004-9993-290f3a2be34a"},"created":"2027-05-01","provider":{"reference":"Practitioner/6df87f76-aab6-4ee6-8668-7e122c509f7b"},"priority":{"coding":[{"system":"http://terminology.hl7.org/CodeSystem/processpriority","code":"normal"}]},"diagnosis":[{"sequence":1,"diagnosisReference":{"reference":"Condition/5b9835af-99b1-46d4-86db-df8b60d7b708"},"type":[{"coding":[{"system":"http://terminology.hl7.org/CodeSystem/ex-diagnosistype","code":"principal"}]}]}],"insurance":[{"sequence":1,"focal":true,"coverage":{"reference":"Coverage/48bc1b4f-4979-44cf-8a20-83059fd50df1"}}],"item":[{"sequence":1,"diagnosisSequence":[1],"productOrService":{"coding":[{"system":"http://terminology.hl7.org/CodeSystem/ex-USCLS","code":"99555"}]},"encounter":[{"reference":"Encounter/37bc225a-7748-4dfc-adfd-007bc96765a1"}]}]},"request":{"method":"PUT","url":"Claim/ClaimBehavior-NotSubsAbuse"}},{"resource":{"resourceType":"Practitioner","id":"6df87f76-aab6-4ee6-8668-7e122c509f7b","meta":{"profile":["http://hl7.org/fhir/us/qicore/StructureDefinition/qicore-practitioner"]},"identifier":[{"system":"http://hl7.org/fhir/sid/us-npi","value":"9999999896"}],"name":[{"family":"Evil","prefix":["Dr"]}]},"request":{"method":"PUT","url":"Practitioner/6df87f76-aab6-4ee6-8668-7e122c509f7b"}},{"resource":{"resourceType":"Bundle","id":"661579e3db207d74c03b8a55","type":"transaction","entry":[{"fullUrl":"https://madie.cms.gov/Patient/d5fe6f9c-6036-4004-9993-290f3a2be34a","resource":{"resourceType":"Patient","id":"d5fe6f9c-6036-4004-9993-290f3a2be34a","meta":{"profile":["http://hl7.org/fhir/us/qicore/StructureDefinition/qicore-patient"]},"extension":[{"url":"http://hl7.org/fhir/us/core/StructureDefinition/us-core-race","extension":[{"url":"ombCategory","valueCoding":{"system":"urn:oid:2.16.840.1.113883.6.238","code":"2076-8","display":"Native Hawaiian or Other Pacific Islander","userSelected":true}},{"url":"text","valueString":"Native Hawaiian or Other Pacific Islander"}]},{"url":"http://hl7.org/fhir/us/core/StructureDefinition/us-core-ethnicity","extension":[{"url":"ombCategory","valueCoding":{"system":"urn:oid:2.16.840.1.113883.6.238","code":"2186-5","display":"Not Hispanic or Latino","userSelected":true}},{"url":"text","valueString":"Not Hispanic or Latino"}]}],"identifier":[{"type":{"coding":[{"system":"http://terminology.hl7.org/CodeSystem/v2-0203","code":"MR"}]},"system":"https://bonnie-fhir.healthit.gov/","value":"661579e3db207d74c03b8a55"}],"name":[{"family":"NUMERStrat1Fail","given":["TimeToTx61Min"]}],"gender":"other","birthDate":"2010-12-31"},"request":{"method":"PUT","url":"Patient/d5fe6f9c-6036-4004-9993-290f3a2be34a"}},{"fullUrl":"https://madie.cms.gov/Encounter/37bc225a-7748-4dfc-adfd-007bc96765a1","resource":{"resourceType":"Encounter","id":"37bc225a-7748-4dfc-adfd-007bc96765a1","meta":{"profile":["http://hl7.org/fhir/us/qicore/StructureDefinition/qicore-encounter"]},"status":"finished","class":{"system":"http://terminology.hl7.org/CodeSystem/v3-ActCode","code":"EMER","display":"emergency"},"type":[{"coding":[{"system":"http://snomed.info/sct","version":"2023-09","code":"4525004","display":"Emergency department patient visit (procedure)","userSelected":true}]}],"subject":{"reference":"Patient/d5fe6f9c-6036-4004-9993-290f3a2be34a"},"period":{"start":"2027-05-01T08:00:00.000+00:00","end":"2027-05-01T12:15:00.000+00:00"},"location":[{"location":{"reference":"Location/29db2e5a-a501-4dfe-99ff-90fbe0f51850"},"period":{"start":"2027-05-01T07:45:00.000+00:00","end":"2027-05-01T12:15:00.000+00:00"}},{"location":{"reference":"Location/b23aedd1-c599-4c67-ae21-bdfcedfe0473"},"period":{"start":"2027-05-01T08:46:00.000+00:00","end":"2027-05-01T12:15:00.000+00:00"}}]},"request":{"method":"PUT","url":"Encounter/37bc225a-7748-4dfc-adfd-007bc96765a1"}},{"fullUrl":"https://madie.cms.gov/Location/29db2e5a-a501-4dfe-99ff-90fbe0f51850","resource":{"resourceType":"Location","id":"29db2e5a-a501-4dfe-99ff-90fbe0f51850","meta":{"profile":["http://hl7.org/fhir/us/qicore/StructureDefinition/qicore-location"]},"identifier":[{"use":"usual","system":"http://exampleoflocation.com","value":"B1-S.F1"}],"name":"Medical Surgical East, first floor","type":[{"coding":[{"system":"https://www.cdc.gov/nhsn/cdaportal/terminology/codesystem/hsloc.html","version":"2022","code":"1108-0","display":"Emergency Department","userSelected":true}]}]},"request":{"method":"PUT","url":"Location/29db2e5a-a501-4dfe-99ff-90fbe0f51850"}},{"fullUrl":"https://madie.cms.gov/Location/b23aedd1-c599-4c67-ae21-bdfcedfe0473","resource":{"resourceType":"Location","id":"b23aedd1-c599-4c67-ae21-bdfcedfe0473","meta":{"profile":["http://hl7.org/fhir/us/qicore/StructureDefinition/qicore-location"]},"identifier":[{"use":"usual","system":"http://exampleoflocation.com","value":"B1-S.F2"}],"name":"Medical Surgical East, first floor","type":[{"coding":[{"system":"https://www.cdc.gov/nhsn/cdaportal/terminology/codesystem/hsloc.html","version":"2022","code":"1209-6","display":"Treatment Room","userSelected":true}]}]},"request":{"method":"PUT","url":"Location/b23aedd1-c599-4c67-ae21-bdfcedfe0473"}},{"fullUrl":"https://madie.cms.gov/Condition/5b9835af-99b1-46d4-86db-df8b60d7b708","resource":{"resourceType":"Condition","id":"5b9835af-99b1-46d4-86db-df8b60d7b708","meta":{"profile":["http://hl7.org/fhir/us/qicore/StructureDefinition/qicore-condition-encounter-diagnosis"]},"category":[{"coding":[{"system":"http://terminology.hl7.org/CodeSystem/condition-category","code":"encounter-diagnosis","display":"Encounter Diagnosis"}]}],"code":{"coding":[{"system":"http://snomed.info/sct","version":"2023-09","code":"10660471000119109","display":"Ulcer of left foot due to type 2 diabetes mellitus (disorder)","userSelected":true}]},"subject":{"reference":"Patient/d5fe6f9c-6036-4004-9993-290f3a2be34a"},"recordedDate":"2027-05-01T08:00:00.000+00:00"},"request":{"method":"PUT","url":"Condition/5b9835af-99b1-46d4-86db-df8b60d7b708"}},{"fullUrl":"https://madie.cms.gov/Location/d57d0cf8-41d2-4b12-abc6-aa77f9d35c91","resource":{"resourceType":"Location","id":"d57d0cf8-41d2-4b12-abc6-aa77f9d35c91","meta":{"profile":["http://hl7.org/fhir/us/qicore/StructureDefinition/qicore-location"]},"identifier":[{"use":"usual","system":"http://exampleoflocation.com","value":"B1-S.F2"}],"name":"Medical Surgical East, first floor","type":[{"coding":[{"system":"https://www.cdc.gov/nhsn/cdaportal/terminology/codesystem/hsloc.html","version":"2022","code":"1108-0","display":"Emergency Department","userSelected":true}]}]},"request":{"method":"PUT","url":"Location/d57d0cf8-41d2-4b12-abc6-aa77f9d35c91"}},{"fullUrl":"https://madie.cms.gov/Location/e59e401d-4767-4f2d-8434-2c8ec5f8ca3c","resource":{"resourceType":"Location","id":"e59e401d-4767-4f2d-8434-2c8ec5f8ca3c","meta":{"profile":["http://hl7.org/fhir/us/qicore/StructureDefinition/qicore-location"]},"identifier":[{"use":"usual","system":"http://exampleoflocation.com","value":"B1-S.F2"}],"name":"Medical Surgical East, first floor","type":[{"coding":[{"system":"https://www.cdc.gov/nhsn/cdaportal/terminology/codesystem/hsloc.html","version":"2022","code":"1108-0","display":"Emergency Department","userSelected":true}]}]},"request":{"method":"PUT","url":"Location/e59e401d-4767-4f2d-8434-2c8ec5f8ca3c"}},{"fullUrl":"https://madie.cms.gov/claim/ClaimBehavior-NotSubsAbuse","resource":{"resourceType":"Claim","id":"ClaimBehavior-NotSubsAbuse","meta":{"profile":["http://hl7.org/fhir/us/qicore/StructureDefinition/qicore-claim"]},"status":"active","type":{"coding":[{"system":"http://terminology.hl7.org/CodeSystem/claim-type","code":"institutional"}]},"use":"claim","patient":{"reference":"Patient/d5fe6f9c-6036-4004-9993-290f3a2be34a"},"created":"2027-05-01","provider":{"reference":"Practitioner/6df87f76-aab6-4ee6-8668-7e122c509f7b"},"priority":{"coding":[{"system":"http://terminology.hl7.org/CodeSystem/processpriority","code":"normal"}]},"diagnosis":[{"sequence":1,"diagnosisReference":{"reference":"Condition/5b9835af-99b1-46d4-86db-df8b60d7b708"},"type":[{"coding":[{"system":"http://terminology.hl7.org/CodeSystem/ex-diagnosistype","code":"principal"}]}]}],"insurance":[{"sequence":1,"focal":true,"coverage":{"reference":"Coverage/48bc1b4f-4979-44cf-8a20-83059fd50df1"}}],"item":[{"sequence":1,"diagnosisSequence":[1],"productOrService":{"coding":[{"system":"http://terminology.hl7.org/CodeSystem/ex-USCLS","code":"99555"}]},"encounter":[{"reference":"Encounter/37bc225a-7748-4dfc-adfd-007bc96765a1"}]}]},"request":{"method":"PUT","url":"Claim/ClaimBehavior-NotSubsAbuse"}},{"fullUrl":"https://madie.cms.gov/Coverage/48bc1b4f-4979-44cf-8a20-83059fd50df1","resource":{"resourceType":"Coverage","id":"48bc1b4f-4979-44cf-8a20-83059fd50df1","meta":{"profile":["http://hl7.org/fhir/us/qicore/StructureDefinition/qicore-coverage"]},"identifier":[{"type":{"coding":[{"system":"http://terminology.hl7.org/CodeSystem/v2-0203","code":"MB"}]}}],"status":"active","beneficiary":{"reference":"Patient/d5fe6f9c-6036-4004-9993-290f3a2be34a"},"relationship":{"coding":[{"system":"http://terminology.hl7.org/CodeSystem/subscriber-relationship","code":"self"}]},"payor":[{"reference":"Organization/6df6ce01-93b2-4300-9627-3b4fd331b6c2"}]},"request":{"method":"PUT","url":"Coverage/48bc1b4f-4979-44cf-8a20-83059fd50df1"}},{"fullUrl":"https://madie.cms.gov/Organization/6df6ce01-93b2-4300-9627-3b4fd331b6c2","resource":{"resourceType":"Organization","id":"6df6ce01-93b2-4300-9627-3b4fd331b6c2","meta":{"profile":["http://hl7.org/fhir/us/qicore/StructureDefinition/qicore-organization"]},"identifier":[{"use":"temp","system":"urn:oid:2.16.840.1.113883.4.4","value":"21-3259825"}],"active":true,"type":[{"coding":[{"system":"http://terminology.hl7.org/CodeSystem/organization-type","code":"pay","display":"Payer"}]}],"name":"Blue Cross Blue Shield of Texas","telecom":[{"system":"phone","value":"(+1) 972-766-6900"}],"address":[{"use":"billing","type":"postal","line":["P.O. Box 660044"],"city":"Dallas","state":"TX","postalCode":"75266-0044","country":"USA"}]},"request":{"method":"PUT","url":"Organization/6df6ce01-93b2-4300-9627-3b4fd331b6c2"}},{"fullUrl":"https://madie.cms.gov/Practitioner/6df87f76-aab6-4ee6-8668-7e122c509f7b","resource":{"resourceType":"Practitioner","id":"6df87f76-aab6-4ee6-8668-7e122c509f7b","meta":{"profile":["http://hl7.org/fhir/us/qicore/StructureDefinition/qicore-practitioner"]},"identifier":[{"system":"http://hl7.org/fhir/sid/us-npi","value":"9999999896"}],"name":[{"family":"Evil","prefix":["Dr"]}]},"request":{"method":"PUT","url":"Practitioner/6df87f76-aab6-4ee6-8668-7e122c509f7b"}},{"fullUrl":"https://madie.cms.gov/MeasureReport/8c5d77e6-9380-4814-bdc4-336507b58fd1","resource":{"resourceType":"MeasureReport","id":"8c5d77e6-9380-4814-bdc4-336507b58fd1","meta":{"profile":["http://hl7.org/fhir/us/cqfmeasures/StructureDefinition/test-case-cqfm"]},"contained":[{"resourceType":"Parameters","id":"c48c86e5-6a46-4ada-9408-8978d0ddb049-parameters","parameter":[{"name":"subject","valueString":"d5fe6f9c-6036-4004-9993-290f3a2be34a"}]}],"extension":[{"url":"http://hl7.org/fhir/StructureDefinition/cqf-inputParameters","valueReference":{"reference":"#c48c86e5-6a46-4ada-9408-8978d0ddb049-parameters"}},{"url":"http://hl7.org/fhir/us/cqfmeasures/StructureDefinition/cqfm-testCaseDescription","valueMarkdown":"\tChild, age 18, Encounter first day of MP, time to treatment 61 minutes, no mental illness, gender \"other\""}],"modifierExtension":[{"url":"http://hl7.org/fhir/us/cqfmeasures/StructureDefinition/cqfm-isTestCase","valueBoolean":true}],"status":"complete","type":"individual","measure":"https://madie.cms.gov/Measure/CMS1244FHIRECATHOQR","period":{"start":"2027-01-01","end":"2027-12-31"},"group":[{"id":"Group_1","population":[{"id":"InitialPopulation_1","code":{"coding":[{"system":"http://terminology.hl7.org/CodeSystem/measure-population","code":"initial-population","display":"Initial Population"}]},"count":1},{"id":"Denominator_1","code":{"coding":[{"system":"http://terminology.hl7.org/CodeSystem/measure-population","code":"denominator","display":"Denominator"}]},"count":1},{"id":"Numerator_1","code":{"coding":[{"system":"http://terminology.hl7.org/CodeSystem/measure-population","code":"numerator","display":"Numerator"}]},"count":1}],"measureScore":{"value":0.0},"stratifier":[{"id":"Stratification_1_1","code":[{"text":"Strata-1"}],"stratum":[{"value":{"text":"Strata-1"},"population":[{"id":"InitialPopulation_1","code":{"coding":[{"system":"http://terminology.hl7.org/CodeSystem/measure-population","code":"initial-population","display":"Initial Population"}]},"count":1},{"id":"Denominator_1","code":{"coding":[{"system":"http://terminology.hl7.org/CodeSystem/measure-population","code":"denominator","display":"Denominator"}]},"count":1},{"id":"Numerator_1","code":{"coding":[{"system":"http://terminology.hl7.org/CodeSystem/measure-population","code":"numerator","display":"Numerator"}]},"count":1}]}]},{"id":"Stratification_1_2","code":[{"text":"Strata-2"}],"stratum":[{"value":{"text":"Strata-2"},"population":[{"id":"InitialPopulation_1","code":{"coding":[{"system":"http://terminology.hl7.org/CodeSystem/measure-population","code":"initial-population","display":"Initial Population"}]},"count":0},{"id":"Denominator_1","code":{"coding":[{"system":"http://terminology.hl7.org/CodeSystem/measure-population","code":"denominator","display":"Denominator"}]},"count":0},{"id":"Numerator_1","code":{"coding":[{"system":"http://terminology.hl7.org/CodeSystem/measure-population","code":"numerator","display":"Numerator"}]},"count":0}]}]},{"id":"Stratification_1_3","code":[{"text":"Strata-3"}],"stratum":[{"value":{"text":"Strata-3"},"population":[{"id":"InitialPopulation_1","code":{"coding":[{"system":"http://terminology.hl7.org/CodeSystem/measure-population","code":"initial-population","display":"Initial Population"}]},"count":0},{"id":"Denominator_1","code":{"coding":[{"system":"http://terminology.hl7.org/CodeSystem/measure-population","code":"denominator","display":"Denominator"}]},"count":0},{"id":"Numerator_1","code":{"coding":[{"system":"http://terminology.hl7.org/CodeSystem/measure-population","code":"numerator","display":"Numerator"}]},"count":0}]}]},{"id":"Stratification_1_4","code":[{"text":"Strata-4"}],"stratum":[{"value":{"text":"Strata-4"},"population":[{"id":"InitialPopulation_1","code":{"coding":[{"system":"http://terminology.hl7.org/CodeSystem/measure-population","code":"initial-population","display":"Initial Population"}]},"count":0},{"id":"Denominator_1","code":{"coding":[{"system":"http://terminology.hl7.org/CodeSystem/measure-population","code":"denominator","display":"Denominator"}]},"count":0},{"id":"Numerator_1","code":{"coding":[{"system":"http://terminology.hl7.org/CodeSystem/measure-population","code":"numerator","display":"Numerator"}]},"count":0}]}]}]}],"evaluatedResource":[{"reference":"Patient/d5fe6f9c-6036-4004-9993-290f3a2be34a"},{"reference":"Encounter/37bc225a-7748-4dfc-adfd-007bc96765a1"},{"reference":"Location/29db2e5a-a501-4dfe-99ff-90fbe0f51850"},{"reference":"Location/b23aedd1-c599-4c67-ae21-bdfcedfe0473"},{"reference":"Condition/5b9835af-99b1-46d4-86db-df8b60d7b708"},{"reference":"Location/d57d0cf8-41d2-4b12-abc6-aa77f9d35c91"},{"reference":"Location/e59e401d-4767-4f2d-8434-2c8ec5f8ca3c"},{"reference":"Claim/ClaimBehavior-NotSubsAbuse"},{"reference":"Coverage/48bc1b4f-4979-44cf-8a20-83059fd50df1"},{"reference":"Organization/6df6ce01-93b2-4300-9627-3b4fd331b6c2"},{"reference":"Practitioner/6df87f76-aab6-4ee6-8668-7e122c509f7b"}]},"request":{"method":"PUT","url":"MeasureReport/8c5d77e6-9380-4814-bdc4-336507b58fd1"}}]},"request":{"method":"PUT","url":"Bundle/661579e3db207d74c03b8a55"}},{"resource":{"resourceType":"MeasureReport","id":"8c5d77e6-9380-4814-bdc4-336507b58fd1","meta":{"profile":["http://hl7.org/fhir/us/cqfmeasures/StructureDefinition/test-case-cqfm"]},"contained":[{"resourceType":"Parameters","id":"c48c86e5-6a46-4ada-9408-8978d0ddb049-parameters","parameter":[{"name":"subject","valueString":"d5fe6f9c-6036-4004-9993-290f3a2be34a"}]}],"extension":[{"url":"http://hl7.org/fhir/StructureDefinition/cqf-inputParameters","valueReference":{"reference":"#c48c86e5-6a46-4ada-9408-8978d0ddb049-parameters"}},{"url":"http://hl7.org/fhir/us/cqfmeasures/StructureDefinition/cqfm-testCaseDescription","valueMarkdown":"\tChild, age 18, Encounter first day of MP, time to treatment 61 minutes, no mental illness, gender \"other\""}],"modifierExtension":[{"url":"http://hl7.org/fhir/us/cqfmeasures/StructureDefinition/cqfm-isTestCase","valueBoolean":true}],"status":"complete","type":"individual","measure":"https://madie.cms.gov/Measure/CMS1244FHIRECATHOQR","period":{"start":"2027-01-01","end":"2027-12-31"},"group":[{"id":"Group_1","population":[{"id":"InitialPopulation_1","code":{"coding":[{"system":"http://terminology.hl7.org/CodeSystem/measure-population","code":"initial-population","display":"Initial Population"}]},"count":1},{"id":"Denominator_1","code":{"coding":[{"system":"http://terminology.hl7.org/CodeSystem/measure-population","code":"denominator","display":"Denominator"}]},"count":1},{"id":"Numerator_1","code":{"coding":[{"system":"http://terminology.hl7.org/CodeSystem/measure-population","code":"numerator","display":"Numerator"}]},"count":1}],"measureScore":{"value":0.0},"stratifier":[{"id":"Stratification_1_1","code":[{"text":"Strata-1"}],"stratum":[{"value":{"text":"Strata-1"},"population":[{"id":"InitialPopulation_1","code":{"coding":[{"system":"http://terminology.hl7.org/CodeSystem/measure-population","code":"initial-population","display":"Initial Population"}]},"count":1},{"id":"Denominator_1","code":{"coding":[{"system":"http://terminology.hl7.org/CodeSystem/measure-population","code":"denominator","display":"Denominator"}]},"count":1},{"id":"Numerator_1","code":{"coding":[{"system":"http://terminology.hl7.org/CodeSystem/measure-population","code":"numerator","display":"Numerator"}]},"count":1}]}]},{"id":"Stratification_1_2","code":[{"text":"Strata-2"}],"stratum":[{"value":{"text":"Strata-2"},"population":[{"id":"InitialPopulation_1","code":{"coding":[{"system":"http://terminology.hl7.org/CodeSystem/measure-population","code":"initial-population","display":"Initial Population"}]},"count":0},{"id":"Denominator_1","code":{"coding":[{"system":"http://terminology.hl7.org/CodeSystem/measure-population","code":"denominator","display":"Denominator"}]},"count":0},{"id":"Numerator_1","code":{"coding":[{"system":"http://terminology.hl7.org/CodeSystem/measure-population","code":"numerator","display":"Numerator"}]},"count":0}]}]},{"id":"Stratification_1_3","code":[{"text":"Strata-3"}],"stratum":[{"value":{"text":"Strata-3"},"population":[{"id":"InitialPopulation_1","code":{"coding":[{"system":"http://terminology.hl7.org/CodeSystem/measure-population","code":"initial-population","display":"Initial Population"}]},"count":0},{"id":"Denominator_1","code":{"coding":[{"system":"http://terminology.hl7.org/CodeSystem/measure-population","code":"denominator","display":"Denominator"}]},"count":0},{"id":"Numerator_1","code":{"coding":[{"system":"http://terminology.hl7.org/CodeSystem/measure-population","code":"numerator","display":"Numerator"}]},"count":0}]}]},{"id":"Stratification_1_4","code":[{"text":"Strata-4"}],"stratum":[{"value":{"text":"Strata-4"},"population":[{"id":"InitialPopulation_1","code":{"coding":[{"system":"http://terminology.hl7.org/CodeSystem/measure-population","code":"initial-population","display":"Initial Population"}]},"count":0},{"id":"Denominator_1","code":{"coding":[{"system":"http://terminology.hl7.org/CodeSystem/measure-population","code":"denominator","display":"Denominator"}]},"count":0},{"id":"Numerator_1","code":{"coding":[{"system":"http://terminology.hl7.org/CodeSystem/measure-population","code":"numerator","display":"Numerator"}]},"count":0}]}]}]}],"evaluatedResource":[{"reference":"Patient/d5fe6f9c-6036-4004-9993-290f3a2be34a"},{"reference":"Encounter/37bc225a-7748-4dfc-adfd-007bc96765a1"},{"reference":"Location/29db2e5a-a501-4dfe-99ff-90fbe0f51850"},{"reference":"Location/b23aedd1-c599-4c67-ae21-bdfcedfe0473"},{"reference":"Condition/5b9835af-99b1-46d4-86db-df8b60d7b708"},{"reference":"Location/d57d0cf8-41d2-4b12-abc6-aa77f9d35c91"},{"reference":"Location/e59e401d-4767-4f2d-8434-2c8ec5f8ca3c"},{"reference":"Claim/ClaimBehavior-NotSubsAbuse"},{"reference":"Coverage/48bc1b4f-4979-44cf-8a20-83059fd50df1"},{"reference":"Organization/6df6ce01-93b2-4300-9627-3b4fd331b6c2"},{"reference":"Practitioner/6df87f76-aab6-4ee6-8668-7e122c509f7b"}]},"request":{"method":"PUT","url":"MeasureReport/8c5d77e6-9380-4814-bdc4-336507b58fd1"}}]}