{"resourceType":"Bundle","id":"tests-30bd1c93-a76f-46ac-9c74-b4499428cf94-bundle","type":"transaction","entry":[{"resource":{"resourceType":"Coverage","id":"3ab5bf66-60e1-4eab-9212-43a7eb3d941d","meta":{"profile":["http://hl7.org/fhir/us/qicore/StructureDefinition/qicore-coverage"]},"identifier":[{"type":{"coding":[{"system":"http://terminology.hl7.org/CodeSystem/v2-0203","code":"MB"}]}}],"status":"active","beneficiary":{"reference":"Patient/30bd1c93-a76f-46ac-9c74-b4499428cf94"},"relationship":{"coding":[{"system":"http://terminology.hl7.org/CodeSystem/subscriber-relationship","code":"self"}]},"payor":[{"reference":"Organization/a4e09c16-1790-4cd6-a60c-e2a3f83e6ab7"}]},"request":{"method":"PUT","url":"Coverage/3ab5bf66-60e1-4eab-9212-43a7eb3d941d"}},{"resource":{"resourceType":"Organization","id":"a4e09c16-1790-4cd6-a60c-e2a3f83e6ab7","meta":{"profile":["http://hl7.org/fhir/us/qicore/StructureDefinition/qicore-organization"]},"identifier":[{"use":"temp","system":"urn:oid:2.16.840.1.113883.4.4","value":"21-3259825"}],"active":true,"type":[{"coding":[{"system":"http://terminology.hl7.org/CodeSystem/organization-type","code":"pay","display":"Payer"}]}],"name":"Blue Cross Blue Shield of Texas","telecom":[{"system":"phone","value":"(+1) 972-766-6900"}],"address":[{"use":"billing","type":"postal","line":["P.O. Box 660044"],"city":"Dallas","state":"TX","postalCode":"75266-0044","country":"USA"}]},"request":{"method":"PUT","url":"Organization/a4e09c16-1790-4cd6-a60c-e2a3f83e6ab7"}},{"resource":{"resourceType":"Bundle","id":"661579e3db207d74c03b8a51","type":"transaction","entry":[{"fullUrl":"https://madie.cms.gov/Patient/30bd1c93-a76f-46ac-9c74-b4499428cf94","resource":{"resourceType":"Patient","id":"30bd1c93-a76f-46ac-9c74-b4499428cf94","meta":{"profile":["http://hl7.org/fhir/us/qicore/StructureDefinition/qicore-patient"]},"extension":[{"url":"http://hl7.org/fhir/us/core/StructureDefinition/us-core-race","extension":[{"url":"ombCategory","valueCoding":{"system":"urn:oid:2.16.840.1.113883.6.238","code":"2076-8","display":"Native Hawaiian or Other Pacific Islander","userSelected":true}},{"url":"text","valueString":"Native Hawaiian or Other Pacific Islander"}]},{"url":"http://hl7.org/fhir/us/core/StructureDefinition/us-core-ethnicity","extension":[{"url":"ombCategory","valueCoding":{"system":"urn:oid:2.16.840.1.113883.6.238","code":"2186-5","display":"Not Hispanic or Latino","userSelected":true}},{"url":"text","valueString":"Not Hispanic or Latino"}]},{"url":"http://hl7.org/fhir/us/core/StructureDefinition/us-core-sex","valueCode":"248152002"}],"identifier":[{"type":{"coding":[{"system":"http://terminology.hl7.org/CodeSystem/v2-0203","code":"MR"}]},"system":"https://bonnie-fhir.healthit.gov/","value":"661579e3db207d74c03b8a51"}],"name":[{"family":"NUMERStrat4Pass","given":["TriageOverlapBeforeEM"]}],"gender":"female","birthDate":"2008-12-31"},"request":{"method":"PUT","url":"Patient/30bd1c93-a76f-46ac-9c74-b4499428cf94"}},{"fullUrl":"https://madie.cms.gov/Encounter/c5624b5b-062c-40b0-83ae-87901c2ddaf5","resource":{"resourceType":"Encounter","id":"c5624b5b-062c-40b0-83ae-87901c2ddaf5","meta":{"profile":["http://hl7.org/fhir/us/qicore/StructureDefinition/qicore-encounter"]},"status":"triaged","class":{"system":"http://terminology.hl7.org/CodeSystem/v3-ActCode","code":"EMER","display":"emergency"},"type":[{"coding":[{"system":"http://snomed.info/sct","version":"2023-09","code":"225390008","display":"Triage (procedure)","userSelected":true}]}],"subject":{"reference":"Patient/30bd1c93-a76f-46ac-9c74-b4499428cf94"},"period":{"start":"2027-05-01T07:00:00.000+00:00","end":"2027-05-01T08:15:00.000+00:00"}},"request":{"method":"PUT","url":"Encounter/c5624b5b-062c-40b0-83ae-87901c2ddaf5"}},{"fullUrl":"https://madie.cms.gov/Encounter/e1149abf-99bb-412c-820c-59e552858719","resource":{"resourceType":"Encounter","id":"e1149abf-99bb-412c-820c-59e552858719","meta":{"profile":["http://hl7.org/fhir/us/qicore/StructureDefinition/qicore-encounter"]},"status":"finished","class":{"system":"http://terminology.hl7.org/CodeSystem/v3-ActCode","code":"EMER","display":"emergency"},"type":[{"coding":[{"system":"http://snomed.info/sct","version":"2023-09","code":"4525004","display":"Emergency department patient visit (procedure)","userSelected":true}]}],"subject":{"reference":"Patient/30bd1c93-a76f-46ac-9c74-b4499428cf94"},"period":{"start":"2027-05-01T08:00:00.000+00:00","end":"2027-05-01T12:15:00.000+00:00"},"diagnosis":[{"condition":{"reference":"Condition/883ad122-d0d3-4fcc-899b-572ed9fd4a66"},"use":{"coding":[{"system":"http://terminology.hl7.org/CodeSystem/diagnosis-role","code":"billing"}]},"rank":1}],"location":[{"location":{"reference":"Location/b8b0f132-9d28-475f-86cf-62b380a3d86e"},"period":{"start":"2027-05-01T07:45:00.000+00:00","end":"2027-05-01T14:31:00.000+00:00"}},{"location":{"reference":"Location/a47e5e28-e085-4be6-95a2-91b5c9dc99a9"},"period":{"start":"2027-05-01T09:31:00.000+00:00","end":"2027-05-01T12:15:00.000+00:00"}},{"location":{"reference":"Location/4c3d8ccb-814b-4c72-802c-feeb4b7b1d44"},"period":{"start":"2027-05-01T08:40:00.000+00:00","end":"2027-05-01T12:15:00.000+00:00"}},{"location":{"reference":"Location/82ee4cd4-d974-40d7-b207-977806b913a9"},"period":{"start":"2027-05-01T08:30:00.000+00:00","end":"2027-05-01T16:46:00.000+00:00"}}]},"request":{"method":"PUT","url":"Encounter/e1149abf-99bb-412c-820c-59e552858719"}},{"fullUrl":"https://madie.cms.gov/Location/b8b0f132-9d28-475f-86cf-62b380a3d86e","resource":{"resourceType":"Location","id":"b8b0f132-9d28-475f-86cf-62b380a3d86e","meta":{"profile":["http://hl7.org/fhir/us/qicore/StructureDefinition/qicore-location"]},"identifier":[{"use":"usual","system":"http://exampleoflocation.com","value":"B1-S.F1"}],"name":"Medical Surgical East, first floor","type":[{"coding":[{"system":"https://www.cdc.gov/nhsn/cdaportal/terminology/codesystem/hsloc.html","version":"2022","code":"1108-0","display":"Emergency Department","userSelected":true}]}]},"request":{"method":"PUT","url":"Location/b8b0f132-9d28-475f-86cf-62b380a3d86e"}},{"fullUrl":"https://madie.cms.gov/Location/a47e5e28-e085-4be6-95a2-91b5c9dc99a9","resource":{"resourceType":"Location","id":"a47e5e28-e085-4be6-95a2-91b5c9dc99a9","meta":{"profile":["http://hl7.org/fhir/us/qicore/StructureDefinition/qicore-location"]},"identifier":[{"use":"usual","system":"http://exampleoflocation.com","value":"B1-S.F2"}],"name":"Medical Surgical East, first floor","type":[{"coding":[{"system":"https://www.cdc.gov/nhsn/cdaportal/terminology/codesystem/hsloc.html","version":"2022","code":"1209-6","display":"Treatment Room","userSelected":true}]}]},"request":{"method":"PUT","url":"Location/a47e5e28-e085-4be6-95a2-91b5c9dc99a9"}},{"fullUrl":"https://madie.cms.gov/Condition/883ad122-d0d3-4fcc-899b-572ed9fd4a66","resource":{"resourceType":"Condition","id":"883ad122-d0d3-4fcc-899b-572ed9fd4a66","meta":{"profile":["http://hl7.org/fhir/us/qicore/StructureDefinition/qicore-condition-encounter-diagnosis"]},"category":[{"coding":[{"system":"http://terminology.hl7.org/CodeSystem/condition-category","code":"encounter-diagnosis","display":"Encounter Diagnosis"}]}],"code":{"coding":[{"system":"http://snomed.info/sct","version":"2023-09","code":"10349009","display":"Multi-infarct dementia with delirium (disorder)","userSelected":true}]},"subject":{"reference":"Patient/30bd1c93-a76f-46ac-9c74-b4499428cf94"},"recordedDate":"2027-04-09T08:00:00.000+00:00"},"request":{"method":"PUT","url":"Condition/883ad122-d0d3-4fcc-899b-572ed9fd4a66"}},{"fullUrl":"https://madie.cms.gov/Location/82ee4cd4-d974-40d7-b207-977806b913a9","resource":{"resourceType":"Location","id":"82ee4cd4-d974-40d7-b207-977806b913a9","meta":{"profile":["http://hl7.org/fhir/us/qicore/StructureDefinition/qicore-location"]},"identifier":[{"use":"usual","system":"http://exampleoflocation.com","value":"B1-S.F2"}],"name":"Medical Surgical East, first floor","type":[{"coding":[{"system":"https://www.cdc.gov/nhsn/cdaportal/terminology/codesystem/hsloc.html","version":"2022","code":"1108-0","display":"Emergency Department","userSelected":true}]}]},"request":{"method":"PUT","url":"Location/82ee4cd4-d974-40d7-b207-977806b913a9"}},{"fullUrl":"https://madie.cms.gov/Location/4c3d8ccb-814b-4c72-802c-feeb4b7b1d44","resource":{"resourceType":"Location","id":"4c3d8ccb-814b-4c72-802c-feeb4b7b1d44","meta":{"profile":["http://hl7.org/fhir/us/qicore/StructureDefinition/qicore-location"]},"identifier":[{"use":"usual","system":"http://exampleoflocation.com","value":"B1-S.F2"}],"name":"Medical Surgical East, first floor","type":[{"coding":[{"system":"https://www.cdc.gov/nhsn/cdaportal/terminology/codesystem/hsloc.html","version":"2022","code":"1209-6","display":"Treatment Room"}]}]},"request":{"method":"PUT","url":"Location/4c3d8ccb-814b-4c72-802c-feeb4b7b1d44"}},{"fullUrl":"https://madie.cms.gov/claim/ClaimBehavior-NotSubsAbuse","resource":{"resourceType":"Claim","id":"ClaimBehavior-NotSubsAbuse","meta":{"profile":["http://hl7.org/fhir/us/qicore/StructureDefinition/qicore-claim"]},"status":"active","type":{"coding":[{"system":"http://terminology.hl7.org/CodeSystem/claim-type","code":"institutional"}]},"use":"claim","patient":{"reference":"Patient/30bd1c93-a76f-46ac-9c74-b4499428cf94"},"created":"2027-05-01","provider":{"reference":"Practitioner/001c4419-510b-45d4-b99b-326aef64f3e4"},"priority":{"coding":[{"system":"http://terminology.hl7.org/CodeSystem/processpriority","code":"normal"}]},"diagnosis":[{"sequence":1,"diagnosisReference":{"reference":"Condition/883ad122-d0d3-4fcc-899b-572ed9fd4a66"},"type":[{"coding":[{"system":"http://terminology.hl7.org/CodeSystem/ex-diagnosistype","code":"principal"}]}]}],"insurance":[{"sequence":1,"focal":true,"coverage":{"reference":"Coverage/3ab5bf66-60e1-4eab-9212-43a7eb3d941d"}}],"item":[{"sequence":1,"diagnosisSequence":[1],"productOrService":{"coding":[{"system":"http://terminology.hl7.org/CodeSystem/ex-USCLS","code":"99555"}]},"encounter":[{"reference":"Encounter/e1149abf-99bb-412c-820c-59e552858719"}]}]},"request":{"method":"PUT","url":"Claim/ClaimBehavior-NotSubsAbuse"}},{"fullUrl":"https://madie.cms.gov/Coverage/3ab5bf66-60e1-4eab-9212-43a7eb3d941d","resource":{"resourceType":"Coverage","id":"3ab5bf66-60e1-4eab-9212-43a7eb3d941d","meta":{"profile":["http://hl7.org/fhir/us/qicore/StructureDefinition/qicore-coverage"]},"identifier":[{"type":{"coding":[{"system":"http://terminology.hl7.org/CodeSystem/v2-0203","code":"MB"}]}}],"status":"active","beneficiary":{"reference":"Patient/30bd1c93-a76f-46ac-9c74-b4499428cf94"},"relationship":{"coding":[{"system":"http://terminology.hl7.org/CodeSystem/subscriber-relationship","code":"self"}]},"payor":[{"reference":"Organization/a4e09c16-1790-4cd6-a60c-e2a3f83e6ab7"}]},"request":{"method":"PUT","url":"Coverage/3ab5bf66-60e1-4eab-9212-43a7eb3d941d"}},{"fullUrl":"https://madie.cms.gov/Organization/a4e09c16-1790-4cd6-a60c-e2a3f83e6ab7","resource":{"resourceType":"Organization","id":"a4e09c16-1790-4cd6-a60c-e2a3f83e6ab7","meta":{"profile":["http://hl7.org/fhir/us/qicore/StructureDefinition/qicore-organization"]},"identifier":[{"use":"temp","system":"urn:oid:2.16.840.1.113883.4.4","value":"21-3259825"}],"active":true,"type":[{"coding":[{"system":"http://terminology.hl7.org/CodeSystem/organization-type","code":"pay","display":"Payer"}]}],"name":"Blue Cross Blue Shield of Texas","telecom":[{"system":"phone","value":"(+1) 972-766-6900"}],"address":[{"use":"billing","type":"postal","line":["P.O. Box 660044"],"city":"Dallas","state":"TX","postalCode":"75266-0044","country":"USA"}]},"request":{"method":"PUT","url":"Organization/a4e09c16-1790-4cd6-a60c-e2a3f83e6ab7"}},{"fullUrl":"https://madie.cms.gov/Practitioner/001c4419-510b-45d4-b99b-326aef64f3e4","resource":{"resourceType":"Practitioner","id":"001c4419-510b-45d4-b99b-326aef64f3e4","meta":{"profile":["http://hl7.org/fhir/us/qicore/StructureDefinition/qicore-practitioner"]},"identifier":[{"system":"http://hl7.org/fhir/sid/us-npi","value":"9999999896"}],"name":[{"family":"Evil","prefix":["Dr"]}]},"request":{"method":"PUT","url":"Practitioner/001c4419-510b-45d4-b99b-326aef64f3e4"}},{"fullUrl":"https://madie.cms.gov/MeasureReport/1e557a88-a290-4441-bb36-f90abb0222f5","resource":{"resourceType":"MeasureReport","id":"1e557a88-a290-4441-bb36-f90abb0222f5","meta":{"profile":["http://hl7.org/fhir/us/cqfmeasures/StructureDefinition/test-case-cqfm"]},"contained":[{"resourceType":"Parameters","id":"4ac6a9d9-7e9d-4a1a-856a-fe322da51aed-parameters","parameter":[{"name":"subject","valueString":"30bd1c93-a76f-46ac-9c74-b4499428cf94"}]}],"extension":[{"url":"http://hl7.org/fhir/StructureDefinition/cqf-inputParameters","valueReference":{"reference":"#4ac6a9d9-7e9d-4a1a-856a-fe322da51aed-parameters"}},{"url":"http://hl7.org/fhir/us/cqfmeasures/StructureDefinition/cqfm-testCaseDescription","valueMarkdown":"Adult, mental diagnosis, LOS 8+ hours. Triage overlap EM start"}],"modifierExtension":[{"url":"http://hl7.org/fhir/us/cqfmeasures/StructureDefinition/cqfm-isTestCase","valueBoolean":true}],"status":"complete","type":"individual","measure":"https://madie.cms.gov/Measure/CMS1244FHIRECATHOQR","period":{"start":"2027-01-01","end":"2027-12-31"},"group":[{"id":"Group_1","population":[{"id":"InitialPopulation_1","code":{"coding":[{"system":"http://terminology.hl7.org/CodeSystem/measure-population","code":"initial-population","display":"Initial Population"}]},"count":1},{"id":"Denominator_1","code":{"coding":[{"system":"http://terminology.hl7.org/CodeSystem/measure-population","code":"denominator","display":"Denominator"}]},"count":1},{"id":"Numerator_1","code":{"coding":[{"system":"http://terminology.hl7.org/CodeSystem/measure-population","code":"numerator","display":"Numerator"}]},"count":1}],"measureScore":{"value":0.0},"stratifier":[{"id":"Stratification_1_1","code":[{"text":"Strata-1"}],"stratum":[{"value":{"text":"Strata-1"},"population":[{"id":"InitialPopulation_1","code":{"coding":[{"system":"http://terminology.hl7.org/CodeSystem/measure-population","code":"initial-population","display":"Initial Population"}]},"count":0},{"id":"Denominator_1","code":{"coding":[{"system":"http://terminology.hl7.org/CodeSystem/measure-population","code":"denominator","display":"Denominator"}]},"count":0},{"id":"Numerator_1","code":{"coding":[{"system":"http://terminology.hl7.org/CodeSystem/measure-population","code":"numerator","display":"Numerator"}]},"count":0}]}]},{"id":"Stratification_1_2","code":[{"text":"Strata-2"}],"stratum":[{"value":{"text":"Strata-2"},"population":[{"id":"InitialPopulation_1","code":{"coding":[{"system":"http://terminology.hl7.org/CodeSystem/measure-population","code":"initial-population","display":"Initial Population"}]},"count":0},{"id":"Denominator_1","code":{"coding":[{"system":"http://terminology.hl7.org/CodeSystem/measure-population","code":"denominator","display":"Denominator"}]},"count":0},{"id":"Numerator_1","code":{"coding":[{"system":"http://terminology.hl7.org/CodeSystem/measure-population","code":"numerator","display":"Numerator"}]},"count":0}]}]},{"id":"Stratification_1_3","code":[{"text":"Strata-3"}],"stratum":[{"value":{"text":"Strata-3"},"population":[{"id":"InitialPopulation_1","code":{"coding":[{"system":"http://terminology.hl7.org/CodeSystem/measure-population","code":"initial-population","display":"Initial Population"}]},"count":0},{"id":"Denominator_1","code":{"coding":[{"system":"http://terminology.hl7.org/CodeSystem/measure-population","code":"denominator","display":"Denominator"}]},"count":0},{"id":"Numerator_1","code":{"coding":[{"system":"http://terminology.hl7.org/CodeSystem/measure-population","code":"numerator","display":"Numerator"}]},"count":0}]}]},{"id":"Stratification_1_4","code":[{"text":"Strata-4"}],"stratum":[{"value":{"text":"Strata-4"},"population":[{"id":"InitialPopulation_1","code":{"coding":[{"system":"http://terminology.hl7.org/CodeSystem/measure-population","code":"initial-population","display":"Initial Population"}]},"count":1},{"id":"Denominator_1","code":{"coding":[{"system":"http://terminology.hl7.org/CodeSystem/measure-population","code":"denominator","display":"Denominator"}]},"count":1},{"id":"Numerator_1","code":{"coding":[{"system":"http://terminology.hl7.org/CodeSystem/measure-population","code":"numerator","display":"Numerator"}]},"count":1}]}]}]}],"evaluatedResource":[{"reference":"Patient/30bd1c93-a76f-46ac-9c74-b4499428cf94"},{"reference":"Encounter/c5624b5b-062c-40b0-83ae-87901c2ddaf5"},{"reference":"Encounter/e1149abf-99bb-412c-820c-59e552858719"},{"reference":"Location/b8b0f132-9d28-475f-86cf-62b380a3d86e"},{"reference":"Location/a47e5e28-e085-4be6-95a2-91b5c9dc99a9"},{"reference":"Condition/883ad122-d0d3-4fcc-899b-572ed9fd4a66"},{"reference":"Location/82ee4cd4-d974-40d7-b207-977806b913a9"},{"reference":"Location/4c3d8ccb-814b-4c72-802c-feeb4b7b1d44"},{"reference":"Claim/ClaimBehavior-NotSubsAbuse"},{"reference":"Coverage/3ab5bf66-60e1-4eab-9212-43a7eb3d941d"},{"reference":"Organization/a4e09c16-1790-4cd6-a60c-e2a3f83e6ab7"},{"reference":"Practitioner/001c4419-510b-45d4-b99b-326aef64f3e4"}]},"request":{"method":"PUT","url":"MeasureReport/1e557a88-a290-4441-bb36-f90abb0222f5"}}]},"request":{"method":"PUT","url":"Bundle/661579e3db207d74c03b8a51"}},{"resource":{"resourceType":"Location","id":"a47e5e28-e085-4be6-95a2-91b5c9dc99a9","meta":{"profile":["http://hl7.org/fhir/us/qicore/StructureDefinition/qicore-location"]},"identifier":[{"use":"usual","system":"http://exampleoflocation.com","value":"B1-S.F2"}],"name":"Medical Surgical East, first floor","type":[{"coding":[{"system":"https://www.cdc.gov/nhsn/cdaportal/terminology/codesystem/hsloc.html","version":"2022","code":"1209-6","display":"Treatment Room","userSelected":true}]}]},"request":{"method":"PUT","url":"Location/a47e5e28-e085-4be6-95a2-91b5c9dc99a9"}},{"resource":{"resourceType":"Location","id":"82ee4cd4-d974-40d7-b207-977806b913a9","meta":{"profile":["http://hl7.org/fhir/us/qicore/StructureDefinition/qicore-location"]},"identifier":[{"use":"usual","system":"http://exampleoflocation.com","value":"B1-S.F2"}],"name":"Medical Surgical East, first floor","type":[{"coding":[{"system":"https://www.cdc.gov/nhsn/cdaportal/terminology/codesystem/hsloc.html","version":"2022","code":"1108-0","display":"Emergency Department","userSelected":true}]}]},"request":{"method":"PUT","url":"Location/82ee4cd4-d974-40d7-b207-977806b913a9"}},{"resource":{"resourceType":"Encounter","id":"c5624b5b-062c-40b0-83ae-87901c2ddaf5","meta":{"profile":["http://hl7.org/fhir/us/qicore/StructureDefinition/qicore-encounter"]},"status":"triaged","class":{"system":"http://terminology.hl7.org/CodeSystem/v3-ActCode","code":"EMER","display":"emergency"},"type":[{"coding":[{"system":"http://snomed.info/sct","version":"2023-09","code":"225390008","display":"Triage (procedure)","userSelected":true}]}],"subject":{"reference":"Patient/30bd1c93-a76f-46ac-9c74-b4499428cf94"},"period":{"start":"2027-05-01T07:00:00.000+00:00","end":"2027-05-01T08:15:00.000+00:00"}},"request":{"method":"PUT","url":"Encounter/c5624b5b-062c-40b0-83ae-87901c2ddaf5"}},{"resource":{"resourceType":"Practitioner","id":"001c4419-510b-45d4-b99b-326aef64f3e4","meta":{"profile":["http://hl7.org/fhir/us/qicore/StructureDefinition/qicore-practitioner"]},"identifier":[{"system":"http://hl7.org/fhir/sid/us-npi","value":"9999999896"}],"name":[{"family":"Evil","prefix":["Dr"]}]},"request":{"method":"PUT","url":"Practitioner/001c4419-510b-45d4-b99b-326aef64f3e4"}},{"resource":{"resourceType":"Patient","id":"30bd1c93-a76f-46ac-9c74-b4499428cf94","meta":{"profile":["http://hl7.org/fhir/us/qicore/StructureDefinition/qicore-patient"]},"extension":[{"url":"http://hl7.org/fhir/us/core/StructureDefinition/us-core-race","extension":[{"url":"ombCategory","valueCoding":{"system":"urn:oid:2.16.840.1.113883.6.238","code":"2076-8","display":"Native Hawaiian or Other Pacific Islander","userSelected":true}},{"url":"text","valueString":"Native Hawaiian or Other Pacific Islander"}]},{"url":"http://hl7.org/fhir/us/core/StructureDefinition/us-core-ethnicity","extension":[{"url":"ombCategory","valueCoding":{"system":"urn:oid:2.16.840.1.113883.6.238","code":"2186-5","display":"Not Hispanic or Latino","userSelected":true}},{"url":"text","valueString":"Not Hispanic or Latino"}]},{"url":"http://hl7.org/fhir/us/core/StructureDefinition/us-core-sex","valueCode":"248152002"}],"identifier":[{"type":{"coding":[{"system":"http://terminology.hl7.org/CodeSystem/v2-0203","code":"MR"}]},"system":"https://bonnie-fhir.healthit.gov/","value":"661579e3db207d74c03b8a51"}],"name":[{"family":"NUMERStrat4Pass","given":["TriageOverlapBeforeEM"]}],"gender":"female","birthDate":"2008-12-31"},"request":{"method":"PUT","url":"Patient/30bd1c93-a76f-46ac-9c74-b4499428cf94"}},{"resource":{"resourceType":"MeasureReport","id":"1e557a88-a290-4441-bb36-f90abb0222f5","meta":{"profile":["http://hl7.org/fhir/us/cqfmeasures/StructureDefinition/test-case-cqfm"]},"contained":[{"resourceType":"Parameters","id":"4ac6a9d9-7e9d-4a1a-856a-fe322da51aed-parameters","parameter":[{"name":"subject","valueString":"30bd1c93-a76f-46ac-9c74-b4499428cf94"}]}],"extension":[{"url":"http://hl7.org/fhir/StructureDefinition/cqf-inputParameters","valueReference":{"reference":"#4ac6a9d9-7e9d-4a1a-856a-fe322da51aed-parameters"}},{"url":"http://hl7.org/fhir/us/cqfmeasures/StructureDefinition/cqfm-testCaseDescription","valueMarkdown":"Adult, mental diagnosis, LOS 8+ hours. Triage overlap EM start"}],"modifierExtension":[{"url":"http://hl7.org/fhir/us/cqfmeasures/StructureDefinition/cqfm-isTestCase","valueBoolean":true}],"status":"complete","type":"individual","measure":"https://madie.cms.gov/Measure/CMS1244FHIRECATHOQR","period":{"start":"2027-01-01","end":"2027-12-31"},"group":[{"id":"Group_1","population":[{"id":"InitialPopulation_1","code":{"coding":[{"system":"http://terminology.hl7.org/CodeSystem/measure-population","code":"initial-population","display":"Initial Population"}]},"count":1},{"id":"Denominator_1","code":{"coding":[{"system":"http://terminology.hl7.org/CodeSystem/measure-population","code":"denominator","display":"Denominator"}]},"count":1},{"id":"Numerator_1","code":{"coding":[{"system":"http://terminology.hl7.org/CodeSystem/measure-population","code":"numerator","display":"Numerator"}]},"count":1}],"measureScore":{"value":0.0},"stratifier":[{"id":"Stratification_1_1","code":[{"text":"Strata-1"}],"stratum":[{"value":{"text":"Strata-1"},"population":[{"id":"InitialPopulation_1","code":{"coding":[{"system":"http://terminology.hl7.org/CodeSystem/measure-population","code":"initial-population","display":"Initial Population"}]},"count":0},{"id":"Denominator_1","code":{"coding":[{"system":"http://terminology.hl7.org/CodeSystem/measure-population","code":"denominator","display":"Denominator"}]},"count":0},{"id":"Numerator_1","code":{"coding":[{"system":"http://terminology.hl7.org/CodeSystem/measure-population","code":"numerator","display":"Numerator"}]},"count":0}]}]},{"id":"Stratification_1_2","code":[{"text":"Strata-2"}],"stratum":[{"value":{"text":"Strata-2"},"population":[{"id":"InitialPopulation_1","code":{"coding":[{"system":"http://terminology.hl7.org/CodeSystem/measure-population","code":"initial-population","display":"Initial Population"}]},"count":0},{"id":"Denominator_1","code":{"coding":[{"system":"http://terminology.hl7.org/CodeSystem/measure-population","code":"denominator","display":"Denominator"}]},"count":0},{"id":"Numerator_1","code":{"coding":[{"system":"http://terminology.hl7.org/CodeSystem/measure-population","code":"numerator","display":"Numerator"}]},"count":0}]}]},{"id":"Stratification_1_3","code":[{"text":"Strata-3"}],"stratum":[{"value":{"text":"Strata-3"},"population":[{"id":"InitialPopulation_1","code":{"coding":[{"system":"http://terminology.hl7.org/CodeSystem/measure-population","code":"initial-population","display":"Initial Population"}]},"count":0},{"id":"Denominator_1","code":{"coding":[{"system":"http://terminology.hl7.org/CodeSystem/measure-population","code":"denominator","display":"Denominator"}]},"count":0},{"id":"Numerator_1","code":{"coding":[{"system":"http://terminology.hl7.org/CodeSystem/measure-population","code":"numerator","display":"Numerator"}]},"count":0}]}]},{"id":"Stratification_1_4","code":[{"text":"Strata-4"}],"stratum":[{"value":{"text":"Strata-4"},"population":[{"id":"InitialPopulation_1","code":{"coding":[{"system":"http://terminology.hl7.org/CodeSystem/measure-population","code":"initial-population","display":"Initial Population"}]},"count":1},{"id":"Denominator_1","code":{"coding":[{"system":"http://terminology.hl7.org/CodeSystem/measure-population","code":"denominator","display":"Denominator"}]},"count":1},{"id":"Numerator_1","code":{"coding":[{"system":"http://terminology.hl7.org/CodeSystem/measure-population","code":"numerator","display":"Numerator"}]},"count":1}]}]}]}],"evaluatedResource":[{"reference":"Patient/30bd1c93-a76f-46ac-9c74-b4499428cf94"},{"reference":"Encounter/c5624b5b-062c-40b0-83ae-87901c2ddaf5"},{"reference":"Encounter/e1149abf-99bb-412c-820c-59e552858719"},{"reference":"Location/b8b0f132-9d28-475f-86cf-62b380a3d86e"},{"reference":"Location/a47e5e28-e085-4be6-95a2-91b5c9dc99a9"},{"reference":"Condition/883ad122-d0d3-4fcc-899b-572ed9fd4a66"},{"reference":"Location/82ee4cd4-d974-40d7-b207-977806b913a9"},{"reference":"Location/4c3d8ccb-814b-4c72-802c-feeb4b7b1d44"},{"reference":"Claim/ClaimBehavior-NotSubsAbuse"},{"reference":"Coverage/3ab5bf66-60e1-4eab-9212-43a7eb3d941d"},{"reference":"Organization/a4e09c16-1790-4cd6-a60c-e2a3f83e6ab7"},{"reference":"Practitioner/001c4419-510b-45d4-b99b-326aef64f3e4"}]},"request":{"method":"PUT","url":"MeasureReport/1e557a88-a290-4441-bb36-f90abb0222f5"}},{"resource":{"resourceType":"Location","id":"b8b0f132-9d28-475f-86cf-62b380a3d86e","meta":{"profile":["http://hl7.org/fhir/us/qicore/StructureDefinition/qicore-location"]},"identifier":[{"use":"usual","system":"http://exampleoflocation.com","value":"B1-S.F1"}],"name":"Medical Surgical East, first floor","type":[{"coding":[{"system":"https://www.cdc.gov/nhsn/cdaportal/terminology/codesystem/hsloc.html","version":"2022","code":"1108-0","display":"Emergency Department","userSelected":true}]}]},"request":{"method":"PUT","url":"Location/b8b0f132-9d28-475f-86cf-62b380a3d86e"}},{"resource":{"resourceType":"Encounter","id":"e1149abf-99bb-412c-820c-59e552858719","meta":{"profile":["http://hl7.org/fhir/us/qicore/StructureDefinition/qicore-encounter"]},"status":"finished","class":{"system":"http://terminology.hl7.org/CodeSystem/v3-ActCode","code":"EMER","display":"emergency"},"type":[{"coding":[{"system":"http://snomed.info/sct","version":"2023-09","code":"4525004","display":"Emergency department patient visit (procedure)","userSelected":true}]}],"subject":{"reference":"Patient/30bd1c93-a76f-46ac-9c74-b4499428cf94"},"period":{"start":"2027-05-01T08:00:00.000+00:00","end":"2027-05-01T12:15:00.000+00:00"},"diagnosis":[{"condition":{"reference":"Condition/883ad122-d0d3-4fcc-899b-572ed9fd4a66"},"use":{"coding":[{"system":"http://terminology.hl7.org/CodeSystem/diagnosis-role","code":"billing"}]},"rank":1}],"location":[{"location":{"reference":"Location/b8b0f132-9d28-475f-86cf-62b380a3d86e"},"period":{"start":"2027-05-01T07:45:00.000+00:00","end":"2027-05-01T14:31:00.000+00:00"}},{"location":{"reference":"Location/a47e5e28-e085-4be6-95a2-91b5c9dc99a9"},"period":{"start":"2027-05-01T09:31:00.000+00:00","end":"2027-05-01T12:15:00.000+00:00"}},{"location":{"reference":"Location/4c3d8ccb-814b-4c72-802c-feeb4b7b1d44"},"period":{"start":"2027-05-01T08:40:00.000+00:00","end":"2027-05-01T12:15:00.000+00:00"}},{"location":{"reference":"Location/82ee4cd4-d974-40d7-b207-977806b913a9"},"period":{"start":"2027-05-01T08:30:00.000+00:00","end":"2027-05-01T16:46:00.000+00:00"}}]},"request":{"method":"PUT","url":"Encounter/e1149abf-99bb-412c-820c-59e552858719"}},{"resource":{"resourceType":"Claim","id":"ClaimBehavior-NotSubsAbuse","meta":{"profile":["http://hl7.org/fhir/us/qicore/StructureDefinition/qicore-claim"]},"status":"active","type":{"coding":[{"system":"http://terminology.hl7.org/CodeSystem/claim-type","code":"institutional"}]},"use":"claim","patient":{"reference":"Patient/30bd1c93-a76f-46ac-9c74-b4499428cf94"},"created":"2027-05-01","provider":{"reference":"Practitioner/001c4419-510b-45d4-b99b-326aef64f3e4"},"priority":{"coding":[{"system":"http://terminology.hl7.org/CodeSystem/processpriority","code":"normal"}]},"diagnosis":[{"sequence":1,"diagnosisReference":{"reference":"Condition/883ad122-d0d3-4fcc-899b-572ed9fd4a66"},"type":[{"coding":[{"system":"http://terminology.hl7.org/CodeSystem/ex-diagnosistype","code":"principal"}]}]}],"insurance":[{"sequence":1,"focal":true,"coverage":{"reference":"Coverage/3ab5bf66-60e1-4eab-9212-43a7eb3d941d"}}],"item":[{"sequence":1,"diagnosisSequence":[1],"productOrService":{"coding":[{"system":"http://terminology.hl7.org/CodeSystem/ex-USCLS","code":"99555"}]},"encounter":[{"reference":"Encounter/e1149abf-99bb-412c-820c-59e552858719"}]}]},"request":{"method":"PUT","url":"Claim/ClaimBehavior-NotSubsAbuse"}},{"resource":{"resourceType":"Condition","id":"883ad122-d0d3-4fcc-899b-572ed9fd4a66","meta":{"profile":["http://hl7.org/fhir/us/qicore/StructureDefinition/qicore-condition-encounter-diagnosis"]},"category":[{"coding":[{"system":"http://terminology.hl7.org/CodeSystem/condition-category","code":"encounter-diagnosis","display":"Encounter Diagnosis"}]}],"code":{"coding":[{"system":"http://snomed.info/sct","version":"2023-09","code":"10349009","display":"Multi-infarct dementia with delirium (disorder)","userSelected":true}]},"subject":{"reference":"Patient/30bd1c93-a76f-46ac-9c74-b4499428cf94"},"recordedDate":"2027-04-09T08:00:00.000+00:00"},"request":{"method":"PUT","url":"Condition/883ad122-d0d3-4fcc-899b-572ed9fd4a66"}},{"resource":{"resourceType":"Location","id":"4c3d8ccb-814b-4c72-802c-feeb4b7b1d44","meta":{"profile":["http://hl7.org/fhir/us/qicore/StructureDefinition/qicore-location"]},"identifier":[{"use":"usual","system":"http://exampleoflocation.com","value":"B1-S.F2"}],"name":"Medical Surgical East, first floor","type":[{"coding":[{"system":"https://www.cdc.gov/nhsn/cdaportal/terminology/codesystem/hsloc.html","version":"2022","code":"1209-6","display":"Treatment Room"}]}]},"request":{"method":"PUT","url":"Location/4c3d8ccb-814b-4c72-802c-feeb4b7b1d44"}}]}