{"resourceType":"Bundle","id":"tests-e37040f5-da02-49eb-98a8-60d5235f8e1f-bundle","type":"transaction","entry":[{"resource":{"resourceType":"Condition","id":"6c838bf3-55f1-4a3a-9920-8e300ee4f107","meta":{"profile":["http://hl7.org/fhir/us/qicore/StructureDefinition/qicore-condition-encounter-diagnosis"]},"category":[{"coding":[{"system":"http://terminology.hl7.org/CodeSystem/condition-category","code":"encounter-diagnosis","display":"Encounter Diagnosis"}]}],"code":{"coding":[{"system":"http://snomed.info/sct","version":"2023-09","code":"66344007","display":"Recurrent major depression (disorder)","userSelected":true}]},"subject":{"reference":"Patient/e37040f5-da02-49eb-98a8-60d5235f8e1f"},"recordedDate":"2026-04-18T08:00:00.000+00:00"},"request":{"method":"PUT","url":"Condition/6c838bf3-55f1-4a3a-9920-8e300ee4f107"}},{"resource":{"resourceType":"MeasureReport","id":"ccee3383-5fb4-4bfe-83fa-0e04ad1397f8","meta":{"profile":["http://hl7.org/fhir/us/cqfmeasures/StructureDefinition/test-case-cqfm"]},"contained":[{"resourceType":"Parameters","id":"48c3592a-4ba7-46d6-a477-ffdf750acf79-parameters","parameter":[{"name":"subject","valueString":"e37040f5-da02-49eb-98a8-60d5235f8e1f"}]}],"extension":[{"url":"http://hl7.org/fhir/StructureDefinition/cqf-inputParameters","valueReference":{"reference":"#48c3592a-4ba7-46d6-a477-ffdf750acf79-parameters"}},{"url":"http://hl7.org/fhir/us/cqfmeasures/StructureDefinition/cqfm-testCaseDescription","valueMarkdown":"Adult with mental diagnosis, LOS 8 hr 1 min with obs stay"}],"modifierExtension":[{"url":"http://hl7.org/fhir/us/cqfmeasures/StructureDefinition/cqfm-isTestCase","valueBoolean":true}],"status":"complete","type":"individual","measure":"https://madie.cms.gov/Measure/CMS1244FHIRECATHOQR","period":{"start":"2027-01-01","end":"2027-12-31"},"group":[{"id":"Group_1","population":[{"id":"InitialPopulation_1","code":{"coding":[{"system":"http://terminology.hl7.org/CodeSystem/measure-population","code":"initial-population","display":"Initial Population"}]},"count":1},{"id":"Denominator_1","code":{"coding":[{"system":"http://terminology.hl7.org/CodeSystem/measure-population","code":"denominator","display":"Denominator"}]},"count":1},{"id":"Numerator_1","code":{"coding":[{"system":"http://terminology.hl7.org/CodeSystem/measure-population","code":"numerator","display":"Numerator"}]},"count":0}],"measureScore":{"value":0.0},"stratifier":[{"id":"Stratification_1_1","code":[{"text":"Strata-1"}],"stratum":[{"value":{"text":"Strata-1"},"population":[{"id":"InitialPopulation_1","code":{"coding":[{"system":"http://terminology.hl7.org/CodeSystem/measure-population","code":"initial-population","display":"Initial Population"}]},"count":0},{"id":"Denominator_1","code":{"coding":[{"system":"http://terminology.hl7.org/CodeSystem/measure-population","code":"denominator","display":"Denominator"}]},"count":0},{"id":"Numerator_1","code":{"coding":[{"system":"http://terminology.hl7.org/CodeSystem/measure-population","code":"numerator","display":"Numerator"}]},"count":0}]}]},{"id":"Stratification_1_2","code":[{"text":"Strata-2"}],"stratum":[{"value":{"text":"Strata-2"},"population":[{"id":"InitialPopulation_1","code":{"coding":[{"system":"http://terminology.hl7.org/CodeSystem/measure-population","code":"initial-population","display":"Initial Population"}]},"count":0},{"id":"Denominator_1","code":{"coding":[{"system":"http://terminology.hl7.org/CodeSystem/measure-population","code":"denominator","display":"Denominator"}]},"count":0},{"id":"Numerator_1","code":{"coding":[{"system":"http://terminology.hl7.org/CodeSystem/measure-population","code":"numerator","display":"Numerator"}]},"count":0}]}]},{"id":"Stratification_1_3","code":[{"text":"Strata-3"}],"stratum":[{"value":{"text":"Strata-3"},"population":[{"id":"InitialPopulation_1","code":{"coding":[{"system":"http://terminology.hl7.org/CodeSystem/measure-population","code":"initial-population","display":"Initial Population"}]},"count":0},{"id":"Denominator_1","code":{"coding":[{"system":"http://terminology.hl7.org/CodeSystem/measure-population","code":"denominator","display":"Denominator"}]},"count":0},{"id":"Numerator_1","code":{"coding":[{"system":"http://terminology.hl7.org/CodeSystem/measure-population","code":"numerator","display":"Numerator"}]},"count":0}]}]},{"id":"Stratification_1_4","code":[{"text":"Strata-4"}],"stratum":[{"value":{"text":"Strata-4"},"population":[{"id":"InitialPopulation_1","code":{"coding":[{"system":"http://terminology.hl7.org/CodeSystem/measure-population","code":"initial-population","display":"Initial Population"}]},"count":1},{"id":"Denominator_1","code":{"coding":[{"system":"http://terminology.hl7.org/CodeSystem/measure-population","code":"denominator","display":"Denominator"}]},"count":1},{"id":"Numerator_1","code":{"coding":[{"system":"http://terminology.hl7.org/CodeSystem/measure-population","code":"numerator","display":"Numerator"}]},"count":0}]}]}]}],"evaluatedResource":[{"reference":"Patient/e37040f5-da02-49eb-98a8-60d5235f8e1f"},{"reference":"Encounter/ebb4e06a-e8d6-4640-b22c-ecdcbe415fbc"},{"reference":"Location/bdf47ad1-868e-4928-b3f6-6112823fb77c"},{"reference":"Claim/ClaimBehavior-NotSubsAbuse"},{"reference":"Coverage/7a3b7821-03fa-4c41-a4c0-40cae47e089e"},{"reference":"Condition/6c838bf3-55f1-4a3a-9920-8e300ee4f107"},{"reference":"Encounter/b8f5c247-69b8-4e6f-a923-dd684bcbcd28"},{"reference":"Organization/67b21437-42cb-4b5e-b28c-090403ff40cc"},{"reference":"Practitioner/07b8a5d1-d67a-4932-b2d8-1b7858694042"}]},"request":{"method":"PUT","url":"MeasureReport/ccee3383-5fb4-4bfe-83fa-0e04ad1397f8"}},{"resource":{"resourceType":"Encounter","id":"b8f5c247-69b8-4e6f-a923-dd684bcbcd28","meta":{"profile":["http://hl7.org/fhir/us/qicore/StructureDefinition/qicore-encounter"]},"status":"finished","class":{"system":"http://terminology.hl7.org/CodeSystem/v3-ActCode","code":"EMER","display":"emergency"},"type":[{"coding":[{"system":"http://snomed.info/sct","code":"448951000124107","display":"Admission to observation unit (procedure)","userSelected":true}]}],"subject":{"reference":"Patient/e37040f5-da02-49eb-98a8-60d5235f8e1f"},"period":{"start":"2027-05-01T02:01:00.000+00:00","end":"2027-05-01T05:59:00.000+00:00"}},"request":{"method":"PUT","url":"Encounter/b8f5c247-69b8-4e6f-a923-dd684bcbcd28"}},{"resource":{"resourceType":"Encounter","id":"ebb4e06a-e8d6-4640-b22c-ecdcbe415fbc","meta":{"profile":["http://hl7.org/fhir/us/qicore/StructureDefinition/qicore-encounter"]},"status":"finished","class":{"system":"http://terminology.hl7.org/CodeSystem/v3-ActCode","code":"EMER","display":"emergency department"},"type":[{"coding":[{"system":"http://snomed.info/sct","version":"2023-09","code":"4525004","display":"Emergency department patient visit (procedure)","userSelected":true}]}],"subject":{"reference":"Patient/e37040f5-da02-49eb-98a8-60d5235f8e1f"},"period":{"start":"2027-05-01T00:00:00.000+00:00","end":"2027-05-01T08:00:00.000+00:00"},"diagnosis":[{"condition":{"reference":"Condition/6c838bf3-55f1-4a3a-9920-8e300ee4f107"},"use":{"coding":[{"system":"http://terminology.hl7.org/CodeSystem/diagnosis-role","code":"billing"}]},"rank":1}],"location":[{"location":{"reference":"Location/bdf47ad1-868e-4928-b3f6-6112823fb77c"},"period":{"start":"2027-05-01T00:00:00.000+00:00","end":"2027-05-01T08:01:00.000+00:00"}}]},"request":{"method":"PUT","url":"Encounter/ebb4e06a-e8d6-4640-b22c-ecdcbe415fbc"}},{"resource":{"resourceType":"Location","id":"bdf47ad1-868e-4928-b3f6-6112823fb77c","meta":{"profile":["http://hl7.org/fhir/us/qicore/StructureDefinition/qicore-location"]},"identifier":[{"use":"usual","system":"http://exampleoflocation.com","value":"B1-S.F2"}],"name":"Medical Surgical East, first floor","type":[{"coding":[{"system":"https://www.cdc.gov/nhsn/cdaportal/terminology/codesystem/hsloc.html","version":"2022","code":"1108-0","display":"Emergency Department","userSelected":true}]}]},"request":{"method":"PUT","url":"Location/bdf47ad1-868e-4928-b3f6-6112823fb77c"}},{"resource":{"resourceType":"Patient","id":"e37040f5-da02-49eb-98a8-60d5235f8e1f","meta":{"profile":["http://hl7.org/fhir/us/qicore/StructureDefinition/qicore-patient"]},"extension":[{"url":"http://hl7.org/fhir/us/core/StructureDefinition/us-core-race","extension":[{"url":"ombCategory","valueCoding":{"system":"urn:oid:2.16.840.1.113883.6.238","code":"1002-5","display":"American Indian or Alaska Native","userSelected":true}},{"url":"text","valueString":"American Indian or Alaska Native"}]},{"url":"http://hl7.org/fhir/us/core/StructureDefinition/us-core-ethnicity","extension":[{"url":"ombCategory","valueCoding":{"system":"urn:oid:2.16.840.1.113883.6.238","code":"2135-2","display":"Hispanic or Latino","userSelected":true}},{"url":"text","valueString":"Hispanic or Latino"}]},{"url":"http://hl7.org/fhir/us/core/StructureDefinition/us-core-sex","valueCode":"248153007"}],"identifier":[{"type":{"coding":[{"system":"http://terminology.hl7.org/CodeSystem/v2-0203","code":"MR"}]},"system":"https://bonnie-fhir.healthit.gov/","value":"661476b015ed5841a5547ebf"}],"name":[{"family":"NUMEXStrat4Pass","given":["EDOBSOrderLOS"]}],"gender":"male","birthDate":"2009-01-01"},"request":{"method":"PUT","url":"Patient/e37040f5-da02-49eb-98a8-60d5235f8e1f"}},{"resource":{"resourceType":"Practitioner","id":"07b8a5d1-d67a-4932-b2d8-1b7858694042","meta":{"profile":["http://hl7.org/fhir/us/qicore/StructureDefinition/qicore-practitioner"]},"identifier":[{"system":"http://hl7.org/fhir/sid/us-npi","value":"9999999896"}],"name":[{"family":"Evil","prefix":["Dr"]}]},"request":{"method":"PUT","url":"Practitioner/07b8a5d1-d67a-4932-b2d8-1b7858694042"}},{"resource":{"resourceType":"Coverage","id":"7a3b7821-03fa-4c41-a4c0-40cae47e089e","meta":{"profile":["http://hl7.org/fhir/us/qicore/StructureDefinition/qicore-coverage"]},"identifier":[{"type":{"coding":[{"system":"http://terminology.hl7.org/CodeSystem/v2-0203","code":"MB"}]}}],"status":"active","beneficiary":{"reference":"Patient/e37040f5-da02-49eb-98a8-60d5235f8e1f"},"relationship":{"coding":[{"system":"http://terminology.hl7.org/CodeSystem/subscriber-relationship","code":"self"}]},"payor":[{"reference":"Organization/67b21437-42cb-4b5e-b28c-090403ff40cc"}]},"request":{"method":"PUT","url":"Coverage/7a3b7821-03fa-4c41-a4c0-40cae47e089e"}},{"resource":{"resourceType":"Claim","id":"ClaimBehavior-NotSubsAbuse","meta":{"profile":["http://hl7.org/fhir/us/qicore/StructureDefinition/qicore-claim"]},"status":"active","type":{"coding":[{"system":"http://terminology.hl7.org/CodeSystem/claim-type","code":"institutional"}]},"use":"claim","patient":{"reference":"Patient/e37040f5-da02-49eb-98a8-60d5235f8e1f"},"created":"2027-05-01","provider":{"reference":"Practitioner/07b8a5d1-d67a-4932-b2d8-1b7858694042"},"priority":{"coding":[{"system":"http://terminology.hl7.org/CodeSystem/processpriority","code":"normal"}]},"diagnosis":[{"sequence":1,"diagnosisReference":{"reference":"Condition/6c838bf3-55f1-4a3a-9920-8e300ee4f107"},"type":[{"coding":[{"system":"http://terminology.hl7.org/CodeSystem/ex-diagnosistype","code":"principal"}]}]}],"insurance":[{"sequence":1,"focal":true,"coverage":{"reference":"Coverage/7a3b7821-03fa-4c41-a4c0-40cae47e089e"}}],"item":[{"sequence":1,"diagnosisSequence":[1],"productOrService":{"coding":[{"system":"http://terminology.hl7.org/CodeSystem/ex-USCLS","code":"99555"}]},"encounter":[{"reference":"Encounter/ebb4e06a-e8d6-4640-b22c-ecdcbe415fbc"}]}]},"request":{"method":"PUT","url":"Claim/ClaimBehavior-NotSubsAbuse"}},{"resource":{"resourceType":"Organization","id":"67b21437-42cb-4b5e-b28c-090403ff40cc","meta":{"profile":["http://hl7.org/fhir/us/qicore/StructureDefinition/qicore-organization"]},"identifier":[{"use":"temp","system":"urn:oid:2.16.840.1.113883.4.4","value":"21-3259825"}],"active":true,"type":[{"coding":[{"system":"http://terminology.hl7.org/CodeSystem/organization-type","code":"pay","display":"Payer"}]}],"name":"Blue Cross Blue Shield of Texas","telecom":[{"system":"phone","value":"(+1) 972-766-6900"}],"address":[{"use":"billing","type":"postal","line":["P.O. Box 660044"],"city":"Dallas","state":"TX","postalCode":"75266-0044","country":"USA"}]},"request":{"method":"PUT","url":"Organization/67b21437-42cb-4b5e-b28c-090403ff40cc"}},{"resource":{"resourceType":"Bundle","id":"661476b015ed5841a5547ebg","type":"transaction","entry":[{"fullUrl":"https://madie.cms.gov/Patient/e37040f5-da02-49eb-98a8-60d5235f8e1f","resource":{"resourceType":"Patient","id":"e37040f5-da02-49eb-98a8-60d5235f8e1f","meta":{"profile":["http://hl7.org/fhir/us/qicore/StructureDefinition/qicore-patient"]},"extension":[{"url":"http://hl7.org/fhir/us/core/StructureDefinition/us-core-race","extension":[{"url":"ombCategory","valueCoding":{"system":"urn:oid:2.16.840.1.113883.6.238","code":"1002-5","display":"American Indian or Alaska Native","userSelected":true}},{"url":"text","valueString":"American Indian or Alaska Native"}]},{"url":"http://hl7.org/fhir/us/core/StructureDefinition/us-core-ethnicity","extension":[{"url":"ombCategory","valueCoding":{"system":"urn:oid:2.16.840.1.113883.6.238","code":"2135-2","display":"Hispanic or Latino","userSelected":true}},{"url":"text","valueString":"Hispanic or Latino"}]},{"url":"http://hl7.org/fhir/us/core/StructureDefinition/us-core-sex","valueCode":"248153007"}],"identifier":[{"type":{"coding":[{"system":"http://terminology.hl7.org/CodeSystem/v2-0203","code":"MR"}]},"system":"https://bonnie-fhir.healthit.gov/","value":"661476b015ed5841a5547ebf"}],"name":[{"family":"NUMEXStrat4Pass","given":["EDOBSOrderLOS"]}],"gender":"male","birthDate":"2009-01-01"},"request":{"method":"PUT","url":"Patient/e37040f5-da02-49eb-98a8-60d5235f8e1f"}},{"fullUrl":"https://madie.cms.gov/Encounter/ebb4e06a-e8d6-4640-b22c-ecdcbe415fbc","resource":{"resourceType":"Encounter","id":"ebb4e06a-e8d6-4640-b22c-ecdcbe415fbc","meta":{"profile":["http://hl7.org/fhir/us/qicore/StructureDefinition/qicore-encounter"]},"status":"finished","class":{"system":"http://terminology.hl7.org/CodeSystem/v3-ActCode","code":"EMER","display":"emergency department"},"type":[{"coding":[{"system":"http://snomed.info/sct","version":"2023-09","code":"4525004","display":"Emergency department patient visit (procedure)","userSelected":true}]}],"subject":{"reference":"Patient/e37040f5-da02-49eb-98a8-60d5235f8e1f"},"period":{"start":"2027-05-01T00:00:00.000+00:00","end":"2027-05-01T08:00:00.000+00:00"},"diagnosis":[{"condition":{"reference":"Condition/6c838bf3-55f1-4a3a-9920-8e300ee4f107"},"use":{"coding":[{"system":"http://terminology.hl7.org/CodeSystem/diagnosis-role","code":"billing"}]},"rank":1}],"location":[{"location":{"reference":"Location/bdf47ad1-868e-4928-b3f6-6112823fb77c"},"period":{"start":"2027-05-01T00:00:00.000+00:00","end":"2027-05-01T08:01:00.000+00:00"}}]},"request":{"method":"PUT","url":"Encounter/ebb4e06a-e8d6-4640-b22c-ecdcbe415fbc"}},{"fullUrl":"https://madie.cms.gov/Location/bdf47ad1-868e-4928-b3f6-6112823fb77c","resource":{"resourceType":"Location","id":"bdf47ad1-868e-4928-b3f6-6112823fb77c","meta":{"profile":["http://hl7.org/fhir/us/qicore/StructureDefinition/qicore-location"]},"identifier":[{"use":"usual","system":"http://exampleoflocation.com","value":"B1-S.F2"}],"name":"Medical Surgical East, first floor","type":[{"coding":[{"system":"https://www.cdc.gov/nhsn/cdaportal/terminology/codesystem/hsloc.html","version":"2022","code":"1108-0","display":"Emergency Department","userSelected":true}]}]},"request":{"method":"PUT","url":"Location/bdf47ad1-868e-4928-b3f6-6112823fb77c"}},{"fullUrl":"https://madie.cms.gov/claim/ClaimBehavior-NotSubsAbuse","resource":{"resourceType":"Claim","id":"ClaimBehavior-NotSubsAbuse","meta":{"profile":["http://hl7.org/fhir/us/qicore/StructureDefinition/qicore-claim"]},"status":"active","type":{"coding":[{"system":"http://terminology.hl7.org/CodeSystem/claim-type","code":"institutional"}]},"use":"claim","patient":{"reference":"Patient/e37040f5-da02-49eb-98a8-60d5235f8e1f"},"created":"2027-05-01","provider":{"reference":"Practitioner/07b8a5d1-d67a-4932-b2d8-1b7858694042"},"priority":{"coding":[{"system":"http://terminology.hl7.org/CodeSystem/processpriority","code":"normal"}]},"diagnosis":[{"sequence":1,"diagnosisReference":{"reference":"Condition/6c838bf3-55f1-4a3a-9920-8e300ee4f107"},"type":[{"coding":[{"system":"http://terminology.hl7.org/CodeSystem/ex-diagnosistype","code":"principal"}]}]}],"insurance":[{"sequence":1,"focal":true,"coverage":{"reference":"Coverage/7a3b7821-03fa-4c41-a4c0-40cae47e089e"}}],"item":[{"sequence":1,"diagnosisSequence":[1],"productOrService":{"coding":[{"system":"http://terminology.hl7.org/CodeSystem/ex-USCLS","code":"99555"}]},"encounter":[{"reference":"Encounter/ebb4e06a-e8d6-4640-b22c-ecdcbe415fbc"}]}]},"request":{"method":"PUT","url":"Claim/ClaimBehavior-NotSubsAbuse"}},{"fullUrl":"https://madie.cms.gov/Coverage/7a3b7821-03fa-4c41-a4c0-40cae47e089e","resource":{"resourceType":"Coverage","id":"7a3b7821-03fa-4c41-a4c0-40cae47e089e","meta":{"profile":["http://hl7.org/fhir/us/qicore/StructureDefinition/qicore-coverage"]},"identifier":[{"type":{"coding":[{"system":"http://terminology.hl7.org/CodeSystem/v2-0203","code":"MB"}]}}],"status":"active","beneficiary":{"reference":"Patient/e37040f5-da02-49eb-98a8-60d5235f8e1f"},"relationship":{"coding":[{"system":"http://terminology.hl7.org/CodeSystem/subscriber-relationship","code":"self"}]},"payor":[{"reference":"Organization/67b21437-42cb-4b5e-b28c-090403ff40cc"}]},"request":{"method":"PUT","url":"Coverage/7a3b7821-03fa-4c41-a4c0-40cae47e089e"}},{"fullUrl":"https://madie.cms.gov/Condition/6c838bf3-55f1-4a3a-9920-8e300ee4f107","resource":{"resourceType":"Condition","id":"6c838bf3-55f1-4a3a-9920-8e300ee4f107","meta":{"profile":["http://hl7.org/fhir/us/qicore/StructureDefinition/qicore-condition-encounter-diagnosis"]},"category":[{"coding":[{"system":"http://terminology.hl7.org/CodeSystem/condition-category","code":"encounter-diagnosis","display":"Encounter Diagnosis"}]}],"code":{"coding":[{"system":"http://snomed.info/sct","version":"2023-09","code":"66344007","display":"Recurrent major depression (disorder)","userSelected":true}]},"subject":{"reference":"Patient/e37040f5-da02-49eb-98a8-60d5235f8e1f"},"recordedDate":"2026-04-18T08:00:00.000+00:00"},"request":{"method":"PUT","url":"Condition/6c838bf3-55f1-4a3a-9920-8e300ee4f107"}},{"fullUrl":"https://madie.cms.gov/Encounter/b8f5c247-69b8-4e6f-a923-dd684bcbcd28","resource":{"resourceType":"Encounter","id":"b8f5c247-69b8-4e6f-a923-dd684bcbcd28","meta":{"profile":["http://hl7.org/fhir/us/qicore/StructureDefinition/qicore-encounter"]},"status":"finished","class":{"system":"http://terminology.hl7.org/CodeSystem/v3-ActCode","code":"EMER","display":"emergency"},"type":[{"coding":[{"system":"http://snomed.info/sct","code":"448951000124107","display":"Admission to observation unit (procedure)","userSelected":true}]}],"subject":{"reference":"Patient/e37040f5-da02-49eb-98a8-60d5235f8e1f"},"period":{"start":"2027-05-01T02:01:00.000+00:00","end":"2027-05-01T05:59:00.000+00:00"}},"request":{"method":"PUT","url":"Encounter/b8f5c247-69b8-4e6f-a923-dd684bcbcd28"}},{"fullUrl":"https://madie.cms.gov/Organization/67b21437-42cb-4b5e-b28c-090403ff40cc","resource":{"resourceType":"Organization","id":"67b21437-42cb-4b5e-b28c-090403ff40cc","meta":{"profile":["http://hl7.org/fhir/us/qicore/StructureDefinition/qicore-organization"]},"identifier":[{"use":"temp","system":"urn:oid:2.16.840.1.113883.4.4","value":"21-3259825"}],"active":true,"type":[{"coding":[{"system":"http://terminology.hl7.org/CodeSystem/organization-type","code":"pay","display":"Payer"}]}],"name":"Blue Cross Blue Shield of Texas","telecom":[{"system":"phone","value":"(+1) 972-766-6900"}],"address":[{"use":"billing","type":"postal","line":["P.O. Box 660044"],"city":"Dallas","state":"TX","postalCode":"75266-0044","country":"USA"}]},"request":{"method":"PUT","url":"Organization/67b21437-42cb-4b5e-b28c-090403ff40cc"}},{"fullUrl":"https://madie.cms.gov/Practitioner/07b8a5d1-d67a-4932-b2d8-1b7858694042","resource":{"resourceType":"Practitioner","id":"07b8a5d1-d67a-4932-b2d8-1b7858694042","meta":{"profile":["http://hl7.org/fhir/us/qicore/StructureDefinition/qicore-practitioner"]},"identifier":[{"system":"http://hl7.org/fhir/sid/us-npi","value":"9999999896"}],"name":[{"family":"Evil","prefix":["Dr"]}]},"request":{"method":"PUT","url":"Practitioner/07b8a5d1-d67a-4932-b2d8-1b7858694042"}},{"fullUrl":"https://madie.cms.gov/MeasureReport/ccee3383-5fb4-4bfe-83fa-0e04ad1397f8","resource":{"resourceType":"MeasureReport","id":"ccee3383-5fb4-4bfe-83fa-0e04ad1397f8","meta":{"profile":["http://hl7.org/fhir/us/cqfmeasures/StructureDefinition/test-case-cqfm"]},"contained":[{"resourceType":"Parameters","id":"48c3592a-4ba7-46d6-a477-ffdf750acf79-parameters","parameter":[{"name":"subject","valueString":"e37040f5-da02-49eb-98a8-60d5235f8e1f"}]}],"extension":[{"url":"http://hl7.org/fhir/StructureDefinition/cqf-inputParameters","valueReference":{"reference":"#48c3592a-4ba7-46d6-a477-ffdf750acf79-parameters"}},{"url":"http://hl7.org/fhir/us/cqfmeasures/StructureDefinition/cqfm-testCaseDescription","valueMarkdown":"Adult with mental diagnosis, LOS 8 hr 1 min with obs stay"}],"modifierExtension":[{"url":"http://hl7.org/fhir/us/cqfmeasures/StructureDefinition/cqfm-isTestCase","valueBoolean":true}],"status":"complete","type":"individual","measure":"https://madie.cms.gov/Measure/CMS1244FHIRECATHOQR","period":{"start":"2027-01-01","end":"2027-12-31"},"group":[{"id":"Group_1","population":[{"id":"InitialPopulation_1","code":{"coding":[{"system":"http://terminology.hl7.org/CodeSystem/measure-population","code":"initial-population","display":"Initial Population"}]},"count":1},{"id":"Denominator_1","code":{"coding":[{"system":"http://terminology.hl7.org/CodeSystem/measure-population","code":"denominator","display":"Denominator"}]},"count":1},{"id":"Numerator_1","code":{"coding":[{"system":"http://terminology.hl7.org/CodeSystem/measure-population","code":"numerator","display":"Numerator"}]},"count":0}],"measureScore":{"value":0.0},"stratifier":[{"id":"Stratification_1_1","code":[{"text":"Strata-1"}],"stratum":[{"value":{"text":"Strata-1"},"population":[{"id":"InitialPopulation_1","code":{"coding":[{"system":"http://terminology.hl7.org/CodeSystem/measure-population","code":"initial-population","display":"Initial Population"}]},"count":0},{"id":"Denominator_1","code":{"coding":[{"system":"http://terminology.hl7.org/CodeSystem/measure-population","code":"denominator","display":"Denominator"}]},"count":0},{"id":"Numerator_1","code":{"coding":[{"system":"http://terminology.hl7.org/CodeSystem/measure-population","code":"numerator","display":"Numerator"}]},"count":0}]}]},{"id":"Stratification_1_2","code":[{"text":"Strata-2"}],"stratum":[{"value":{"text":"Strata-2"},"population":[{"id":"InitialPopulation_1","code":{"coding":[{"system":"http://terminology.hl7.org/CodeSystem/measure-population","code":"initial-population","display":"Initial Population"}]},"count":0},{"id":"Denominator_1","code":{"coding":[{"system":"http://terminology.hl7.org/CodeSystem/measure-population","code":"denominator","display":"Denominator"}]},"count":0},{"id":"Numerator_1","code":{"coding":[{"system":"http://terminology.hl7.org/CodeSystem/measure-population","code":"numerator","display":"Numerator"}]},"count":0}]}]},{"id":"Stratification_1_3","code":[{"text":"Strata-3"}],"stratum":[{"value":{"text":"Strata-3"},"population":[{"id":"InitialPopulation_1","code":{"coding":[{"system":"http://terminology.hl7.org/CodeSystem/measure-population","code":"initial-population","display":"Initial Population"}]},"count":0},{"id":"Denominator_1","code":{"coding":[{"system":"http://terminology.hl7.org/CodeSystem/measure-population","code":"denominator","display":"Denominator"}]},"count":0},{"id":"Numerator_1","code":{"coding":[{"system":"http://terminology.hl7.org/CodeSystem/measure-population","code":"numerator","display":"Numerator"}]},"count":0}]}]},{"id":"Stratification_1_4","code":[{"text":"Strata-4"}],"stratum":[{"value":{"text":"Strata-4"},"population":[{"id":"InitialPopulation_1","code":{"coding":[{"system":"http://terminology.hl7.org/CodeSystem/measure-population","code":"initial-population","display":"Initial Population"}]},"count":1},{"id":"Denominator_1","code":{"coding":[{"system":"http://terminology.hl7.org/CodeSystem/measure-population","code":"denominator","display":"Denominator"}]},"count":1},{"id":"Numerator_1","code":{"coding":[{"system":"http://terminology.hl7.org/CodeSystem/measure-population","code":"numerator","display":"Numerator"}]},"count":0}]}]}]}],"evaluatedResource":[{"reference":"Patient/e37040f5-da02-49eb-98a8-60d5235f8e1f"},{"reference":"Encounter/ebb4e06a-e8d6-4640-b22c-ecdcbe415fbc"},{"reference":"Location/bdf47ad1-868e-4928-b3f6-6112823fb77c"},{"reference":"Claim/ClaimBehavior-NotSubsAbuse"},{"reference":"Coverage/7a3b7821-03fa-4c41-a4c0-40cae47e089e"},{"reference":"Condition/6c838bf3-55f1-4a3a-9920-8e300ee4f107"},{"reference":"Encounter/b8f5c247-69b8-4e6f-a923-dd684bcbcd28"},{"reference":"Organization/67b21437-42cb-4b5e-b28c-090403ff40cc"},{"reference":"Practitioner/07b8a5d1-d67a-4932-b2d8-1b7858694042"}]},"request":{"method":"PUT","url":"MeasureReport/ccee3383-5fb4-4bfe-83fa-0e04ad1397f8"}}]},"request":{"method":"PUT","url":"Bundle/661476b015ed5841a5547ebg"}}]}