{"resourceType":"Bundle","id":"tests-5ae9589c-1301-45a0-af30-ac7b679b649f-bundle","type":"transaction","entry":[{"resource":{"resourceType":"Location","id":"68197682-ceb2-4197-86a4-10be1aac790a","meta":{"profile":["http://hl7.org/fhir/us/qicore/StructureDefinition/qicore-location"]},"identifier":[{"use":"usual","system":"http://exampleoflocation.com","value":"B1-S.F2"}],"name":"Medical Surgical East, first floor","type":[{"coding":[{"system":"https://www.cdc.gov/nhsn/cdaportal/terminology/codesystem/hsloc.html","version":"2022","code":"1209-6","display":"Treatment Room","userSelected":true}]}]},"request":{"method":"PUT","url":"Location/68197682-ceb2-4197-86a4-10be1aac790a"}},{"resource":{"resourceType":"Condition","id":"b0bfa6ee-b4e9-4db9-82db-af6c5de06416","meta":{"profile":["http://hl7.org/fhir/us/qicore/StructureDefinition/qicore-condition-encounter-diagnosis"]},"category":[{"coding":[{"system":"http://terminology.hl7.org/CodeSystem/condition-category","code":"encounter-diagnosis","display":"Encounter Diagnosis"}]}],"code":{"coding":[{"system":"http://snomed.info/sct","version":"2023-09","code":"10660471000119109","display":"Ulcer of left foot due to type 2 diabetes mellitus (disorder)","userSelected":true}]},"subject":{"reference":"Patient/5ae9589c-1301-45a0-af30-ac7b679b649f"},"recordedDate":"2027-01-01T08:00:00.000+00:00"},"request":{"method":"PUT","url":"Condition/b0bfa6ee-b4e9-4db9-82db-af6c5de06416"}},{"resource":{"resourceType":"Coverage","id":"f64141d8-6a0b-4ce3-a898-4eea88bb8dc9","meta":{"profile":["http://hl7.org/fhir/us/qicore/StructureDefinition/qicore-coverage"]},"identifier":[{"type":{"coding":[{"system":"http://terminology.hl7.org/CodeSystem/v2-0203","code":"MB"}]}}],"status":"active","beneficiary":{"reference":"Patient/5ae9589c-1301-45a0-af30-ac7b679b649f"},"relationship":{"coding":[{"system":"http://terminology.hl7.org/CodeSystem/subscriber-relationship","code":"self"}]},"payor":[{"reference":"Organization/63be8f60-ab27-492c-b23a-b31a1f11d636"}]},"request":{"method":"PUT","url":"Coverage/f64141d8-6a0b-4ce3-a898-4eea88bb8dc9"}},{"resource":{"resourceType":"Practitioner","id":"7a314a1b-245c-4c3e-97c0-818e10a26641","meta":{"profile":["http://hl7.org/fhir/us/qicore/StructureDefinition/qicore-practitioner"]},"identifier":[{"system":"http://hl7.org/fhir/sid/us-npi","value":"9999999896"}],"name":[{"family":"Evil","prefix":["Dr"]}]},"request":{"method":"PUT","url":"Practitioner/7a314a1b-245c-4c3e-97c0-818e10a26641"}},{"resource":{"resourceType":"Encounter","id":"0acd1722-7811-45ee-9558-5f59c1cffb83","meta":{"profile":["http://hl7.org/fhir/us/qicore/StructureDefinition/qicore-encounter"]},"status":"finished","class":{"system":"http://terminology.hl7.org/CodeSystem/v3-ActCode","code":"EMER","display":"emergency"},"type":[{"coding":[{"system":"http://snomed.info/sct","version":"2023-09","code":"4525004","display":"Emergency department patient visit (procedure)","userSelected":true}]}],"subject":{"reference":"Patient/5ae9589c-1301-45a0-af30-ac7b679b649f"},"period":{"start":"2027-01-01T08:00:00.000+00:00","end":"2027-01-01T12:15:00.000+00:00"},"diagnosis":[{"condition":{"reference":"Condition/b0bfa6ee-b4e9-4db9-82db-af6c5de06416"},"use":{"coding":[{"system":"http://terminology.hl7.org/CodeSystem/diagnosis-role","code":"billing"}]},"rank":1}],"location":[{"location":{"reference":"Location/08ff938c-06cd-4d27-bcbe-7c7a1622a01a"},"period":{"start":"2027-01-01T08:00:00.000+00:00","end":"2027-01-01T12:15:00.000+00:00"}},{"location":{"reference":"Location/2f9c122f-e4ed-4efa-ba5e-2da6825fcc30"},"period":{"start":"2027-01-01T09:01:00.000+00:00","end":"2027-01-01T12:15:00.000+00:00"}}]},"request":{"method":"PUT","url":"Encounter/0acd1722-7811-45ee-9558-5f59c1cffb83"}},{"resource":{"resourceType":"MeasureReport","id":"324153f2-b7df-403c-b4c5-327144eeab64","meta":{"profile":["http://hl7.org/fhir/us/cqfmeasures/StructureDefinition/test-case-cqfm"]},"contained":[{"resourceType":"Parameters","id":"640cd118-52be-4f9e-84d0-ff01a4c0ac25-parameters","parameter":[{"name":"subject","valueString":"5ae9589c-1301-45a0-af30-ac7b679b649f"}]}],"extension":[{"url":"http://hl7.org/fhir/StructureDefinition/cqf-inputParameters","valueReference":{"reference":"#640cd118-52be-4f9e-84d0-ff01a4c0ac25-parameters"}},{"url":"http://hl7.org/fhir/us/cqfmeasures/StructureDefinition/cqfm-testCaseDescription","valueMarkdown":"Adult, age 18, Encounter first day of MP, time to treatment 61 minutes, no mental illness"}],"modifierExtension":[{"url":"http://hl7.org/fhir/us/cqfmeasures/StructureDefinition/cqfm-isTestCase","valueBoolean":true}],"status":"complete","type":"individual","measure":"https://madie.cms.gov/Measure/CMS1244FHIRECATHOQR","period":{"start":"2027-01-01","end":"2027-12-31"},"group":[{"id":"Group_1","population":[{"id":"InitialPopulation_1","code":{"coding":[{"system":"http://terminology.hl7.org/CodeSystem/measure-population","code":"initial-population","display":"Initial Population"}]},"count":1},{"id":"Denominator_1","code":{"coding":[{"system":"http://terminology.hl7.org/CodeSystem/measure-population","code":"denominator","display":"Denominator"}]},"count":1},{"id":"Numerator_1","code":{"coding":[{"system":"http://terminology.hl7.org/CodeSystem/measure-population","code":"numerator","display":"Numerator"}]},"count":1}],"measureScore":{"value":0.0},"stratifier":[{"id":"Stratification_1_1","code":[{"text":"Strata-1"}],"stratum":[{"value":{"text":"Strata-1"},"population":[{"id":"InitialPopulation_1","code":{"coding":[{"system":"http://terminology.hl7.org/CodeSystem/measure-population","code":"initial-population","display":"Initial Population"}]},"count":0},{"id":"Denominator_1","code":{"coding":[{"system":"http://terminology.hl7.org/CodeSystem/measure-population","code":"denominator","display":"Denominator"}]},"count":0},{"id":"Numerator_1","code":{"coding":[{"system":"http://terminology.hl7.org/CodeSystem/measure-population","code":"numerator","display":"Numerator"}]},"count":0}]}]},{"id":"Stratification_1_2","code":[{"text":"Strata-2"}],"stratum":[{"value":{"text":"Strata-2"},"population":[{"id":"InitialPopulation_1","code":{"coding":[{"system":"http://terminology.hl7.org/CodeSystem/measure-population","code":"initial-population","display":"Initial Population"}]},"count":1},{"id":"Denominator_1","code":{"coding":[{"system":"http://terminology.hl7.org/CodeSystem/measure-population","code":"denominator","display":"Denominator"}]},"count":1},{"id":"Numerator_1","code":{"coding":[{"system":"http://terminology.hl7.org/CodeSystem/measure-population","code":"numerator","display":"Numerator"}]},"count":1}]}]},{"id":"Stratification_1_3","code":[{"text":"Strata-3"}],"stratum":[{"value":{"text":"Strata-3"},"population":[{"id":"InitialPopulation_1","code":{"coding":[{"system":"http://terminology.hl7.org/CodeSystem/measure-population","code":"initial-population","display":"Initial Population"}]},"count":0},{"id":"Denominator_1","code":{"coding":[{"system":"http://terminology.hl7.org/CodeSystem/measure-population","code":"denominator","display":"Denominator"}]},"count":0},{"id":"Numerator_1","code":{"coding":[{"system":"http://terminology.hl7.org/CodeSystem/measure-population","code":"numerator","display":"Numerator"}]},"count":0}]}]},{"id":"Stratification_1_4","code":[{"text":"Strata-4"}],"stratum":[{"value":{"text":"Strata-4"},"population":[{"id":"InitialPopulation_1","code":{"coding":[{"system":"http://terminology.hl7.org/CodeSystem/measure-population","code":"initial-population","display":"Initial Population"}]},"count":0},{"id":"Denominator_1","code":{"coding":[{"system":"http://terminology.hl7.org/CodeSystem/measure-population","code":"denominator","display":"Denominator"}]},"count":0},{"id":"Numerator_1","code":{"coding":[{"system":"http://terminology.hl7.org/CodeSystem/measure-population","code":"numerator","display":"Numerator"}]},"count":0}]}]}]}],"evaluatedResource":[{"reference":"Patient/5ae9589c-1301-45a0-af30-ac7b679b649f"},{"reference":"Encounter/0acd1722-7811-45ee-9558-5f59c1cffb83"},{"reference":"Location/08ff938c-06cd-4d27-bcbe-7c7a1622a01a"},{"reference":"Location/2f9c122f-e4ed-4efa-ba5e-2da6825fcc30"},{"reference":"Condition/b0bfa6ee-b4e9-4db9-82db-af6c5de06416"},{"reference":"Location/11765a01-a448-43ca-bcdf-d2cf506311b3"},{"reference":"Location/68197682-ceb2-4197-86a4-10be1aac790a"},{"reference":"Claim/ClaimBehavior-NotSubsAbuse"},{"reference":"Coverage/f64141d8-6a0b-4ce3-a898-4eea88bb8dc9"},{"reference":"Organization/63be8f60-ab27-492c-b23a-b31a1f11d636"},{"reference":"Practitioner/7a314a1b-245c-4c3e-97c0-818e10a26641"}]},"request":{"method":"PUT","url":"MeasureReport/324153f2-b7df-403c-b4c5-327144eeab64"}},{"resource":{"resourceType":"Organization","id":"63be8f60-ab27-492c-b23a-b31a1f11d636","meta":{"profile":["http://hl7.org/fhir/us/qicore/StructureDefinition/qicore-organization"]},"identifier":[{"use":"temp","system":"urn:oid:2.16.840.1.113883.4.4","value":"21-3259825"}],"active":true,"type":[{"coding":[{"system":"http://terminology.hl7.org/CodeSystem/organization-type","code":"pay","display":"Payer"}]}],"name":"Blue Cross Blue Shield of Texas","telecom":[{"system":"phone","value":"(+1) 972-766-6900"}],"address":[{"use":"billing","type":"postal","line":["P.O. Box 660044"],"city":"Dallas","state":"TX","postalCode":"75266-0044","country":"USA"}]},"request":{"method":"PUT","url":"Organization/63be8f60-ab27-492c-b23a-b31a1f11d636"}},{"resource":{"resourceType":"Location","id":"08ff938c-06cd-4d27-bcbe-7c7a1622a01a","meta":{"profile":["http://hl7.org/fhir/us/qicore/StructureDefinition/qicore-location"]},"identifier":[{"use":"usual","system":"http://exampleoflocation.com","value":"B1-S.F1"}],"name":"Medical Surgical East, first floor","type":[{"coding":[{"system":"https://www.cdc.gov/nhsn/cdaportal/terminology/codesystem/hsloc.html","version":"2022","code":"1108-0","display":"Emergency Department","userSelected":true}]}]},"request":{"method":"PUT","url":"Location/08ff938c-06cd-4d27-bcbe-7c7a1622a01a"}},{"resource":{"resourceType":"Patient","id":"5ae9589c-1301-45a0-af30-ac7b679b649f","meta":{"profile":["http://hl7.org/fhir/us/qicore/StructureDefinition/qicore-patient"]},"extension":[{"url":"http://hl7.org/fhir/us/core/StructureDefinition/us-core-race","extension":[{"url":"ombCategory","valueCoding":{"system":"urn:oid:2.16.840.1.113883.6.238","code":"2076-8","display":"Native Hawaiian or Other Pacific Islander","userSelected":true}},{"url":"text","valueString":"Native Hawaiian or Other Pacific Islander"}]},{"url":"http://hl7.org/fhir/us/core/StructureDefinition/us-core-ethnicity","extension":[{"url":"ombCategory","valueCoding":{"system":"urn:oid:2.16.840.1.113883.6.238","code":"2186-5","display":"Not Hispanic or Latino","userSelected":true}},{"url":"text","valueString":"Not Hispanic or Latino"}]},{"url":"http://hl7.org/fhir/us/core/StructureDefinition/us-core-sex","valueCode":"248152002"}],"identifier":[{"type":{"coding":[{"system":"http://terminology.hl7.org/CodeSystem/v2-0203","code":"MR"}]},"system":"https://bonnie-fhir.healthit.gov/","value":"661579e3db207d74c03b8a54"}],"name":[{"family":"NUMERStrat2Pass","given":["TimeToTx61Min"]}],"gender":"female","birthDate":"2008-12-31"},"request":{"method":"PUT","url":"Patient/5ae9589c-1301-45a0-af30-ac7b679b649f"}},{"resource":{"resourceType":"Location","id":"11765a01-a448-43ca-bcdf-d2cf506311b3","meta":{"profile":["http://hl7.org/fhir/us/qicore/StructureDefinition/qicore-location"]},"identifier":[{"use":"usual","system":"http://exampleoflocation.com","value":"B1-S.F1"}],"name":"Medical Surgical East, first floor","type":[{"coding":[{"system":"https://www.cdc.gov/nhsn/cdaportal/terminology/codesystem/hsloc.html","version":"2022","code":"1108-0","display":"Emergency Department","userSelected":true}]}]},"request":{"method":"PUT","url":"Location/11765a01-a448-43ca-bcdf-d2cf506311b3"}},{"resource":{"resourceType":"Claim","id":"ClaimBehavior-NotSubsAbuse","meta":{"profile":["http://hl7.org/fhir/us/qicore/StructureDefinition/qicore-claim"]},"status":"active","type":{"coding":[{"system":"http://terminology.hl7.org/CodeSystem/claim-type","code":"institutional"}]},"use":"claim","patient":{"reference":"Patient/5ae9589c-1301-45a0-af30-ac7b679b649f"},"created":"2027-01-01","provider":{"reference":"Practitioner/7a314a1b-245c-4c3e-97c0-818e10a26641"},"priority":{"coding":[{"system":"http://terminology.hl7.org/CodeSystem/processpriority","code":"normal"}]},"diagnosis":[{"sequence":1,"diagnosisReference":{"reference":"Condition/b0bfa6ee-b4e9-4db9-82db-af6c5de06416"},"type":[{"coding":[{"system":"http://terminology.hl7.org/CodeSystem/ex-diagnosistype","code":"principal"}]}]}],"insurance":[{"sequence":1,"focal":true,"coverage":{"reference":"Coverage/f64141d8-6a0b-4ce3-a898-4eea88bb8dc9"}}],"item":[{"sequence":1,"diagnosisSequence":[1],"productOrService":{"coding":[{"system":"http://terminology.hl7.org/CodeSystem/ex-USCLS","code":"99555"}]},"encounter":[{"reference":"Encounter/0acd1722-7811-45ee-9558-5f59c1cffb83"}]}]},"request":{"method":"PUT","url":"Claim/ClaimBehavior-NotSubsAbuse"}},{"resource":{"resourceType":"Bundle","id":"661579e3db207d74c03b8a54","type":"transaction","entry":[{"fullUrl":"https://madie.cms.gov/Patient/5ae9589c-1301-45a0-af30-ac7b679b649f","resource":{"resourceType":"Patient","id":"5ae9589c-1301-45a0-af30-ac7b679b649f","meta":{"profile":["http://hl7.org/fhir/us/qicore/StructureDefinition/qicore-patient"]},"extension":[{"url":"http://hl7.org/fhir/us/core/StructureDefinition/us-core-race","extension":[{"url":"ombCategory","valueCoding":{"system":"urn:oid:2.16.840.1.113883.6.238","code":"2076-8","display":"Native Hawaiian or Other Pacific Islander","userSelected":true}},{"url":"text","valueString":"Native Hawaiian or Other Pacific Islander"}]},{"url":"http://hl7.org/fhir/us/core/StructureDefinition/us-core-ethnicity","extension":[{"url":"ombCategory","valueCoding":{"system":"urn:oid:2.16.840.1.113883.6.238","code":"2186-5","display":"Not Hispanic or Latino","userSelected":true}},{"url":"text","valueString":"Not Hispanic or Latino"}]},{"url":"http://hl7.org/fhir/us/core/StructureDefinition/us-core-sex","valueCode":"248152002"}],"identifier":[{"type":{"coding":[{"system":"http://terminology.hl7.org/CodeSystem/v2-0203","code":"MR"}]},"system":"https://bonnie-fhir.healthit.gov/","value":"661579e3db207d74c03b8a54"}],"name":[{"family":"NUMERStrat2Pass","given":["TimeToTx61Min"]}],"gender":"female","birthDate":"2008-12-31"},"request":{"method":"PUT","url":"Patient/5ae9589c-1301-45a0-af30-ac7b679b649f"}},{"fullUrl":"https://madie.cms.gov/Encounter/0acd1722-7811-45ee-9558-5f59c1cffb83","resource":{"resourceType":"Encounter","id":"0acd1722-7811-45ee-9558-5f59c1cffb83","meta":{"profile":["http://hl7.org/fhir/us/qicore/StructureDefinition/qicore-encounter"]},"status":"finished","class":{"system":"http://terminology.hl7.org/CodeSystem/v3-ActCode","code":"EMER","display":"emergency"},"type":[{"coding":[{"system":"http://snomed.info/sct","version":"2023-09","code":"4525004","display":"Emergency department patient visit (procedure)","userSelected":true}]}],"subject":{"reference":"Patient/5ae9589c-1301-45a0-af30-ac7b679b649f"},"period":{"start":"2027-01-01T08:00:00.000+00:00","end":"2027-01-01T12:15:00.000+00:00"},"diagnosis":[{"condition":{"reference":"Condition/b0bfa6ee-b4e9-4db9-82db-af6c5de06416"},"use":{"coding":[{"system":"http://terminology.hl7.org/CodeSystem/diagnosis-role","code":"billing"}]},"rank":1}],"location":[{"location":{"reference":"Location/08ff938c-06cd-4d27-bcbe-7c7a1622a01a"},"period":{"start":"2027-01-01T08:00:00.000+00:00","end":"2027-01-01T12:15:00.000+00:00"}},{"location":{"reference":"Location/2f9c122f-e4ed-4efa-ba5e-2da6825fcc30"},"period":{"start":"2027-01-01T09:01:00.000+00:00","end":"2027-01-01T12:15:00.000+00:00"}}]},"request":{"method":"PUT","url":"Encounter/0acd1722-7811-45ee-9558-5f59c1cffb83"}},{"fullUrl":"https://madie.cms.gov/Location/08ff938c-06cd-4d27-bcbe-7c7a1622a01a","resource":{"resourceType":"Location","id":"08ff938c-06cd-4d27-bcbe-7c7a1622a01a","meta":{"profile":["http://hl7.org/fhir/us/qicore/StructureDefinition/qicore-location"]},"identifier":[{"use":"usual","system":"http://exampleoflocation.com","value":"B1-S.F1"}],"name":"Medical Surgical East, first floor","type":[{"coding":[{"system":"https://www.cdc.gov/nhsn/cdaportal/terminology/codesystem/hsloc.html","version":"2022","code":"1108-0","display":"Emergency Department","userSelected":true}]}]},"request":{"method":"PUT","url":"Location/08ff938c-06cd-4d27-bcbe-7c7a1622a01a"}},{"fullUrl":"https://madie.cms.gov/Location/2f9c122f-e4ed-4efa-ba5e-2da6825fcc30","resource":{"resourceType":"Location","id":"2f9c122f-e4ed-4efa-ba5e-2da6825fcc30","meta":{"profile":["http://hl7.org/fhir/us/qicore/StructureDefinition/qicore-location"]},"identifier":[{"use":"usual","system":"http://exampleoflocation.com","value":"B1-S.F2"}],"name":"Medical Surgical East, first floor","type":[{"coding":[{"system":"https://www.cdc.gov/nhsn/cdaportal/terminology/codesystem/hsloc.html","version":"2022","code":"1209-6","display":"Treatment Room","userSelected":true}]}]},"request":{"method":"PUT","url":"Location/2f9c122f-e4ed-4efa-ba5e-2da6825fcc30"}},{"fullUrl":"https://madie.cms.gov/Condition/b0bfa6ee-b4e9-4db9-82db-af6c5de06416","resource":{"resourceType":"Condition","id":"b0bfa6ee-b4e9-4db9-82db-af6c5de06416","meta":{"profile":["http://hl7.org/fhir/us/qicore/StructureDefinition/qicore-condition-encounter-diagnosis"]},"category":[{"coding":[{"system":"http://terminology.hl7.org/CodeSystem/condition-category","code":"encounter-diagnosis","display":"Encounter Diagnosis"}]}],"code":{"coding":[{"system":"http://snomed.info/sct","version":"2023-09","code":"10660471000119109","display":"Ulcer of left foot due to type 2 diabetes mellitus (disorder)","userSelected":true}]},"subject":{"reference":"Patient/5ae9589c-1301-45a0-af30-ac7b679b649f"},"recordedDate":"2027-01-01T08:00:00.000+00:00"},"request":{"method":"PUT","url":"Condition/b0bfa6ee-b4e9-4db9-82db-af6c5de06416"}},{"fullUrl":"https://madie.cms.gov/Location/11765a01-a448-43ca-bcdf-d2cf506311b3","resource":{"resourceType":"Location","id":"11765a01-a448-43ca-bcdf-d2cf506311b3","meta":{"profile":["http://hl7.org/fhir/us/qicore/StructureDefinition/qicore-location"]},"identifier":[{"use":"usual","system":"http://exampleoflocation.com","value":"B1-S.F1"}],"name":"Medical Surgical East, first floor","type":[{"coding":[{"system":"https://www.cdc.gov/nhsn/cdaportal/terminology/codesystem/hsloc.html","version":"2022","code":"1108-0","display":"Emergency Department","userSelected":true}]}]},"request":{"method":"PUT","url":"Location/11765a01-a448-43ca-bcdf-d2cf506311b3"}},{"fullUrl":"https://madie.cms.gov/Location/68197682-ceb2-4197-86a4-10be1aac790a","resource":{"resourceType":"Location","id":"68197682-ceb2-4197-86a4-10be1aac790a","meta":{"profile":["http://hl7.org/fhir/us/qicore/StructureDefinition/qicore-location"]},"identifier":[{"use":"usual","system":"http://exampleoflocation.com","value":"B1-S.F2"}],"name":"Medical Surgical East, first floor","type":[{"coding":[{"system":"https://www.cdc.gov/nhsn/cdaportal/terminology/codesystem/hsloc.html","version":"2022","code":"1209-6","display":"Treatment Room","userSelected":true}]}]},"request":{"method":"PUT","url":"Location/68197682-ceb2-4197-86a4-10be1aac790a"}},{"fullUrl":"https://madie.cms.gov/claim/ClaimBehavior-NotSubsAbuse","resource":{"resourceType":"Claim","id":"ClaimBehavior-NotSubsAbuse","meta":{"profile":["http://hl7.org/fhir/us/qicore/StructureDefinition/qicore-claim"]},"status":"active","type":{"coding":[{"system":"http://terminology.hl7.org/CodeSystem/claim-type","code":"institutional"}]},"use":"claim","patient":{"reference":"Patient/5ae9589c-1301-45a0-af30-ac7b679b649f"},"created":"2027-01-01","provider":{"reference":"Practitioner/7a314a1b-245c-4c3e-97c0-818e10a26641"},"priority":{"coding":[{"system":"http://terminology.hl7.org/CodeSystem/processpriority","code":"normal"}]},"diagnosis":[{"sequence":1,"diagnosisReference":{"reference":"Condition/b0bfa6ee-b4e9-4db9-82db-af6c5de06416"},"type":[{"coding":[{"system":"http://terminology.hl7.org/CodeSystem/ex-diagnosistype","code":"principal"}]}]}],"insurance":[{"sequence":1,"focal":true,"coverage":{"reference":"Coverage/f64141d8-6a0b-4ce3-a898-4eea88bb8dc9"}}],"item":[{"sequence":1,"diagnosisSequence":[1],"productOrService":{"coding":[{"system":"http://terminology.hl7.org/CodeSystem/ex-USCLS","code":"99555"}]},"encounter":[{"reference":"Encounter/0acd1722-7811-45ee-9558-5f59c1cffb83"}]}]},"request":{"method":"PUT","url":"Claim/ClaimBehavior-NotSubsAbuse"}},{"fullUrl":"https://madie.cms.gov/Coverage/f64141d8-6a0b-4ce3-a898-4eea88bb8dc9","resource":{"resourceType":"Coverage","id":"f64141d8-6a0b-4ce3-a898-4eea88bb8dc9","meta":{"profile":["http://hl7.org/fhir/us/qicore/StructureDefinition/qicore-coverage"]},"identifier":[{"type":{"coding":[{"system":"http://terminology.hl7.org/CodeSystem/v2-0203","code":"MB"}]}}],"status":"active","beneficiary":{"reference":"Patient/5ae9589c-1301-45a0-af30-ac7b679b649f"},"relationship":{"coding":[{"system":"http://terminology.hl7.org/CodeSystem/subscriber-relationship","code":"self"}]},"payor":[{"reference":"Organization/63be8f60-ab27-492c-b23a-b31a1f11d636"}]},"request":{"method":"PUT","url":"Coverage/f64141d8-6a0b-4ce3-a898-4eea88bb8dc9"}},{"fullUrl":"https://madie.cms.gov/Organization/63be8f60-ab27-492c-b23a-b31a1f11d636","resource":{"resourceType":"Organization","id":"63be8f60-ab27-492c-b23a-b31a1f11d636","meta":{"profile":["http://hl7.org/fhir/us/qicore/StructureDefinition/qicore-organization"]},"identifier":[{"use":"temp","system":"urn:oid:2.16.840.1.113883.4.4","value":"21-3259825"}],"active":true,"type":[{"coding":[{"system":"http://terminology.hl7.org/CodeSystem/organization-type","code":"pay","display":"Payer"}]}],"name":"Blue Cross Blue Shield of Texas","telecom":[{"system":"phone","value":"(+1) 972-766-6900"}],"address":[{"use":"billing","type":"postal","line":["P.O. Box 660044"],"city":"Dallas","state":"TX","postalCode":"75266-0044","country":"USA"}]},"request":{"method":"PUT","url":"Organization/63be8f60-ab27-492c-b23a-b31a1f11d636"}},{"fullUrl":"https://madie.cms.gov/Practitioner/7a314a1b-245c-4c3e-97c0-818e10a26641","resource":{"resourceType":"Practitioner","id":"7a314a1b-245c-4c3e-97c0-818e10a26641","meta":{"profile":["http://hl7.org/fhir/us/qicore/StructureDefinition/qicore-practitioner"]},"identifier":[{"system":"http://hl7.org/fhir/sid/us-npi","value":"9999999896"}],"name":[{"family":"Evil","prefix":["Dr"]}]},"request":{"method":"PUT","url":"Practitioner/7a314a1b-245c-4c3e-97c0-818e10a26641"}},{"fullUrl":"https://madie.cms.gov/MeasureReport/324153f2-b7df-403c-b4c5-327144eeab64","resource":{"resourceType":"MeasureReport","id":"324153f2-b7df-403c-b4c5-327144eeab64","meta":{"profile":["http://hl7.org/fhir/us/cqfmeasures/StructureDefinition/test-case-cqfm"]},"contained":[{"resourceType":"Parameters","id":"640cd118-52be-4f9e-84d0-ff01a4c0ac25-parameters","parameter":[{"name":"subject","valueString":"5ae9589c-1301-45a0-af30-ac7b679b649f"}]}],"extension":[{"url":"http://hl7.org/fhir/StructureDefinition/cqf-inputParameters","valueReference":{"reference":"#640cd118-52be-4f9e-84d0-ff01a4c0ac25-parameters"}},{"url":"http://hl7.org/fhir/us/cqfmeasures/StructureDefinition/cqfm-testCaseDescription","valueMarkdown":"Adult, age 18, Encounter first day of MP, time to treatment 61 minutes, no mental illness"}],"modifierExtension":[{"url":"http://hl7.org/fhir/us/cqfmeasures/StructureDefinition/cqfm-isTestCase","valueBoolean":true}],"status":"complete","type":"individual","measure":"https://madie.cms.gov/Measure/CMS1244FHIRECATHOQR","period":{"start":"2027-01-01","end":"2027-12-31"},"group":[{"id":"Group_1","population":[{"id":"InitialPopulation_1","code":{"coding":[{"system":"http://terminology.hl7.org/CodeSystem/measure-population","code":"initial-population","display":"Initial Population"}]},"count":1},{"id":"Denominator_1","code":{"coding":[{"system":"http://terminology.hl7.org/CodeSystem/measure-population","code":"denominator","display":"Denominator"}]},"count":1},{"id":"Numerator_1","code":{"coding":[{"system":"http://terminology.hl7.org/CodeSystem/measure-population","code":"numerator","display":"Numerator"}]},"count":1}],"measureScore":{"value":0.0},"stratifier":[{"id":"Stratification_1_1","code":[{"text":"Strata-1"}],"stratum":[{"value":{"text":"Strata-1"},"population":[{"id":"InitialPopulation_1","code":{"coding":[{"system":"http://terminology.hl7.org/CodeSystem/measure-population","code":"initial-population","display":"Initial Population"}]},"count":0},{"id":"Denominator_1","code":{"coding":[{"system":"http://terminology.hl7.org/CodeSystem/measure-population","code":"denominator","display":"Denominator"}]},"count":0},{"id":"Numerator_1","code":{"coding":[{"system":"http://terminology.hl7.org/CodeSystem/measure-population","code":"numerator","display":"Numerator"}]},"count":0}]}]},{"id":"Stratification_1_2","code":[{"text":"Strata-2"}],"stratum":[{"value":{"text":"Strata-2"},"population":[{"id":"InitialPopulation_1","code":{"coding":[{"system":"http://terminology.hl7.org/CodeSystem/measure-population","code":"initial-population","display":"Initial Population"}]},"count":1},{"id":"Denominator_1","code":{"coding":[{"system":"http://terminology.hl7.org/CodeSystem/measure-population","code":"denominator","display":"Denominator"}]},"count":1},{"id":"Numerator_1","code":{"coding":[{"system":"http://terminology.hl7.org/CodeSystem/measure-population","code":"numerator","display":"Numerator"}]},"count":1}]}]},{"id":"Stratification_1_3","code":[{"text":"Strata-3"}],"stratum":[{"value":{"text":"Strata-3"},"population":[{"id":"InitialPopulation_1","code":{"coding":[{"system":"http://terminology.hl7.org/CodeSystem/measure-population","code":"initial-population","display":"Initial Population"}]},"count":0},{"id":"Denominator_1","code":{"coding":[{"system":"http://terminology.hl7.org/CodeSystem/measure-population","code":"denominator","display":"Denominator"}]},"count":0},{"id":"Numerator_1","code":{"coding":[{"system":"http://terminology.hl7.org/CodeSystem/measure-population","code":"numerator","display":"Numerator"}]},"count":0}]}]},{"id":"Stratification_1_4","code":[{"text":"Strata-4"}],"stratum":[{"value":{"text":"Strata-4"},"population":[{"id":"InitialPopulation_1","code":{"coding":[{"system":"http://terminology.hl7.org/CodeSystem/measure-population","code":"initial-population","display":"Initial Population"}]},"count":0},{"id":"Denominator_1","code":{"coding":[{"system":"http://terminology.hl7.org/CodeSystem/measure-population","code":"denominator","display":"Denominator"}]},"count":0},{"id":"Numerator_1","code":{"coding":[{"system":"http://terminology.hl7.org/CodeSystem/measure-population","code":"numerator","display":"Numerator"}]},"count":0}]}]}]}],"evaluatedResource":[{"reference":"Patient/5ae9589c-1301-45a0-af30-ac7b679b649f"},{"reference":"Encounter/0acd1722-7811-45ee-9558-5f59c1cffb83"},{"reference":"Location/08ff938c-06cd-4d27-bcbe-7c7a1622a01a"},{"reference":"Location/2f9c122f-e4ed-4efa-ba5e-2da6825fcc30"},{"reference":"Condition/b0bfa6ee-b4e9-4db9-82db-af6c5de06416"},{"reference":"Location/11765a01-a448-43ca-bcdf-d2cf506311b3"},{"reference":"Location/68197682-ceb2-4197-86a4-10be1aac790a"},{"reference":"Claim/ClaimBehavior-NotSubsAbuse"},{"reference":"Coverage/f64141d8-6a0b-4ce3-a898-4eea88bb8dc9"},{"reference":"Organization/63be8f60-ab27-492c-b23a-b31a1f11d636"},{"reference":"Practitioner/7a314a1b-245c-4c3e-97c0-818e10a26641"}]},"request":{"method":"PUT","url":"MeasureReport/324153f2-b7df-403c-b4c5-327144eeab64"}}]},"request":{"method":"PUT","url":"Bundle/661579e3db207d74c03b8a54"}},{"resource":{"resourceType":"Location","id":"2f9c122f-e4ed-4efa-ba5e-2da6825fcc30","meta":{"profile":["http://hl7.org/fhir/us/qicore/StructureDefinition/qicore-location"]},"identifier":[{"use":"usual","system":"http://exampleoflocation.com","value":"B1-S.F2"}],"name":"Medical Surgical East, first floor","type":[{"coding":[{"system":"https://www.cdc.gov/nhsn/cdaportal/terminology/codesystem/hsloc.html","version":"2022","code":"1209-6","display":"Treatment Room","userSelected":true}]}]},"request":{"method":"PUT","url":"Location/2f9c122f-e4ed-4efa-ba5e-2da6825fcc30"}}]}