{"resourceType":"Bundle","id":"tests-aeb81393-d181-487a-9bc5-923c7082104e-bundle","type":"transaction","entry":[{"resource":{"resourceType":"Coverage","id":"99cfe36a-84bd-4bbf-8f0d-d43288a69100","meta":{"profile":["http://hl7.org/fhir/us/qicore/StructureDefinition/qicore-coverage"]},"identifier":[{"type":{"coding":[{"system":"http://terminology.hl7.org/CodeSystem/v2-0203","code":"MB"}]}}],"status":"active","beneficiary":{"reference":"Patient/aeb81393-d181-487a-9bc5-923c7082104e"},"relationship":{"coding":[{"system":"http://terminology.hl7.org/CodeSystem/subscriber-relationship","code":"self"}]},"payor":[{"reference":"Organization/9ca3a51e-fd56-41d1-8928-444a6ff4bd33"}]},"request":{"method":"PUT","url":"Coverage/99cfe36a-84bd-4bbf-8f0d-d43288a69100"}},{"resource":{"resourceType":"Encounter","id":"1cdf3ade-2632-4e81-8443-5890d63e4110","meta":{"profile":["http://hl7.org/fhir/us/qicore/StructureDefinition/qicore-encounter"]},"status":"finished","class":{"system":"http://terminology.hl7.org/CodeSystem/v3-ActCode","code":"AMB","display":"ambulatory"},"type":[{"coding":[{"system":"http://snomed.info/sct","version":"2023-09","code":"4525004","display":"Emergency department patient visit (procedure)","userSelected":true}]}],"subject":{"reference":"Patient/aeb81393-d181-487a-9bc5-923c7082104e"},"period":{"start":"2027-05-01T00:00:00.000+00:00","end":"2027-05-01T04:00:00.000+00:00"},"diagnosis":[{"condition":{"reference":"Condition/380f09bd-e301-4bf3-ba97-90572859a496"},"use":{"coding":[{"system":"http://terminology.hl7.org/CodeSystem/diagnosis-role","code":"billing"}]},"rank":1}],"location":[{"location":{"reference":"Location/2ef33b76-82c9-4562-9a93-f200277aebb9"},"period":{"start":"2027-05-01T00:00:00.000+00:00","end":"2027-05-01T05:01:00.000+00:00"}}]},"request":{"method":"PUT","url":"Encounter/1cdf3ade-2632-4e81-8443-5890d63e4110"}},{"resource":{"resourceType":"ServiceRequest","id":"4249344c-8155-4397-a1bb-e7236d3647fe","meta":{"profile":["http://hl7.org/fhir/us/qicore/StructureDefinition/qicore-servicerequest"]},"status":"active","intent":"order","code":{"coding":[{"system":"http://snomed.info/sct","code":"5751000175101","display":"Patient bed assigned (finding)","userSelected":true}]},"subject":{"reference":"Patient/aeb81393-d181-487a-9bc5-923c7082104e"},"authoredOn":"2027-05-01T01:00:00.000+00:00"},"request":{"method":"PUT","url":"ServiceRequest/4249344c-8155-4397-a1bb-e7236d3647fe"}},{"resource":{"resourceType":"ServiceRequest","id":"4f2cde3b-bb53-4b97-b1ef-1ecbbe3ec4c3","meta":{"profile":["http://hl7.org/fhir/us/qicore/StructureDefinition/qicore-servicerequest"]},"status":"active","intent":"order","code":{"coding":[{"system":"http://snomed.info/sct","version":"2023-09","code":"183452005","display":"Emergency hospital admission (procedure)","userSelected":true}]},"subject":{"reference":"Patient/aeb81393-d181-487a-9bc5-923c7082104e"},"authoredOn":"2027-05-01T01:00:00.000+00:00"},"request":{"method":"PUT","url":"ServiceRequest/4f2cde3b-bb53-4b97-b1ef-1ecbbe3ec4c3"}},{"resource":{"resourceType":"Encounter","id":"2b4842d9-5979-4f7a-9d08-8992033aba85","meta":{"profile":["http://hl7.org/fhir/us/qicore/StructureDefinition/qicore-encounter"]},"status":"finished","class":{"system":"http://terminology.hl7.org/CodeSystem/v3-ActCode","code":"IMP","display":"inpatient encounter"},"type":[{"coding":[{"system":"http://snomed.info/sct","version":"2023-09","code":"183452005","display":"Emergency hospital admission (procedure)","userSelected":true}]}],"subject":{"reference":"Patient/aeb81393-d181-487a-9bc5-923c7082104e"},"period":{"start":"2027-05-01T05:00:00.000+00:00","end":"2027-05-03T06:15:00.000+00:00"}},"request":{"method":"PUT","url":"Encounter/2b4842d9-5979-4f7a-9d08-8992033aba85"}},{"resource":{"resourceType":"Bundle","id":"6617e30316793f5a4fae16fe","type":"transaction","entry":[{"fullUrl":"https://madie.cms.gov/Patient/aeb81393-d181-487a-9bc5-923c7082104e","resource":{"resourceType":"Patient","id":"aeb81393-d181-487a-9bc5-923c7082104e","meta":{"profile":["http://hl7.org/fhir/us/qicore/StructureDefinition/qicore-patient"]},"extension":[{"url":"http://hl7.org/fhir/us/core/StructureDefinition/us-core-race","extension":[{"url":"ombCategory","valueCoding":{"system":"urn:oid:2.16.840.1.113883.6.238","code":"1002-5","display":"American Indian or Alaska Native","userSelected":true}},{"url":"text","valueString":"American Indian or Alaska Native"}]},{"url":"http://hl7.org/fhir/us/core/StructureDefinition/us-core-ethnicity","extension":[{"url":"ombCategory","valueCoding":{"system":"urn:oid:2.16.840.1.113883.6.238","code":"2135-2","display":"Hispanic or Latino","userSelected":true}},{"url":"text","valueString":"Hispanic or Latino"}]},{"url":"http://hl7.org/fhir/us/core/StructureDefinition/us-core-sex","valueCode":"248153007"}],"identifier":[{"type":{"coding":[{"system":"http://terminology.hl7.org/CodeSystem/v2-0203","code":"MR"}]},"system":"https://bonnie-fhir.healthit.gov/","value":"6617e30316793f5a4fae16fe"}],"name":[{"family":"NUMERStrat1Pass","given":["BedAssigment"]}],"gender":"male","birthDate":"2011-01-01"},"request":{"method":"PUT","url":"Patient/aeb81393-d181-487a-9bc5-923c7082104e"}},{"fullUrl":"https://madie.cms.gov/Encounter/1cdf3ade-2632-4e81-8443-5890d63e4110","resource":{"resourceType":"Encounter","id":"1cdf3ade-2632-4e81-8443-5890d63e4110","meta":{"profile":["http://hl7.org/fhir/us/qicore/StructureDefinition/qicore-encounter"]},"status":"finished","class":{"system":"http://terminology.hl7.org/CodeSystem/v3-ActCode","code":"AMB","display":"ambulatory"},"type":[{"coding":[{"system":"http://snomed.info/sct","version":"2023-09","code":"4525004","display":"Emergency department patient visit (procedure)","userSelected":true}]}],"subject":{"reference":"Patient/aeb81393-d181-487a-9bc5-923c7082104e"},"period":{"start":"2027-05-01T00:00:00.000+00:00","end":"2027-05-01T04:00:00.000+00:00"},"diagnosis":[{"condition":{"reference":"Condition/380f09bd-e301-4bf3-ba97-90572859a496"},"use":{"coding":[{"system":"http://terminology.hl7.org/CodeSystem/diagnosis-role","code":"billing"}]},"rank":1}],"location":[{"location":{"reference":"Location/2ef33b76-82c9-4562-9a93-f200277aebb9"},"period":{"start":"2027-05-01T00:00:00.000+00:00","end":"2027-05-01T05:01:00.000+00:00"}}]},"request":{"method":"PUT","url":"Encounter/1cdf3ade-2632-4e81-8443-5890d63e4110"}},{"fullUrl":"https://madie.cms.gov/Location/2ef33b76-82c9-4562-9a93-f200277aebb9","resource":{"resourceType":"Location","id":"2ef33b76-82c9-4562-9a93-f200277aebb9","meta":{"profile":["http://hl7.org/fhir/us/qicore/StructureDefinition/qicore-location"]},"identifier":[{"use":"usual","system":"http://exampleoflocation.com","value":"B1-S.F2"}],"name":"Medical Surgical East, first floor","type":[{"coding":[{"system":"https://www.cdc.gov/nhsn/cdaportal/terminology/codesystem/hsloc.html","version":"2022","code":"1108-0","display":"Emergency Department","userSelected":true}]}]},"request":{"method":"PUT","url":"Location/2ef33b76-82c9-4562-9a93-f200277aebb9"}},{"fullUrl":"https://madie.cms.gov/ServiceRequest/4249344c-8155-4397-a1bb-e7236d3647fe","resource":{"resourceType":"ServiceRequest","id":"4249344c-8155-4397-a1bb-e7236d3647fe","meta":{"profile":["http://hl7.org/fhir/us/qicore/StructureDefinition/qicore-servicerequest"]},"status":"active","intent":"order","code":{"coding":[{"system":"http://snomed.info/sct","code":"5751000175101","display":"Patient bed assigned (finding)","userSelected":true}]},"subject":{"reference":"Patient/aeb81393-d181-487a-9bc5-923c7082104e"},"authoredOn":"2027-05-01T01:00:00.000+00:00"},"request":{"method":"PUT","url":"ServiceRequest/4249344c-8155-4397-a1bb-e7236d3647fe"}},{"fullUrl":"https://madie.cms.gov/Condition/380f09bd-e301-4bf3-ba97-90572859a496","resource":{"resourceType":"Condition","id":"380f09bd-e301-4bf3-ba97-90572859a496","meta":{"profile":["http://hl7.org/fhir/us/qicore/StructureDefinition/qicore-condition-encounter-diagnosis"]},"category":[{"coding":[{"system":"http://terminology.hl7.org/CodeSystem/condition-category","code":"encounter-diagnosis","display":"Encounter Diagnosis"}]}],"code":{"coding":[{"system":"http://snomed.info/sct","version":"2023-09","code":"10660471000119109","display":"Ulcer of left foot due to type 2 diabetes mellitus (disorder)","userSelected":true}]},"subject":{"reference":"Patient/aeb81393-d181-487a-9bc5-923c7082104e"},"recordedDate":"2027-05-01T08:00:00.000+00:00"},"request":{"method":"PUT","url":"Condition/380f09bd-e301-4bf3-ba97-90572859a496"}},{"fullUrl":"https://madie.cms.gov/ServiceRequest/4f2cde3b-bb53-4b97-b1ef-1ecbbe3ec4c3","resource":{"resourceType":"ServiceRequest","id":"4f2cde3b-bb53-4b97-b1ef-1ecbbe3ec4c3","meta":{"profile":["http://hl7.org/fhir/us/qicore/StructureDefinition/qicore-servicerequest"]},"status":"active","intent":"order","code":{"coding":[{"system":"http://snomed.info/sct","version":"2023-09","code":"183452005","display":"Emergency hospital admission (procedure)","userSelected":true}]},"subject":{"reference":"Patient/aeb81393-d181-487a-9bc5-923c7082104e"},"authoredOn":"2027-05-01T01:00:00.000+00:00"},"request":{"method":"PUT","url":"ServiceRequest/4f2cde3b-bb53-4b97-b1ef-1ecbbe3ec4c3"}},{"fullUrl":"https://madie.cms.gov/Coverage/99cfe36a-84bd-4bbf-8f0d-d43288a69100","resource":{"resourceType":"Coverage","id":"99cfe36a-84bd-4bbf-8f0d-d43288a69100","meta":{"profile":["http://hl7.org/fhir/us/qicore/StructureDefinition/qicore-coverage"]},"identifier":[{"type":{"coding":[{"system":"http://terminology.hl7.org/CodeSystem/v2-0203","code":"MB"}]}}],"status":"active","beneficiary":{"reference":"Patient/aeb81393-d181-487a-9bc5-923c7082104e"},"relationship":{"coding":[{"system":"http://terminology.hl7.org/CodeSystem/subscriber-relationship","code":"self"}]},"payor":[{"reference":"Organization/9ca3a51e-fd56-41d1-8928-444a6ff4bd33"}]},"request":{"method":"PUT","url":"Coverage/99cfe36a-84bd-4bbf-8f0d-d43288a69100"}},{"fullUrl":"https://madie.cms.gov/Encounter/2b4842d9-5979-4f7a-9d08-8992033aba85","resource":{"resourceType":"Encounter","id":"2b4842d9-5979-4f7a-9d08-8992033aba85","meta":{"profile":["http://hl7.org/fhir/us/qicore/StructureDefinition/qicore-encounter"]},"status":"finished","class":{"system":"http://terminology.hl7.org/CodeSystem/v3-ActCode","code":"IMP","display":"inpatient encounter"},"type":[{"coding":[{"system":"http://snomed.info/sct","version":"2023-09","code":"183452005","display":"Emergency hospital admission (procedure)","userSelected":true}]}],"subject":{"reference":"Patient/aeb81393-d181-487a-9bc5-923c7082104e"},"period":{"start":"2027-05-01T05:00:00.000+00:00","end":"2027-05-03T06:15:00.000+00:00"}},"request":{"method":"PUT","url":"Encounter/2b4842d9-5979-4f7a-9d08-8992033aba85"}},{"fullUrl":"https://madie.cms.gov/claim/ClaimBehavior-NotSubsAbuse","resource":{"resourceType":"Claim","id":"ClaimBehavior-NotSubsAbuse","meta":{"profile":["http://hl7.org/fhir/us/qicore/StructureDefinition/qicore-claim"]},"status":"active","type":{"coding":[{"system":"http://terminology.hl7.org/CodeSystem/claim-type","code":"institutional"}]},"use":"claim","patient":{"reference":"Patient/aeb81393-d181-487a-9bc5-923c7082104e"},"created":"2027-05-01","provider":{"reference":"Practitioner/7f7ddf14-0696-4371-a5fa-1ea2951716f4"},"priority":{"coding":[{"system":"http://terminology.hl7.org/CodeSystem/processpriority","code":"normal"}]},"diagnosis":[{"sequence":1,"diagnosisReference":{"reference":"Condition/380f09bd-e301-4bf3-ba97-90572859a496"},"type":[{"coding":[{"system":"http://terminology.hl7.org/CodeSystem/ex-diagnosistype","code":"principal"}]}]}],"insurance":[{"sequence":1,"focal":true,"coverage":{"reference":"Coverage/99cfe36a-84bd-4bbf-8f0d-d43288a69100"}}],"item":[{"sequence":1,"diagnosisSequence":[1],"productOrService":{"coding":[{"system":"http://terminology.hl7.org/CodeSystem/ex-USCLS","code":"99555"}]},"encounter":[{"reference":"Encounter/1cdf3ade-2632-4e81-8443-5890d63e4110"}]}]},"request":{"method":"PUT","url":"Claim/ClaimBehavior-NotSubsAbuse"}},{"fullUrl":"https://madie.cms.gov/Organization/9ca3a51e-fd56-41d1-8928-444a6ff4bd33","resource":{"resourceType":"Organization","id":"9ca3a51e-fd56-41d1-8928-444a6ff4bd33","meta":{"profile":["http://hl7.org/fhir/us/qicore/StructureDefinition/qicore-organization"]},"identifier":[{"use":"temp","system":"urn:oid:2.16.840.1.113883.4.4","value":"21-3259825"}],"active":true,"type":[{"coding":[{"system":"http://terminology.hl7.org/CodeSystem/organization-type","code":"pay","display":"Payer"}]}],"name":"Blue Cross Blue Shield of Texas","telecom":[{"system":"phone","value":"(+1) 972-766-6900"}],"address":[{"use":"billing","type":"postal","line":["P.O. Box 660044"],"city":"Dallas","state":"TX","postalCode":"75266-0044","country":"USA"}]},"request":{"method":"PUT","url":"Organization/9ca3a51e-fd56-41d1-8928-444a6ff4bd33"}},{"fullUrl":"https://madie.cms.gov/Practitioner/7f7ddf14-0696-4371-a5fa-1ea2951716f4","resource":{"resourceType":"Practitioner","id":"7f7ddf14-0696-4371-a5fa-1ea2951716f4","meta":{"profile":["http://hl7.org/fhir/us/qicore/StructureDefinition/qicore-practitioner"]},"identifier":[{"system":"http://hl7.org/fhir/sid/us-npi","value":"9999999896"}],"name":[{"family":"Evil","prefix":["Dr"]}]},"request":{"method":"PUT","url":"Practitioner/7f7ddf14-0696-4371-a5fa-1ea2951716f4"}},{"fullUrl":"https://madie.cms.gov/MeasureReport/51f7971a-5611-419a-812b-511cfa560bd7","resource":{"resourceType":"MeasureReport","id":"51f7971a-5611-419a-812b-511cfa560bd7","meta":{"profile":["http://hl7.org/fhir/us/cqfmeasures/StructureDefinition/test-case-cqfm"]},"contained":[{"resourceType":"Parameters","id":"fb712352-8f66-4fd1-b6f7-9930e8507d63-parameters","parameter":[{"name":"subject","valueString":"aeb81393-d181-487a-9bc5-923c7082104e"}]}],"extension":[{"url":"http://hl7.org/fhir/StructureDefinition/cqf-inputParameters","valueReference":{"reference":"#fb712352-8f66-4fd1-b6f7-9930e8507d63-parameters"}},{"url":"http://hl7.org/fhir/us/cqfmeasures/StructureDefinition/cqfm-testCaseDescription","valueMarkdown":"Child ED, order to admit inpt and inpatient  encounter,  bed assignment 241 mins before ED departure with psych "}],"modifierExtension":[{"url":"http://hl7.org/fhir/us/cqfmeasures/StructureDefinition/cqfm-isTestCase","valueBoolean":true}],"status":"complete","type":"individual","measure":"https://madie.cms.gov/Measure/CMS1244FHIRECATHOQR","period":{"start":"2027-01-01","end":"2027-12-31"},"group":[{"id":"Group_1","population":[{"id":"InitialPopulation_1","code":{"coding":[{"system":"http://terminology.hl7.org/CodeSystem/measure-population","code":"initial-population","display":"Initial Population"}]},"count":1},{"id":"Denominator_1","code":{"coding":[{"system":"http://terminology.hl7.org/CodeSystem/measure-population","code":"denominator","display":"Denominator"}]},"count":1},{"id":"Numerator_1","code":{"coding":[{"system":"http://terminology.hl7.org/CodeSystem/measure-population","code":"numerator","display":"Numerator"}]},"count":1}],"measureScore":{"value":0.0},"stratifier":[{"id":"Stratification_1_1","code":[{"text":"Strata-1"}],"stratum":[{"value":{"text":"Strata-1"},"population":[{"id":"InitialPopulation_1","code":{"coding":[{"system":"http://terminology.hl7.org/CodeSystem/measure-population","code":"initial-population","display":"Initial Population"}]},"count":1},{"id":"Denominator_1","code":{"coding":[{"system":"http://terminology.hl7.org/CodeSystem/measure-population","code":"denominator","display":"Denominator"}]},"count":1},{"id":"Numerator_1","code":{"coding":[{"system":"http://terminology.hl7.org/CodeSystem/measure-population","code":"numerator","display":"Numerator"}]},"count":1}]}]},{"id":"Stratification_1_2","code":[{"text":"Strata-2"}],"stratum":[{"value":{"text":"Strata-2"},"population":[{"id":"InitialPopulation_1","code":{"coding":[{"system":"http://terminology.hl7.org/CodeSystem/measure-population","code":"initial-population","display":"Initial Population"}]},"count":0},{"id":"Denominator_1","code":{"coding":[{"system":"http://terminology.hl7.org/CodeSystem/measure-population","code":"denominator","display":"Denominator"}]},"count":0},{"id":"Numerator_1","code":{"coding":[{"system":"http://terminology.hl7.org/CodeSystem/measure-population","code":"numerator","display":"Numerator"}]},"count":0}]}]},{"id":"Stratification_1_3","code":[{"text":"Strata-3"}],"stratum":[{"value":{"text":"Strata-3"},"population":[{"id":"InitialPopulation_1","code":{"coding":[{"system":"http://terminology.hl7.org/CodeSystem/measure-population","code":"initial-population","display":"Initial Population"}]},"count":0},{"id":"Denominator_1","code":{"coding":[{"system":"http://terminology.hl7.org/CodeSystem/measure-population","code":"denominator","display":"Denominator"}]},"count":0},{"id":"Numerator_1","code":{"coding":[{"system":"http://terminology.hl7.org/CodeSystem/measure-population","code":"numerator","display":"Numerator"}]},"count":0}]}]},{"id":"Stratification_1_4","code":[{"text":"Strata-4"}],"stratum":[{"value":{"text":"Strata-4"},"population":[{"id":"InitialPopulation_1","code":{"coding":[{"system":"http://terminology.hl7.org/CodeSystem/measure-population","code":"initial-population","display":"Initial Population"}]},"count":0},{"id":"Denominator_1","code":{"coding":[{"system":"http://terminology.hl7.org/CodeSystem/measure-population","code":"denominator","display":"Denominator"}]},"count":0},{"id":"Numerator_1","code":{"coding":[{"system":"http://terminology.hl7.org/CodeSystem/measure-population","code":"numerator","display":"Numerator"}]},"count":0}]}]}]}],"evaluatedResource":[{"reference":"Patient/aeb81393-d181-487a-9bc5-923c7082104e"},{"reference":"Encounter/1cdf3ade-2632-4e81-8443-5890d63e4110"},{"reference":"Location/2ef33b76-82c9-4562-9a93-f200277aebb9"},{"reference":"ServiceRequest/4249344c-8155-4397-a1bb-e7236d3647fe"},{"reference":"Condition/380f09bd-e301-4bf3-ba97-90572859a496"},{"reference":"ServiceRequest/4f2cde3b-bb53-4b97-b1ef-1ecbbe3ec4c3"},{"reference":"Coverage/99cfe36a-84bd-4bbf-8f0d-d43288a69100"},{"reference":"Encounter/2b4842d9-5979-4f7a-9d08-8992033aba85"},{"reference":"Claim/ClaimBehavior-NotSubsAbuse"},{"reference":"Organization/9ca3a51e-fd56-41d1-8928-444a6ff4bd33"},{"reference":"Practitioner/7f7ddf14-0696-4371-a5fa-1ea2951716f4"}]},"request":{"method":"PUT","url":"MeasureReport/51f7971a-5611-419a-812b-511cfa560bd7"}}]},"request":{"method":"PUT","url":"Bundle/6617e30316793f5a4fae16fe"}},{"resource":{"resourceType":"Organization","id":"9ca3a51e-fd56-41d1-8928-444a6ff4bd33","meta":{"profile":["http://hl7.org/fhir/us/qicore/StructureDefinition/qicore-organization"]},"identifier":[{"use":"temp","system":"urn:oid:2.16.840.1.113883.4.4","value":"21-3259825"}],"active":true,"type":[{"coding":[{"system":"http://terminology.hl7.org/CodeSystem/organization-type","code":"pay","display":"Payer"}]}],"name":"Blue Cross Blue Shield of Texas","telecom":[{"system":"phone","value":"(+1) 972-766-6900"}],"address":[{"use":"billing","type":"postal","line":["P.O. Box 660044"],"city":"Dallas","state":"TX","postalCode":"75266-0044","country":"USA"}]},"request":{"method":"PUT","url":"Organization/9ca3a51e-fd56-41d1-8928-444a6ff4bd33"}},{"resource":{"resourceType":"Practitioner","id":"7f7ddf14-0696-4371-a5fa-1ea2951716f4","meta":{"profile":["http://hl7.org/fhir/us/qicore/StructureDefinition/qicore-practitioner"]},"identifier":[{"system":"http://hl7.org/fhir/sid/us-npi","value":"9999999896"}],"name":[{"family":"Evil","prefix":["Dr"]}]},"request":{"method":"PUT","url":"Practitioner/7f7ddf14-0696-4371-a5fa-1ea2951716f4"}},{"resource":{"resourceType":"Condition","id":"380f09bd-e301-4bf3-ba97-90572859a496","meta":{"profile":["http://hl7.org/fhir/us/qicore/StructureDefinition/qicore-condition-encounter-diagnosis"]},"category":[{"coding":[{"system":"http://terminology.hl7.org/CodeSystem/condition-category","code":"encounter-diagnosis","display":"Encounter Diagnosis"}]}],"code":{"coding":[{"system":"http://snomed.info/sct","version":"2023-09","code":"10660471000119109","display":"Ulcer of left foot due to type 2 diabetes mellitus (disorder)","userSelected":true}]},"subject":{"reference":"Patient/aeb81393-d181-487a-9bc5-923c7082104e"},"recordedDate":"2027-05-01T08:00:00.000+00:00"},"request":{"method":"PUT","url":"Condition/380f09bd-e301-4bf3-ba97-90572859a496"}},{"resource":{"resourceType":"MeasureReport","id":"51f7971a-5611-419a-812b-511cfa560bd7","meta":{"profile":["http://hl7.org/fhir/us/cqfmeasures/StructureDefinition/test-case-cqfm"]},"contained":[{"resourceType":"Parameters","id":"fb712352-8f66-4fd1-b6f7-9930e8507d63-parameters","parameter":[{"name":"subject","valueString":"aeb81393-d181-487a-9bc5-923c7082104e"}]}],"extension":[{"url":"http://hl7.org/fhir/StructureDefinition/cqf-inputParameters","valueReference":{"reference":"#fb712352-8f66-4fd1-b6f7-9930e8507d63-parameters"}},{"url":"http://hl7.org/fhir/us/cqfmeasures/StructureDefinition/cqfm-testCaseDescription","valueMarkdown":"Child ED, order to admit inpt and inpatient  encounter,  bed assignment 241 mins before ED departure with psych "}],"modifierExtension":[{"url":"http://hl7.org/fhir/us/cqfmeasures/StructureDefinition/cqfm-isTestCase","valueBoolean":true}],"status":"complete","type":"individual","measure":"https://madie.cms.gov/Measure/CMS1244FHIRECATHOQR","period":{"start":"2027-01-01","end":"2027-12-31"},"group":[{"id":"Group_1","population":[{"id":"InitialPopulation_1","code":{"coding":[{"system":"http://terminology.hl7.org/CodeSystem/measure-population","code":"initial-population","display":"Initial Population"}]},"count":1},{"id":"Denominator_1","code":{"coding":[{"system":"http://terminology.hl7.org/CodeSystem/measure-population","code":"denominator","display":"Denominator"}]},"count":1},{"id":"Numerator_1","code":{"coding":[{"system":"http://terminology.hl7.org/CodeSystem/measure-population","code":"numerator","display":"Numerator"}]},"count":1}],"measureScore":{"value":0.0},"stratifier":[{"id":"Stratification_1_1","code":[{"text":"Strata-1"}],"stratum":[{"value":{"text":"Strata-1"},"population":[{"id":"InitialPopulation_1","code":{"coding":[{"system":"http://terminology.hl7.org/CodeSystem/measure-population","code":"initial-population","display":"Initial Population"}]},"count":1},{"id":"Denominator_1","code":{"coding":[{"system":"http://terminology.hl7.org/CodeSystem/measure-population","code":"denominator","display":"Denominator"}]},"count":1},{"id":"Numerator_1","code":{"coding":[{"system":"http://terminology.hl7.org/CodeSystem/measure-population","code":"numerator","display":"Numerator"}]},"count":1}]}]},{"id":"Stratification_1_2","code":[{"text":"Strata-2"}],"stratum":[{"value":{"text":"Strata-2"},"population":[{"id":"InitialPopulation_1","code":{"coding":[{"system":"http://terminology.hl7.org/CodeSystem/measure-population","code":"initial-population","display":"Initial Population"}]},"count":0},{"id":"Denominator_1","code":{"coding":[{"system":"http://terminology.hl7.org/CodeSystem/measure-population","code":"denominator","display":"Denominator"}]},"count":0},{"id":"Numerator_1","code":{"coding":[{"system":"http://terminology.hl7.org/CodeSystem/measure-population","code":"numerator","display":"Numerator"}]},"count":0}]}]},{"id":"Stratification_1_3","code":[{"text":"Strata-3"}],"stratum":[{"value":{"text":"Strata-3"},"population":[{"id":"InitialPopulation_1","code":{"coding":[{"system":"http://terminology.hl7.org/CodeSystem/measure-population","code":"initial-population","display":"Initial Population"}]},"count":0},{"id":"Denominator_1","code":{"coding":[{"system":"http://terminology.hl7.org/CodeSystem/measure-population","code":"denominator","display":"Denominator"}]},"count":0},{"id":"Numerator_1","code":{"coding":[{"system":"http://terminology.hl7.org/CodeSystem/measure-population","code":"numerator","display":"Numerator"}]},"count":0}]}]},{"id":"Stratification_1_4","code":[{"text":"Strata-4"}],"stratum":[{"value":{"text":"Strata-4"},"population":[{"id":"InitialPopulation_1","code":{"coding":[{"system":"http://terminology.hl7.org/CodeSystem/measure-population","code":"initial-population","display":"Initial Population"}]},"count":0},{"id":"Denominator_1","code":{"coding":[{"system":"http://terminology.hl7.org/CodeSystem/measure-population","code":"denominator","display":"Denominator"}]},"count":0},{"id":"Numerator_1","code":{"coding":[{"system":"http://terminology.hl7.org/CodeSystem/measure-population","code":"numerator","display":"Numerator"}]},"count":0}]}]}]}],"evaluatedResource":[{"reference":"Patient/aeb81393-d181-487a-9bc5-923c7082104e"},{"reference":"Encounter/1cdf3ade-2632-4e81-8443-5890d63e4110"},{"reference":"Location/2ef33b76-82c9-4562-9a93-f200277aebb9"},{"reference":"ServiceRequest/4249344c-8155-4397-a1bb-e7236d3647fe"},{"reference":"Condition/380f09bd-e301-4bf3-ba97-90572859a496"},{"reference":"ServiceRequest/4f2cde3b-bb53-4b97-b1ef-1ecbbe3ec4c3"},{"reference":"Coverage/99cfe36a-84bd-4bbf-8f0d-d43288a69100"},{"reference":"Encounter/2b4842d9-5979-4f7a-9d08-8992033aba85"},{"reference":"Claim/ClaimBehavior-NotSubsAbuse"},{"reference":"Organization/9ca3a51e-fd56-41d1-8928-444a6ff4bd33"},{"reference":"Practitioner/7f7ddf14-0696-4371-a5fa-1ea2951716f4"}]},"request":{"method":"PUT","url":"MeasureReport/51f7971a-5611-419a-812b-511cfa560bd7"}},{"resource":{"resourceType":"Claim","id":"ClaimBehavior-NotSubsAbuse","meta":{"profile":["http://hl7.org/fhir/us/qicore/StructureDefinition/qicore-claim"]},"status":"active","type":{"coding":[{"system":"http://terminology.hl7.org/CodeSystem/claim-type","code":"institutional"}]},"use":"claim","patient":{"reference":"Patient/aeb81393-d181-487a-9bc5-923c7082104e"},"created":"2027-05-01","provider":{"reference":"Practitioner/7f7ddf14-0696-4371-a5fa-1ea2951716f4"},"priority":{"coding":[{"system":"http://terminology.hl7.org/CodeSystem/processpriority","code":"normal"}]},"diagnosis":[{"sequence":1,"diagnosisReference":{"reference":"Condition/380f09bd-e301-4bf3-ba97-90572859a496"},"type":[{"coding":[{"system":"http://terminology.hl7.org/CodeSystem/ex-diagnosistype","code":"principal"}]}]}],"insurance":[{"sequence":1,"focal":true,"coverage":{"reference":"Coverage/99cfe36a-84bd-4bbf-8f0d-d43288a69100"}}],"item":[{"sequence":1,"diagnosisSequence":[1],"productOrService":{"coding":[{"system":"http://terminology.hl7.org/CodeSystem/ex-USCLS","code":"99555"}]},"encounter":[{"reference":"Encounter/1cdf3ade-2632-4e81-8443-5890d63e4110"}]}]},"request":{"method":"PUT","url":"Claim/ClaimBehavior-NotSubsAbuse"}},{"resource":{"resourceType":"Location","id":"2ef33b76-82c9-4562-9a93-f200277aebb9","meta":{"profile":["http://hl7.org/fhir/us/qicore/StructureDefinition/qicore-location"]},"identifier":[{"use":"usual","system":"http://exampleoflocation.com","value":"B1-S.F2"}],"name":"Medical Surgical East, first floor","type":[{"coding":[{"system":"https://www.cdc.gov/nhsn/cdaportal/terminology/codesystem/hsloc.html","version":"2022","code":"1108-0","display":"Emergency Department","userSelected":true}]}]},"request":{"method":"PUT","url":"Location/2ef33b76-82c9-4562-9a93-f200277aebb9"}},{"resource":{"resourceType":"Patient","id":"aeb81393-d181-487a-9bc5-923c7082104e","meta":{"profile":["http://hl7.org/fhir/us/qicore/StructureDefinition/qicore-patient"]},"extension":[{"url":"http://hl7.org/fhir/us/core/StructureDefinition/us-core-race","extension":[{"url":"ombCategory","valueCoding":{"system":"urn:oid:2.16.840.1.113883.6.238","code":"1002-5","display":"American Indian or Alaska Native","userSelected":true}},{"url":"text","valueString":"American Indian or Alaska Native"}]},{"url":"http://hl7.org/fhir/us/core/StructureDefinition/us-core-ethnicity","extension":[{"url":"ombCategory","valueCoding":{"system":"urn:oid:2.16.840.1.113883.6.238","code":"2135-2","display":"Hispanic or Latino","userSelected":true}},{"url":"text","valueString":"Hispanic or Latino"}]},{"url":"http://hl7.org/fhir/us/core/StructureDefinition/us-core-sex","valueCode":"248153007"}],"identifier":[{"type":{"coding":[{"system":"http://terminology.hl7.org/CodeSystem/v2-0203","code":"MR"}]},"system":"https://bonnie-fhir.healthit.gov/","value":"6617e30316793f5a4fae16fe"}],"name":[{"family":"NUMERStrat1Pass","given":["BedAssigment"]}],"gender":"male","birthDate":"2011-01-01"},"request":{"method":"PUT","url":"Patient/aeb81393-d181-487a-9bc5-923c7082104e"}}]}