{"resourceType":"Bundle","id":"tests-16f81b70-aabb-4ef8-9f5c-5c484aa1fa40-bundle","type":"transaction","entry":[{"resource":{"resourceType":"Encounter","id":"8abcb197-77c9-471d-be54-38bf3757a165","meta":{"profile":["http://hl7.org/fhir/us/qicore/StructureDefinition/qicore-encounter"]},"status":"finished","class":{"system":"http://terminology.hl7.org/CodeSystem/v3-ActCode","code":"EMER","display":"emergency"},"type":[{"coding":[{"system":"http://snomed.info/sct","version":"2023-09","code":"4525004","display":"Emergency department patient visit (procedure)","userSelected":true}]}],"subject":{"reference":"Patient/16f81b70-aabb-4ef8-9f5c-5c484aa1fa40"},"period":{"start":"2027-05-01T00:00:00.000+00:00","end":"2027-05-01T06:00:00.000+00:00"},"diagnosis":[{"condition":{"reference":"Condition/30c81819-a6f8-4fd3-b1e9-6fbc4c8b3422"},"use":{"coding":[{"system":"http://terminology.hl7.org/CodeSystem/diagnosis-role","code":"billing"}]},"rank":1}],"location":[{"location":{"reference":"Location/d0887d28-d4b7-4d52-a7ce-7373df1c5cea"},"period":{"start":"2027-05-01T00:00:00.000+00:00","end":"2027-05-01T06:01:00.000+00:00"}}]},"request":{"method":"PUT","url":"Encounter/8abcb197-77c9-471d-be54-38bf3757a165"}},{"resource":{"resourceType":"Condition","id":"30c81819-a6f8-4fd3-b1e9-6fbc4c8b3422","meta":{"profile":["http://hl7.org/fhir/us/qicore/StructureDefinition/qicore-condition-encounter-diagnosis"]},"category":[{"coding":[{"system":"http://terminology.hl7.org/CodeSystem/condition-category","code":"encounter-diagnosis","display":"Encounter Diagnosis"}]}],"code":{"coding":[{"system":"http://snomed.info/sct","version":"2023-09","code":"10349009","display":"Multi-infarct dementia with delirium (disorder)","userSelected":true}]},"subject":{"reference":"Patient/16f81b70-aabb-4ef8-9f5c-5c484aa1fa40"},"recordedDate":"2026-04-18T08:00:00.000+00:00"},"request":{"method":"PUT","url":"Condition/30c81819-a6f8-4fd3-b1e9-6fbc4c8b3422"}},{"resource":{"resourceType":"Organization","id":"04361d14-1de6-43c7-9b3c-0159c7bfb930","meta":{"profile":["http://hl7.org/fhir/us/qicore/StructureDefinition/qicore-organization"]},"identifier":[{"use":"temp","system":"urn:oid:2.16.840.1.113883.4.4","value":"21-3259825"}],"active":true,"type":[{"coding":[{"system":"http://terminology.hl7.org/CodeSystem/organization-type","code":"pay","display":"Payer"}]}],"name":"Blue Cross Blue Shield of Texas","telecom":[{"system":"phone","value":"(+1) 972-766-6900"}],"address":[{"use":"billing","type":"postal","line":["P.O. Box 660044"],"city":"Dallas","state":"TX","postalCode":"75266-0044","country":"USA"}]},"request":{"method":"PUT","url":"Organization/04361d14-1de6-43c7-9b3c-0159c7bfb930"}},{"resource":{"resourceType":"MeasureReport","id":"33ada196-dfa4-41f2-8f8a-8561d51e3a58","meta":{"profile":["http://hl7.org/fhir/us/cqfmeasures/StructureDefinition/test-case-cqfm"]},"contained":[{"resourceType":"Parameters","id":"d58d34d8-e3fa-4f12-8cc7-aab43c8d5ec1-parameters","parameter":[{"name":"subject","valueString":"16f81b70-aabb-4ef8-9f5c-5c484aa1fa40"}]}],"extension":[{"url":"http://hl7.org/fhir/StructureDefinition/cqf-inputParameters","valueReference":{"reference":"#d58d34d8-e3fa-4f12-8cc7-aab43c8d5ec1-parameters"}},{"url":"http://hl7.org/fhir/us/cqfmeasures/StructureDefinition/cqfm-testCaseDescription","valueMarkdown":"Enc 1st day of MP, dementia dx and diabetic foot ulcer, arrived at midnight of 01/01, 241 minutes decision to admit and departure"}],"modifierExtension":[{"url":"http://hl7.org/fhir/us/cqfmeasures/StructureDefinition/cqfm-isTestCase","valueBoolean":true}],"status":"complete","type":"individual","measure":"https://madie.cms.gov/Measure/CMS1244FHIRECATHOQR","period":{"start":"2027-01-01","end":"2027-12-31"},"group":[{"id":"Group_1","population":[{"id":"InitialPopulation_1","code":{"coding":[{"system":"http://terminology.hl7.org/CodeSystem/measure-population","code":"initial-population","display":"Initial Population"}]},"count":1},{"id":"Denominator_1","code":{"coding":[{"system":"http://terminology.hl7.org/CodeSystem/measure-population","code":"denominator","display":"Denominator"}]},"count":1},{"id":"Numerator_1","code":{"coding":[{"system":"http://terminology.hl7.org/CodeSystem/measure-population","code":"numerator","display":"Numerator"}]},"count":1}],"measureScore":{"value":0.0},"stratifier":[{"id":"Stratification_1_1","code":[{"text":"Strata-1"}],"stratum":[{"value":{"text":"Strata-1"},"population":[{"id":"InitialPopulation_1","code":{"coding":[{"system":"http://terminology.hl7.org/CodeSystem/measure-population","code":"initial-population","display":"Initial Population"}]},"count":0},{"id":"Denominator_1","code":{"coding":[{"system":"http://terminology.hl7.org/CodeSystem/measure-population","code":"denominator","display":"Denominator"}]},"count":0},{"id":"Numerator_1","code":{"coding":[{"system":"http://terminology.hl7.org/CodeSystem/measure-population","code":"numerator","display":"Numerator"}]},"count":0}]}]},{"id":"Stratification_1_2","code":[{"text":"Strata-2"}],"stratum":[{"value":{"text":"Strata-2"},"population":[{"id":"InitialPopulation_1","code":{"coding":[{"system":"http://terminology.hl7.org/CodeSystem/measure-population","code":"initial-population","display":"Initial Population"}]},"count":0},{"id":"Denominator_1","code":{"coding":[{"system":"http://terminology.hl7.org/CodeSystem/measure-population","code":"denominator","display":"Denominator"}]},"count":0},{"id":"Numerator_1","code":{"coding":[{"system":"http://terminology.hl7.org/CodeSystem/measure-population","code":"numerator","display":"Numerator"}]},"count":0}]}]},{"id":"Stratification_1_3","code":[{"text":"Strata-3"}],"stratum":[{"value":{"text":"Strata-3"},"population":[{"id":"InitialPopulation_1","code":{"coding":[{"system":"http://terminology.hl7.org/CodeSystem/measure-population","code":"initial-population","display":"Initial Population"}]},"count":0},{"id":"Denominator_1","code":{"coding":[{"system":"http://terminology.hl7.org/CodeSystem/measure-population","code":"denominator","display":"Denominator"}]},"count":0},{"id":"Numerator_1","code":{"coding":[{"system":"http://terminology.hl7.org/CodeSystem/measure-population","code":"numerator","display":"Numerator"}]},"count":0}]}]},{"id":"Stratification_1_4","code":[{"text":"Strata-4"}],"stratum":[{"value":{"text":"Strata-4"},"population":[{"id":"InitialPopulation_1","code":{"coding":[{"system":"http://terminology.hl7.org/CodeSystem/measure-population","code":"initial-population","display":"Initial Population"}]},"count":1},{"id":"Denominator_1","code":{"coding":[{"system":"http://terminology.hl7.org/CodeSystem/measure-population","code":"denominator","display":"Denominator"}]},"count":1},{"id":"Numerator_1","code":{"coding":[{"system":"http://terminology.hl7.org/CodeSystem/measure-population","code":"numerator","display":"Numerator"}]},"count":1}]}]}]}],"evaluatedResource":[{"reference":"Patient/16f81b70-aabb-4ef8-9f5c-5c484aa1fa40"},{"reference":"Encounter/8abcb197-77c9-471d-be54-38bf3757a165"},{"reference":"Encounter/3c16522a-4e5f-4a9b-a441-dd75cb3a5408"},{"reference":"Location/d0887d28-d4b7-4d52-a7ce-7373df1c5cea"},{"reference":"Observation/739bd085-7a4a-4750-8a7d-68acfe6399e3"},{"reference":"Condition/30c81819-a6f8-4fd3-b1e9-6fbc4c8b3422"},{"reference":"Claim/ClaimBehavior-NotSubsAbuse"},{"reference":"Coverage/91017510-6c3c-44a4-a3bb-3f973aa242ca"},{"reference":"Organization/04361d14-1de6-43c7-9b3c-0159c7bfb930"},{"reference":"Practitioner/8568c217-9a60-4a63-a3aa-11a9c8fd6a49"}]},"request":{"method":"PUT","url":"MeasureReport/33ada196-dfa4-41f2-8f8a-8561d51e3a58"}},{"resource":{"resourceType":"Coverage","id":"91017510-6c3c-44a4-a3bb-3f973aa242ca","meta":{"profile":["http://hl7.org/fhir/us/qicore/StructureDefinition/qicore-coverage"]},"identifier":[{"type":{"coding":[{"system":"http://terminology.hl7.org/CodeSystem/v2-0203","code":"MB"}]}}],"status":"active","beneficiary":{"reference":"Patient/16f81b70-aabb-4ef8-9f5c-5c484aa1fa40"},"relationship":{"coding":[{"system":"http://terminology.hl7.org/CodeSystem/subscriber-relationship","code":"self"}]},"payor":[{"reference":"Organization/04361d14-1de6-43c7-9b3c-0159c7bfb930"}]},"request":{"method":"PUT","url":"Coverage/91017510-6c3c-44a4-a3bb-3f973aa242ca"}},{"resource":{"resourceType":"Bundle","id":"6617e30316793f5a4fae16fe","type":"transaction","entry":[{"fullUrl":"https://madie.cms.gov/Patient/16f81b70-aabb-4ef8-9f5c-5c484aa1fa40","resource":{"resourceType":"Patient","id":"16f81b70-aabb-4ef8-9f5c-5c484aa1fa40","meta":{"profile":["http://hl7.org/fhir/us/qicore/StructureDefinition/qicore-patient"]},"extension":[{"url":"http://hl7.org/fhir/us/core/StructureDefinition/us-core-race","extension":[{"url":"ombCategory","valueCoding":{"system":"urn:oid:2.16.840.1.113883.6.238","code":"1002-5","display":"American Indian or Alaska Native","userSelected":true}},{"url":"text","valueString":"American Indian or Alaska Native"}]},{"url":"http://hl7.org/fhir/us/core/StructureDefinition/us-core-ethnicity","extension":[{"url":"ombCategory","valueCoding":{"system":"urn:oid:2.16.840.1.113883.6.238","code":"2135-2","display":"Hispanic or Latino","userSelected":true}},{"url":"text","valueString":"Hispanic or Latino"}]},{"url":"http://hl7.org/fhir/us/core/StructureDefinition/us-core-sex","valueCode":"248153007"}],"identifier":[{"type":{"coding":[{"system":"http://terminology.hl7.org/CodeSystem/v2-0203","code":"MR"}]},"system":"https://bonnie-fhir.healthit.gov/","value":"6617e30316793f5a4fae16fe"}],"name":[{"family":"NUMERStrat4Pass","given":["DecisionToAdmitAssessment"]}],"gender":"male","birthDate":"2009-01-01"},"request":{"method":"PUT","url":"Patient/16f81b70-aabb-4ef8-9f5c-5c484aa1fa40"}},{"fullUrl":"https://madie.cms.gov/Encounter/8abcb197-77c9-471d-be54-38bf3757a165","resource":{"resourceType":"Encounter","id":"8abcb197-77c9-471d-be54-38bf3757a165","meta":{"profile":["http://hl7.org/fhir/us/qicore/StructureDefinition/qicore-encounter"]},"status":"finished","class":{"system":"http://terminology.hl7.org/CodeSystem/v3-ActCode","code":"EMER","display":"emergency"},"type":[{"coding":[{"system":"http://snomed.info/sct","version":"2023-09","code":"4525004","display":"Emergency department patient visit (procedure)","userSelected":true}]}],"subject":{"reference":"Patient/16f81b70-aabb-4ef8-9f5c-5c484aa1fa40"},"period":{"start":"2027-05-01T00:00:00.000+00:00","end":"2027-05-01T06:00:00.000+00:00"},"diagnosis":[{"condition":{"reference":"Condition/30c81819-a6f8-4fd3-b1e9-6fbc4c8b3422"},"use":{"coding":[{"system":"http://terminology.hl7.org/CodeSystem/diagnosis-role","code":"billing"}]},"rank":1}],"location":[{"location":{"reference":"Location/d0887d28-d4b7-4d52-a7ce-7373df1c5cea"},"period":{"start":"2027-05-01T00:00:00.000+00:00","end":"2027-05-01T06:01:00.000+00:00"}}]},"request":{"method":"PUT","url":"Encounter/8abcb197-77c9-471d-be54-38bf3757a165"}},{"fullUrl":"https://madie.cms.gov/Encounter/3c16522a-4e5f-4a9b-a441-dd75cb3a5408","resource":{"resourceType":"Encounter","id":"3c16522a-4e5f-4a9b-a441-dd75cb3a5408","meta":{"profile":["http://hl7.org/fhir/us/qicore/StructureDefinition/qicore-encounter"]},"status":"finished","class":{"system":"http://terminology.hl7.org/CodeSystem/v3-ActCode","code":"IMP","display":"inpatient"},"type":[{"coding":[{"system":"http://snomed.info/sct","version":"2023-09","code":"183452005","display":"Emergency hospital admission (procedure)","userSelected":true}]}],"subject":{"reference":"Patient/16f81b70-aabb-4ef8-9f5c-5c484aa1fa40"},"period":{"start":"2027-05-01T06:00:00.000+00:00","end":"2027-05-03T06:15:00.000+00:00"}},"request":{"method":"PUT","url":"Encounter/3c16522a-4e5f-4a9b-a441-dd75cb3a5408"}},{"fullUrl":"https://madie.cms.gov/Location/d0887d28-d4b7-4d52-a7ce-7373df1c5cea","resource":{"resourceType":"Location","id":"d0887d28-d4b7-4d52-a7ce-7373df1c5cea","meta":{"profile":["http://hl7.org/fhir/us/qicore/StructureDefinition/qicore-location"]},"identifier":[{"use":"usual","system":"http://exampleoflocation.com","value":"B1-S.F2"}],"name":"Local ED","type":[{"coding":[{"system":"https://www.cdc.gov/nhsn/cdaportal/terminology/codesystem/hsloc.html","version":"2022","code":"1108-0","display":"Emergency Department","userSelected":true}]}]},"request":{"method":"PUT","url":"Location/d0887d28-d4b7-4d52-a7ce-7373df1c5cea"}},{"fullUrl":"https://madie.cms.gov/Observation/739bd085-7a4a-4750-8a7d-68acfe6399e3","resource":{"resourceType":"Observation","id":"739bd085-7a4a-4750-8a7d-68acfe6399e3","meta":{"profile":["http://hl7.org/fhir/us/qicore/StructureDefinition/qicore-observation-clinical-result"]},"status":"final","category":[{"coding":[{"system":"http://terminology.hl7.org/CodeSystem/observation-category","code":"survey","display":"Survey"}]}],"code":{"coding":[{"system":"http://loinc.org","version":"2.76","code":"28568-4","display":"Physician Emergency department Note","userSelected":true}]},"subject":{"reference":"Patient/16f81b70-aabb-4ef8-9f5c-5c484aa1fa40"},"effectiveDateTime":"2027-05-01T01:00:00.000+00:00","valueCodeableConcept":{"coding":[{"system":"http://snomed.info/sct","code":"434081000124108","display":"Patient requires hospitalization (finding)","userSelected":true}]}},"request":{"method":"PUT","url":"Observation/739bd085-7a4a-4750-8a7d-68acfe6399e3"}},{"fullUrl":"https://madie.cms.gov/Condition/30c81819-a6f8-4fd3-b1e9-6fbc4c8b3422","resource":{"resourceType":"Condition","id":"30c81819-a6f8-4fd3-b1e9-6fbc4c8b3422","meta":{"profile":["http://hl7.org/fhir/us/qicore/StructureDefinition/qicore-condition-encounter-diagnosis"]},"category":[{"coding":[{"system":"http://terminology.hl7.org/CodeSystem/condition-category","code":"encounter-diagnosis","display":"Encounter Diagnosis"}]}],"code":{"coding":[{"system":"http://snomed.info/sct","version":"2023-09","code":"10349009","display":"Multi-infarct dementia with delirium (disorder)","userSelected":true}]},"subject":{"reference":"Patient/16f81b70-aabb-4ef8-9f5c-5c484aa1fa40"},"recordedDate":"2026-04-18T08:00:00.000+00:00"},"request":{"method":"PUT","url":"Condition/30c81819-a6f8-4fd3-b1e9-6fbc4c8b3422"}},{"fullUrl":"https://madie.cms.gov/claim/ClaimBehavior-NotSubsAbuse","resource":{"resourceType":"Claim","id":"ClaimBehavior-NotSubsAbuse","meta":{"profile":["http://hl7.org/fhir/us/qicore/StructureDefinition/qicore-claim"]},"status":"active","type":{"coding":[{"system":"http://terminology.hl7.org/CodeSystem/claim-type","code":"institutional"}]},"use":"claim","patient":{"reference":"Patient/16f81b70-aabb-4ef8-9f5c-5c484aa1fa40"},"created":"2027-05-01","provider":{"reference":"Practitioner/8568c217-9a60-4a63-a3aa-11a9c8fd6a49"},"priority":{"coding":[{"system":"http://terminology.hl7.org/CodeSystem/processpriority","code":"normal"}]},"diagnosis":[{"sequence":1,"diagnosisReference":{"reference":"Condition/30c81819-a6f8-4fd3-b1e9-6fbc4c8b3422"},"type":[{"coding":[{"system":"http://terminology.hl7.org/CodeSystem/ex-diagnosistype","code":"principal"}]}]}],"insurance":[{"sequence":1,"focal":true,"coverage":{"reference":"Coverage/91017510-6c3c-44a4-a3bb-3f973aa242ca"}}],"item":[{"sequence":1,"diagnosisSequence":[1],"productOrService":{"coding":[{"system":"http://terminology.hl7.org/CodeSystem/ex-USCLS","code":"99555"}]},"encounter":[{"reference":"Encounter/8abcb197-77c9-471d-be54-38bf3757a165"}]}]},"request":{"method":"PUT","url":"Claim/ClaimBehavior-NotSubsAbuse"}},{"fullUrl":"https://madie.cms.gov/Coverage/91017510-6c3c-44a4-a3bb-3f973aa242ca","resource":{"resourceType":"Coverage","id":"91017510-6c3c-44a4-a3bb-3f973aa242ca","meta":{"profile":["http://hl7.org/fhir/us/qicore/StructureDefinition/qicore-coverage"]},"identifier":[{"type":{"coding":[{"system":"http://terminology.hl7.org/CodeSystem/v2-0203","code":"MB"}]}}],"status":"active","beneficiary":{"reference":"Patient/16f81b70-aabb-4ef8-9f5c-5c484aa1fa40"},"relationship":{"coding":[{"system":"http://terminology.hl7.org/CodeSystem/subscriber-relationship","code":"self"}]},"payor":[{"reference":"Organization/04361d14-1de6-43c7-9b3c-0159c7bfb930"}]},"request":{"method":"PUT","url":"Coverage/91017510-6c3c-44a4-a3bb-3f973aa242ca"}},{"fullUrl":"https://madie.cms.gov/Organization/04361d14-1de6-43c7-9b3c-0159c7bfb930","resource":{"resourceType":"Organization","id":"04361d14-1de6-43c7-9b3c-0159c7bfb930","meta":{"profile":["http://hl7.org/fhir/us/qicore/StructureDefinition/qicore-organization"]},"identifier":[{"use":"temp","system":"urn:oid:2.16.840.1.113883.4.4","value":"21-3259825"}],"active":true,"type":[{"coding":[{"system":"http://terminology.hl7.org/CodeSystem/organization-type","code":"pay","display":"Payer"}]}],"name":"Blue Cross Blue Shield of Texas","telecom":[{"system":"phone","value":"(+1) 972-766-6900"}],"address":[{"use":"billing","type":"postal","line":["P.O. Box 660044"],"city":"Dallas","state":"TX","postalCode":"75266-0044","country":"USA"}]},"request":{"method":"PUT","url":"Organization/04361d14-1de6-43c7-9b3c-0159c7bfb930"}},{"fullUrl":"https://madie.cms.gov/Practitioner/8568c217-9a60-4a63-a3aa-11a9c8fd6a49","resource":{"resourceType":"Practitioner","id":"8568c217-9a60-4a63-a3aa-11a9c8fd6a49","meta":{"profile":["http://hl7.org/fhir/us/qicore/StructureDefinition/qicore-practitioner"]},"identifier":[{"system":"http://hl7.org/fhir/sid/us-npi","value":"9999999896"}],"name":[{"family":"Evil","prefix":["Dr"]}]},"request":{"method":"PUT","url":"Practitioner/8568c217-9a60-4a63-a3aa-11a9c8fd6a49"}},{"fullUrl":"https://madie.cms.gov/MeasureReport/33ada196-dfa4-41f2-8f8a-8561d51e3a58","resource":{"resourceType":"MeasureReport","id":"33ada196-dfa4-41f2-8f8a-8561d51e3a58","meta":{"profile":["http://hl7.org/fhir/us/cqfmeasures/StructureDefinition/test-case-cqfm"]},"contained":[{"resourceType":"Parameters","id":"d58d34d8-e3fa-4f12-8cc7-aab43c8d5ec1-parameters","parameter":[{"name":"subject","valueString":"16f81b70-aabb-4ef8-9f5c-5c484aa1fa40"}]}],"extension":[{"url":"http://hl7.org/fhir/StructureDefinition/cqf-inputParameters","valueReference":{"reference":"#d58d34d8-e3fa-4f12-8cc7-aab43c8d5ec1-parameters"}},{"url":"http://hl7.org/fhir/us/cqfmeasures/StructureDefinition/cqfm-testCaseDescription","valueMarkdown":"Enc 1st day of MP, dementia dx and diabetic foot ulcer, arrived at midnight of 01/01, 241 minutes decision to admit and departure"}],"modifierExtension":[{"url":"http://hl7.org/fhir/us/cqfmeasures/StructureDefinition/cqfm-isTestCase","valueBoolean":true}],"status":"complete","type":"individual","measure":"https://madie.cms.gov/Measure/CMS1244FHIRECATHOQR","period":{"start":"2027-01-01","end":"2027-12-31"},"group":[{"id":"Group_1","population":[{"id":"InitialPopulation_1","code":{"coding":[{"system":"http://terminology.hl7.org/CodeSystem/measure-population","code":"initial-population","display":"Initial Population"}]},"count":1},{"id":"Denominator_1","code":{"coding":[{"system":"http://terminology.hl7.org/CodeSystem/measure-population","code":"denominator","display":"Denominator"}]},"count":1},{"id":"Numerator_1","code":{"coding":[{"system":"http://terminology.hl7.org/CodeSystem/measure-population","code":"numerator","display":"Numerator"}]},"count":1}],"measureScore":{"value":0.0},"stratifier":[{"id":"Stratification_1_1","code":[{"text":"Strata-1"}],"stratum":[{"value":{"text":"Strata-1"},"population":[{"id":"InitialPopulation_1","code":{"coding":[{"system":"http://terminology.hl7.org/CodeSystem/measure-population","code":"initial-population","display":"Initial Population"}]},"count":0},{"id":"Denominator_1","code":{"coding":[{"system":"http://terminology.hl7.org/CodeSystem/measure-population","code":"denominator","display":"Denominator"}]},"count":0},{"id":"Numerator_1","code":{"coding":[{"system":"http://terminology.hl7.org/CodeSystem/measure-population","code":"numerator","display":"Numerator"}]},"count":0}]}]},{"id":"Stratification_1_2","code":[{"text":"Strata-2"}],"stratum":[{"value":{"text":"Strata-2"},"population":[{"id":"InitialPopulation_1","code":{"coding":[{"system":"http://terminology.hl7.org/CodeSystem/measure-population","code":"initial-population","display":"Initial Population"}]},"count":0},{"id":"Denominator_1","code":{"coding":[{"system":"http://terminology.hl7.org/CodeSystem/measure-population","code":"denominator","display":"Denominator"}]},"count":0},{"id":"Numerator_1","code":{"coding":[{"system":"http://terminology.hl7.org/CodeSystem/measure-population","code":"numerator","display":"Numerator"}]},"count":0}]}]},{"id":"Stratification_1_3","code":[{"text":"Strata-3"}],"stratum":[{"value":{"text":"Strata-3"},"population":[{"id":"InitialPopulation_1","code":{"coding":[{"system":"http://terminology.hl7.org/CodeSystem/measure-population","code":"initial-population","display":"Initial Population"}]},"count":0},{"id":"Denominator_1","code":{"coding":[{"system":"http://terminology.hl7.org/CodeSystem/measure-population","code":"denominator","display":"Denominator"}]},"count":0},{"id":"Numerator_1","code":{"coding":[{"system":"http://terminology.hl7.org/CodeSystem/measure-population","code":"numerator","display":"Numerator"}]},"count":0}]}]},{"id":"Stratification_1_4","code":[{"text":"Strata-4"}],"stratum":[{"value":{"text":"Strata-4"},"population":[{"id":"InitialPopulation_1","code":{"coding":[{"system":"http://terminology.hl7.org/CodeSystem/measure-population","code":"initial-population","display":"Initial Population"}]},"count":1},{"id":"Denominator_1","code":{"coding":[{"system":"http://terminology.hl7.org/CodeSystem/measure-population","code":"denominator","display":"Denominator"}]},"count":1},{"id":"Numerator_1","code":{"coding":[{"system":"http://terminology.hl7.org/CodeSystem/measure-population","code":"numerator","display":"Numerator"}]},"count":1}]}]}]}],"evaluatedResource":[{"reference":"Patient/16f81b70-aabb-4ef8-9f5c-5c484aa1fa40"},{"reference":"Encounter/8abcb197-77c9-471d-be54-38bf3757a165"},{"reference":"Encounter/3c16522a-4e5f-4a9b-a441-dd75cb3a5408"},{"reference":"Location/d0887d28-d4b7-4d52-a7ce-7373df1c5cea"},{"reference":"Observation/739bd085-7a4a-4750-8a7d-68acfe6399e3"},{"reference":"Condition/30c81819-a6f8-4fd3-b1e9-6fbc4c8b3422"},{"reference":"Claim/ClaimBehavior-NotSubsAbuse"},{"reference":"Coverage/91017510-6c3c-44a4-a3bb-3f973aa242ca"},{"reference":"Organization/04361d14-1de6-43c7-9b3c-0159c7bfb930"},{"reference":"Practitioner/8568c217-9a60-4a63-a3aa-11a9c8fd6a49"}]},"request":{"method":"PUT","url":"MeasureReport/33ada196-dfa4-41f2-8f8a-8561d51e3a58"}}]},"request":{"method":"PUT","url":"Bundle/6617e30316793f5a4fae16fe"}},{"resource":{"resourceType":"Practitioner","id":"8568c217-9a60-4a63-a3aa-11a9c8fd6a49","meta":{"profile":["http://hl7.org/fhir/us/qicore/StructureDefinition/qicore-practitioner"]},"identifier":[{"system":"http://hl7.org/fhir/sid/us-npi","value":"9999999896"}],"name":[{"family":"Evil","prefix":["Dr"]}]},"request":{"method":"PUT","url":"Practitioner/8568c217-9a60-4a63-a3aa-11a9c8fd6a49"}},{"resource":{"resourceType":"Observation","id":"739bd085-7a4a-4750-8a7d-68acfe6399e3","meta":{"profile":["http://hl7.org/fhir/us/qicore/StructureDefinition/qicore-observation-clinical-result"]},"status":"final","category":[{"coding":[{"system":"http://terminology.hl7.org/CodeSystem/observation-category","code":"survey","display":"Survey"}]}],"code":{"coding":[{"system":"http://loinc.org","version":"2.76","code":"28568-4","display":"Physician Emergency department Note","userSelected":true}]},"subject":{"reference":"Patient/16f81b70-aabb-4ef8-9f5c-5c484aa1fa40"},"effectiveDateTime":"2027-05-01T01:00:00.000+00:00","valueCodeableConcept":{"coding":[{"system":"http://snomed.info/sct","code":"434081000124108","display":"Patient requires hospitalization (finding)","userSelected":true}]}},"request":{"method":"PUT","url":"Observation/739bd085-7a4a-4750-8a7d-68acfe6399e3"}},{"resource":{"resourceType":"Patient","id":"16f81b70-aabb-4ef8-9f5c-5c484aa1fa40","meta":{"profile":["http://hl7.org/fhir/us/qicore/StructureDefinition/qicore-patient"]},"extension":[{"url":"http://hl7.org/fhir/us/core/StructureDefinition/us-core-race","extension":[{"url":"ombCategory","valueCoding":{"system":"urn:oid:2.16.840.1.113883.6.238","code":"1002-5","display":"American Indian or Alaska Native","userSelected":true}},{"url":"text","valueString":"American Indian or Alaska Native"}]},{"url":"http://hl7.org/fhir/us/core/StructureDefinition/us-core-ethnicity","extension":[{"url":"ombCategory","valueCoding":{"system":"urn:oid:2.16.840.1.113883.6.238","code":"2135-2","display":"Hispanic or Latino","userSelected":true}},{"url":"text","valueString":"Hispanic or Latino"}]},{"url":"http://hl7.org/fhir/us/core/StructureDefinition/us-core-sex","valueCode":"248153007"}],"identifier":[{"type":{"coding":[{"system":"http://terminology.hl7.org/CodeSystem/v2-0203","code":"MR"}]},"system":"https://bonnie-fhir.healthit.gov/","value":"6617e30316793f5a4fae16fe"}],"name":[{"family":"NUMERStrat4Pass","given":["DecisionToAdmitAssessment"]}],"gender":"male","birthDate":"2009-01-01"},"request":{"method":"PUT","url":"Patient/16f81b70-aabb-4ef8-9f5c-5c484aa1fa40"}},{"resource":{"resourceType":"Claim","id":"ClaimBehavior-NotSubsAbuse","meta":{"profile":["http://hl7.org/fhir/us/qicore/StructureDefinition/qicore-claim"]},"status":"active","type":{"coding":[{"system":"http://terminology.hl7.org/CodeSystem/claim-type","code":"institutional"}]},"use":"claim","patient":{"reference":"Patient/16f81b70-aabb-4ef8-9f5c-5c484aa1fa40"},"created":"2027-05-01","provider":{"reference":"Practitioner/8568c217-9a60-4a63-a3aa-11a9c8fd6a49"},"priority":{"coding":[{"system":"http://terminology.hl7.org/CodeSystem/processpriority","code":"normal"}]},"diagnosis":[{"sequence":1,"diagnosisReference":{"reference":"Condition/30c81819-a6f8-4fd3-b1e9-6fbc4c8b3422"},"type":[{"coding":[{"system":"http://terminology.hl7.org/CodeSystem/ex-diagnosistype","code":"principal"}]}]}],"insurance":[{"sequence":1,"focal":true,"coverage":{"reference":"Coverage/91017510-6c3c-44a4-a3bb-3f973aa242ca"}}],"item":[{"sequence":1,"diagnosisSequence":[1],"productOrService":{"coding":[{"system":"http://terminology.hl7.org/CodeSystem/ex-USCLS","code":"99555"}]},"encounter":[{"reference":"Encounter/8abcb197-77c9-471d-be54-38bf3757a165"}]}]},"request":{"method":"PUT","url":"Claim/ClaimBehavior-NotSubsAbuse"}},{"resource":{"resourceType":"Encounter","id":"3c16522a-4e5f-4a9b-a441-dd75cb3a5408","meta":{"profile":["http://hl7.org/fhir/us/qicore/StructureDefinition/qicore-encounter"]},"status":"finished","class":{"system":"http://terminology.hl7.org/CodeSystem/v3-ActCode","code":"IMP","display":"inpatient"},"type":[{"coding":[{"system":"http://snomed.info/sct","version":"2023-09","code":"183452005","display":"Emergency hospital admission (procedure)","userSelected":true}]}],"subject":{"reference":"Patient/16f81b70-aabb-4ef8-9f5c-5c484aa1fa40"},"period":{"start":"2027-05-01T06:00:00.000+00:00","end":"2027-05-03T06:15:00.000+00:00"}},"request":{"method":"PUT","url":"Encounter/3c16522a-4e5f-4a9b-a441-dd75cb3a5408"}},{"resource":{"resourceType":"Location","id":"d0887d28-d4b7-4d52-a7ce-7373df1c5cea","meta":{"profile":["http://hl7.org/fhir/us/qicore/StructureDefinition/qicore-location"]},"identifier":[{"use":"usual","system":"http://exampleoflocation.com","value":"B1-S.F2"}],"name":"Local ED","type":[{"coding":[{"system":"https://www.cdc.gov/nhsn/cdaportal/terminology/codesystem/hsloc.html","version":"2022","code":"1108-0","display":"Emergency Department","userSelected":true}]}]},"request":{"method":"PUT","url":"Location/d0887d28-d4b7-4d52-a7ce-7373df1c5cea"}}]}