{
  "resourceType": "Bundle",
  "id": "633b3fa00968f80122503d2a",
  "type": "transaction",
  "entry": [ {
    "fullUrl": "https://madie.cms.gov/Patient/e0de513e-db51-4a11-9592-546b8c7a15e5",
    "resource": {
      "resourceType": "Patient",
      "id": "e0de513e-db51-4a11-9592-546b8c7a15e5",
      "meta": {
        "profile": [ "http://hl7.org/fhir/us/qicore/StructureDefinition/qicore-patient" ]
      },
      "text": {
        "status": "generated",
        "div": "<div xmlns=\"http://www.w3.org/1999/xhtml\"><div class=\"hapiHeaderText\">DelProcRelDtTmMidnightDayAftEncEnds<b>IPFAIL </b></div><table class=\"hapiPropertyTable\"><tbody><tr><td>Date of birth</td><td><span>31 January 2004</span></td></tr></tbody></table></div>"
      },
      "extension": [ {
        "url": "http://hl7.org/fhir/us/core/StructureDefinition/us-core-race",
        "extension": [ {
          "url": "ombCategory",
          "valueCoding": {
            "system": "urn:oid:2.16.840.1.113883.6.238",
            "code": "1002-5",
            "display": "American Indian or Alaska Native",
            "userSelected": true
          }
        }, {
          "url": "text",
          "valueString": "American Indian or Alaska Native"
        } ]
      }, {
        "url": "http://hl7.org/fhir/us/core/StructureDefinition/us-core-ethnicity",
        "extension": [ {
          "url": "ombCategory",
          "valueCoding": {
            "system": "urn:oid:2.16.840.1.113883.6.238",
            "code": "2135-2",
            "display": "Hispanic or Latino",
            "userSelected": true
          }
        }, {
          "url": "text",
          "valueString": "Hispanic or Latino"
        } ]
      } ],
      "identifier": [ {
        "type": {
          "coding": [ {
            "system": "http://terminology.hl7.org/CodeSystem/v2-0203",
            "code": "MR"
          } ]
        },
        "system": "https://bonnie-fhir.healthit.gov/",
        "value": "633b3fa00968f80122503d2a"
      } ],
      "active": true,
      "name": [ {
        "use": "usual",
        "family": "IPFail",
        "given": [ "DelProcRelDtTmMidnightDayAftEncEnds" ]
      } ],
      "gender": "female",
      "birthDate": "2005-01-31"
    },
    "request": {
      "method": "PUT",
      "url": "Patient/e0de513e-db51-4a11-9592-546b8c7a15e5"
    }
  }, {
    "fullUrl": "https://madie.cms.gov/Encounter/25359304-fcaa-42dd-a1b7-66eb2fe9af73",
    "resource": {
      "resourceType": "Encounter",
      "id": "25359304-fcaa-42dd-a1b7-66eb2fe9af73",
      "meta": {
        "profile": [ "http://hl7.org/fhir/us/qicore/StructureDefinition/qicore-encounter" ]
      },
      "status": "finished",
      "class": {
        "system": "http://terminology.hl7.org/CodeSystem/v3-ActCode",
        "code": "IMP",
        "display": "inpatient encounter"
      },
      "type": [ {
        "coding": [ {
          "system": "http://snomed.info/sct",
          "code": "183452005"
        } ]
      } ],
      "subject": {
        "reference": "Patient/e0de513e-db51-4a11-9592-546b8c7a15e5"
      },
      "period": {
        "start": "2026-02-01T09:00:00Z",
        "end": "2026-02-05T08:15:00.000+00:00"
      }
    },
    "request": {
      "method": "PUT",
      "url": "Encounter/25359304-fcaa-42dd-a1b7-66eb2fe9af73"
    }
  }, {
    "fullUrl": "https://madie.cms.gov/Procedure/1ec785ad-dec2-4148-92f4-04f69ea4aa7d",
    "resource": {
      "resourceType": "Procedure",
      "id": "1ec785ad-dec2-4148-92f4-04f69ea4aa7d",
      "meta": {
        "profile": [ "http://hl7.org/fhir/us/qicore/StructureDefinition/qicore-procedure" ]
      },
      "extension": [ {
        "url": "http://hl7.org/fhir/us/qicore/StructureDefinition/qicore-recorded",
        "valueDateTime": "2014-04-05T13:35:00Z"
      } ],
      "status": "completed",
      "code": {
        "coding": [ {
          "system": "http://snomed.info/sct",
          "code": "10745001"
        } ]
      },
      "subject": {
        "reference": "Patient/e0de513e-db51-4a11-9592-546b8c7a15e5"
      },
      "performedDateTime": "2026-02-06T00:00:00Z"
    },
    "request": {
      "method": "PUT",
      "url": "Procedure/1ec785ad-dec2-4148-92f4-04f69ea4aa7d"
    }
  }, {
    "fullUrl": "https://madie.cms.gov/Coverage/fcf79560-f9a4-4e99-8c64-5790c02c23ee",
    "resource": {
      "resourceType": "Coverage",
      "id": "fcf79560-f9a4-4e99-8c64-5790c02c23ee",
      "meta": {
        "profile": [ "http://hl7.org/fhir/us/qicore/StructureDefinition/qicore-coverage" ]
      },
      "status": "active",
      "beneficiary": {
        "reference": "Patient/e0de513e-db51-4a11-9592-546b8c7a15e5"
      },
      "payor": [ {
        "reference": "Organization/aa2fc73b-8e4f-48ea-be6f-7b1ea3d8cd71"
      } ]
    },
    "request": {
      "method": "PUT",
      "url": "Coverage/fcf79560-f9a4-4e99-8c64-5790c02c23ee"
    }
  }, {
    "fullUrl": "https://madie.cms.gov/Organization/aa2fc73b-8e4f-48ea-be6f-7b1ea3d8cd71",
    "resource": {
      "resourceType": "Organization",
      "id": "aa2fc73b-8e4f-48ea-be6f-7b1ea3d8cd71",
      "meta": {
        "profile": [ "http://hl7.org/fhir/us/qicore/StructureDefinition/qicore-organization" ]
      },
      "identifier": [ {
        "use": "temp",
        "system": "urn:oid:2.16.840.1.113883.4.4",
        "value": "21-3259825"
      } ],
      "active": true,
      "type": [ {
        "coding": [ {
          "system": "http://terminology.hl7.org/CodeSystem/organization-type",
          "code": "pay",
          "display": "Payer"
        } ]
      } ],
      "name": "Blue Cross Blue Shield of Texas",
      "telecom": [ {
        "system": "phone",
        "value": "(+1) 972-766-6900"
      } ],
      "address": [ {
        "use": "billing",
        "type": "postal",
        "line": [ "P.O. Box 660044" ],
        "city": "Dallas",
        "state": "TX",
        "postalCode": "75266-0044",
        "country": "USA"
      } ]
    },
    "request": {
      "method": "PUT",
      "url": "Organization/aa2fc73b-8e4f-48ea-be6f-7b1ea3d8cd71"
    }
  }, {
    "fullUrl": "https://madie.cms.gov/Practitioner/25f7eab1-9560-4e18-9f77-75449000c39f",
    "resource": {
      "resourceType": "Practitioner",
      "id": "25f7eab1-9560-4e18-9f77-75449000c39f",
      "identifier": [ {
        "system": "http://hl7.org/fhir/sid/us-npi",
        "value": "123456"
      } ],
      "name": [ {
        "family": "Evil",
        "prefix": [ "Dr" ]
      } ]
    },
    "request": {
      "method": "PUT",
      "url": "Practitioner/25f7eab1-9560-4e18-9f77-75449000c39f"
    }
  }, {
    "fullUrl": "https://madie.cms.gov/MeasureReport/1ca1ea1c-d701-474f-b1bf-7871f37e5078",
    "resource": {
      "resourceType": "MeasureReport",
      "id": "1ca1ea1c-d701-474f-b1bf-7871f37e5078",
      "meta": {
        "profile": [ "http://hl7.org/fhir/us/cqfmeasures/StructureDefinition/test-case-cqfm" ]
      },
      "contained": [ {
        "resourceType": "Parameters",
        "id": "37597d04-120e-44a7-86f0-892cc01ba05d-parameters",
        "parameter": [ {
          "name": "subject",
          "valueString": "e0de513e-db51-4a11-9592-546b8c7a15e5"
        } ]
      } ],
      "extension": [ {
        "url": "http://hl7.org/fhir/StructureDefinition/cqf-inputParameters",
        "valueReference": {
          "reference": "#37597d04-120e-44a7-86f0-892cc01ba05d-parameters"
        }
      }, {
        "url": "http://hl7.org/fhir/us/cqfmeasures/StructureDefinition/cqfm-testCaseDescription",
        "valueMarkdown": "Delivery Procedure rel date/time = midnight day after encounter ends.\n"
      } ],
      "modifierExtension": [ {
        "url": "http://hl7.org/fhir/us/cqfmeasures/StructureDefinition/cqfm-isTestCase",
        "valueBoolean": true
      } ],
      "status": "complete",
      "type": "individual",
      "measure": "https://madie.cms.gov/Measure/CMS1028FHIRPCSevereOBComps",
      "period": {
        "start": "2026-01-01",
        "end": "2026-12-31"
      },
      "group": [ {
        "id": "Group_1",
        "population": [ {
          "id": "InitialPopulation_1",
          "code": {
            "coding": [ {
              "system": "http://terminology.hl7.org/CodeSystem/measure-population",
              "code": "initial-population",
              "display": "Initial Population"
            } ]
          },
          "count": 0
        }, {
          "id": "Denominator_1",
          "code": {
            "coding": [ {
              "system": "http://terminology.hl7.org/CodeSystem/measure-population",
              "code": "denominator",
              "display": "Denominator"
            } ]
          },
          "count": 0
        }, {
          "id": "Numerator_1",
          "code": {
            "coding": [ {
              "system": "http://terminology.hl7.org/CodeSystem/measure-population",
              "code": "numerator",
              "display": "Numerator"
            } ]
          },
          "count": 0
        }, {
          "id": "NumeratorExclusion_1",
          "code": {
            "coding": [ {
              "system": "http://terminology.hl7.org/CodeSystem/measure-population",
              "code": "numerator-exclusion",
              "display": "Numerator Exclusion"
            } ]
          },
          "count": 0
        } ],
        "measureScore": {
          "value": 0.0
        }
      }, {
        "id": "Group_2",
        "population": [ {
          "id": "InitialPopulation_2",
          "code": {
            "coding": [ {
              "system": "http://terminology.hl7.org/CodeSystem/measure-population",
              "code": "initial-population",
              "display": "Initial Population"
            } ]
          },
          "count": 0
        }, {
          "id": "Denominator_2",
          "code": {
            "coding": [ {
              "system": "http://terminology.hl7.org/CodeSystem/measure-population",
              "code": "denominator",
              "display": "Denominator"
            } ]
          },
          "count": 0
        }, {
          "id": "Numerator_2",
          "code": {
            "coding": [ {
              "system": "http://terminology.hl7.org/CodeSystem/measure-population",
              "code": "numerator",
              "display": "Numerator"
            } ]
          },
          "count": 0
        }, {
          "id": "NumeratorExclusion_2",
          "code": {
            "coding": [ {
              "system": "http://terminology.hl7.org/CodeSystem/measure-population",
              "code": "numerator-exclusion",
              "display": "Numerator Exclusion"
            } ]
          },
          "count": 0
        } ],
        "measureScore": {
          "value": 0.0
        }
      } ],
      "evaluatedResource": [ {
        "reference": "Patient/e0de513e-db51-4a11-9592-546b8c7a15e5"
      }, {
        "reference": "Encounter/25359304-fcaa-42dd-a1b7-66eb2fe9af73"
      }, {
        "reference": "Procedure/1ec785ad-dec2-4148-92f4-04f69ea4aa7d"
      }, {
        "reference": "Coverage/fcf79560-f9a4-4e99-8c64-5790c02c23ee"
      }, {
        "reference": "Organization/aa2fc73b-8e4f-48ea-be6f-7b1ea3d8cd71"
      }, {
        "reference": "Practitioner/25f7eab1-9560-4e18-9f77-75449000c39f"
      } ]
    },
    "request": {
      "method": "PUT",
      "url": "MeasureReport/1ca1ea1c-d701-474f-b1bf-7871f37e5078"
    }
  } ]
}