{
  "resourceType": "Bundle",
  "id": "60f82c2e98086b570510e282",
  "type": "transaction",
  "entry": [ {
    "fullUrl": "https://madie.cms.gov/Patient/3fbd6ec2-8d40-45e7-90d7-747d7c491c1a",
    "resource": {
      "resourceType": "Patient",
      "id": "3fbd6ec2-8d40-45e7-90d7-747d7c491c1a",
      "meta": {
        "profile": [ "http://hl7.org/fhir/us/qicore/StructureDefinition/qicore-patient" ]
      },
      "text": {
        "status": "generated",
        "div": "<div xmlns=\"http://www.w3.org/1999/xhtml\"><div class=\"hapiHeaderText\">Med1TPAStart_inGap_ofEDandEncIP <b>DENEXPASS </b></div><table class=\"hapiPropertyTable\"><tbody><tr><td>Identifier</td><td>b0519c7cbaeef57f16bed4e113c51983</td></tr><tr><td>Date of birth</td><td><span>26 September 1975</span></td></tr></tbody></table></div>"
      },
      "extension": [ {
        "url": "http://hl7.org/fhir/us/core/StructureDefinition/us-core-race",
        "extension": [ {
          "url": "ombCategory",
          "valueCoding": {
            "system": "urn:oid:2.16.840.1.113883.6.238",
            "code": "2054-5",
            "display": "Black or African American",
            "userSelected": true
          }
        }, {
          "url": "text",
          "valueString": "Black or African American"
        } ]
      }, {
        "url": "http://hl7.org/fhir/us/core/StructureDefinition/us-core-ethnicity",
        "extension": [ {
          "url": "ombCategory",
          "valueCoding": {
            "system": "urn:oid:2.16.840.1.113883.6.238",
            "code": "2186-5",
            "display": "Not Hispanic or Latino",
            "userSelected": true
          }
        }, {
          "url": "text",
          "valueString": "Not Hispanic or Latino"
        } ]
      } ],
      "identifier": [ {
        "type": {
          "coding": [ {
            "system": "http://terminology.hl7.org/CodeSystem/v2-0203",
            "code": "MR"
          } ]
        },
        "system": "https://bonnie-fhir.healthit.gov/",
        "value": "60f82c2e98086b570510e282"
      } ],
      "active": true,
      "name": [ {
        "use": "usual",
        "family": "DENEXPass",
        "given": [ "Med1TPAStartinGapofEDandEncIP" ]
      } ],
      "gender": "female",
      "birthDate": "1976-09-26"
    },
    "request": {
      "method": "PUT",
      "url": "Patient/3fbd6ec2-8d40-45e7-90d7-747d7c491c1a"
    }
  }, {
    "fullUrl": "https://madie.cms.gov/Encounter/4f51f8cd-55bb-47c5-aeb9-fc76e0c2447f",
    "resource": {
      "resourceType": "Encounter",
      "id": "4f51f8cd-55bb-47c5-aeb9-fc76e0c2447f",
      "meta": {
        "profile": [ "http://hl7.org/fhir/us/qicore/StructureDefinition/qicore-encounter" ]
      },
      "status": "finished",
      "class": {
        "system": "http://terminology.hl7.org/CodeSystem/v3-ActCode",
        "code": "EMER",
        "display": "emergency"
      },
      "type": [ {
        "coding": [ {
          "system": "http://snomed.info/sct",
          "code": "4525004"
        } ]
      } ],
      "subject": {
        "reference": "Patient/3fbd6ec2-8d40-45e7-90d7-747d7c491c1a"
      },
      "period": {
        "start": "2026-10-10T06:00:00Z",
        "end": "2026-10-10T08:30:00.000+00:00"
      },
      "length": {
        "value": 0,
        "unit": "days"
      }
    },
    "request": {
      "method": "PUT",
      "url": "Encounter/4f51f8cd-55bb-47c5-aeb9-fc76e0c2447f"
    }
  }, {
    "fullUrl": "https://madie.cms.gov/Encounter/9b95dcda-6a70-45ef-90c0-a048d860757e",
    "resource": {
      "resourceType": "Encounter",
      "id": "9b95dcda-6a70-45ef-90c0-a048d860757e",
      "meta": {
        "profile": [ "http://hl7.org/fhir/us/qicore/StructureDefinition/qicore-encounter" ]
      },
      "status": "finished",
      "class": {
        "system": "http://terminology.hl7.org/CodeSystem/v3-ActCode",
        "code": "IMP",
        "display": "inpatient encounter"
      },
      "type": [ {
        "coding": [ {
          "system": "http://snomed.info/sct",
          "code": "32485007"
        } ]
      } ],
      "subject": {
        "reference": "Patient/3fbd6ec2-8d40-45e7-90d7-747d7c491c1a"
      },
      "period": {
        "start": "2026-10-10T09:00:00Z",
        "end": "2026-10-12T11:15:00.000+00:00"
      },
      "length": {
        "value": 2,
        "unit": "days"
      },
      "reasonReference": [ {
        "reference": "Condition/2aa55f21-d12d-4857-be5b-f2d3383b99d5"
      } ]
    },
    "request": {
      "method": "PUT",
      "url": "Encounter/9b95dcda-6a70-45ef-90c0-a048d860757e"
    }
  }, {
    "fullUrl": "https://madie.cms.gov/MedicationAdministration/d84f9d38-441a-44fc-96c0-1ca37706f3c4",
    "resource": {
      "resourceType": "MedicationAdministration",
      "id": "d84f9d38-441a-44fc-96c0-1ca37706f3c4",
      "meta": {
        "profile": [ "http://hl7.org/fhir/us/qicore/StructureDefinition/qicore-medicationadministration" ]
      },
      "status": "completed",
      "medicationCodeableConcept": {
        "coding": [ {
          "system": "http://www.nlm.nih.gov/research/umls/rxnorm",
          "code": "1804799"
        } ]
      },
      "subject": {
        "reference": "Patient/3fbd6ec2-8d40-45e7-90d7-747d7c491c1a"
      },
      "effectivePeriod": {
        "start": "2026-10-10T08:35:00Z"
      }
    },
    "request": {
      "method": "PUT",
      "url": "MedicationAdministration/d84f9d38-441a-44fc-96c0-1ca37706f3c4"
    }
  }, {
    "fullUrl": "https://madie.cms.gov/Coverage/067ceab1-b15f-4ca7-8b79-7647437c82cc",
    "resource": {
      "resourceType": "Coverage",
      "id": "067ceab1-b15f-4ca7-8b79-7647437c82cc",
      "status": "active",
      "beneficiary": {
        "reference": "Patient/3fbd6ec2-8d40-45e7-90d7-747d7c491c1a"
      },
      "period": {
        "start": "1976-09-26T08:00:00Z"
      },
      "payor": [ {
        "reference": "Organization/13ab785a-6eb2-428f-aa0f-00e2e1921cd4"
      } ]
    },
    "request": {
      "method": "PUT",
      "url": "Coverage/067ceab1-b15f-4ca7-8b79-7647437c82cc"
    }
  }, {
    "fullUrl": "https://madie.cms.gov/Condition/2aa55f21-d12d-4857-be5b-f2d3383b99d5",
    "resource": {
      "resourceType": "Condition",
      "id": "2aa55f21-d12d-4857-be5b-f2d3383b99d5",
      "meta": {
        "profile": [ "http://hl7.org/fhir/us/qicore/StructureDefinition/qicore-condition-encounter-diagnosis" ]
      },
      "clinicalStatus": {
        "coding": [ {
          "system": "http://terminology.hl7.org/CodeSystem/condition-clinical",
          "code": "active"
        } ]
      },
      "verificationStatus": {
        "coding": [ {
          "system": "http://terminology.hl7.org/CodeSystem/condition-ver-status",
          "code": "confirmed"
        } ]
      },
      "category": [ {
        "coding": [ {
          "system": "http://terminology.hl7.org/CodeSystem/condition-category",
          "code": "encounter-diagnosis",
          "display": "Encounter Diagnosis"
        } ]
      } ],
      "code": {
        "coding": [ {
          "system": "http://snomed.info/sct",
          "version": "2020-09",
          "code": "111297002",
          "display": "Nonparalytic stroke (disorder)",
          "userSelected": true
        } ]
      },
      "subject": {
        "reference": "Patient/3fbd6ec2-8d40-45e7-90d7-747d7c491c1a"
      },
      "encounter": {
        "reference": "Encounter/9b95dcda-6a70-45ef-90c0-a048d860757e"
      },
      "recordedDate": "2026-08-13T08:00:00Z"
    },
    "request": {
      "method": "PUT",
      "url": "Condition/2aa55f21-d12d-4857-be5b-f2d3383b99d5"
    }
  }, {
    "fullUrl": "https://madie.cms.gov/claim/5ca62962b8484628b8de1ec5",
    "resource": {
      "resourceType": "Claim",
      "id": "5ca62962b8484628b8de1ec5",
      "meta": {
        "profile": [ "http://hl7.org/fhir/us/qicore/StructureDefinition/qicore-claim" ]
      },
      "status": "active",
      "type": {
        "coding": [ {
          "system": "http://terminology.hl7.org/CodeSystem/claim-type",
          "code": "institutional"
        } ]
      },
      "use": "claim",
      "patient": {
        "reference": "Patient/3fbd6ec2-8d40-45e7-90d7-747d7c491c1a"
      },
      "created": "2026-12-01",
      "provider": {
        "reference": "Practitioner/practitioner-123456"
      },
      "priority": {
        "coding": [ {
          "system": "http://terminology.hl7.org/CodeSystem/processpriority",
          "code": "normal"
        } ]
      },
      "diagnosis": [ {
        "sequence": 1,
        "diagnosisCodeableConcept": {
          "coding": [ {
            "system": "http://hl7.org/fhir/sid/icd-10-cm",
            "code": "I63.00"
          } ]
        },
        "type": [ {
          "coding": [ {
            "system": "http://terminology.hl7.org/CodeSystem/ex-diagnosistype",
            "code": "principal"
          } ]
        } ]
      } ],
      "insurance": [ {
        "sequence": 1,
        "focal": true,
        "coverage": {
          "reference": "Coverage/5fa041661c76ba66d9959367"
        }
      } ],
      "item": [ {
        "sequence": 1,
        "diagnosisSequence": [ 1 ],
        "productOrService": {
          "coding": [ {
            "system": "http://terminology.hl7.org/CodeSystem/ex-USCLS",
            "code": "99555"
          } ]
        },
        "encounter": [ {
          "reference": "Encounter/9b95dcda-6a70-45ef-90c0-a048d860757e"
        } ]
      } ]
    },
    "request": {
      "method": "PUT",
      "url": "Claim/5ca62962b8484628b8de1ec5"
    }
  }, {
    "fullUrl": "https://madie.cms.gov/Organization/13ab785a-6eb2-428f-aa0f-00e2e1921cd4",
    "resource": {
      "resourceType": "Organization",
      "id": "13ab785a-6eb2-428f-aa0f-00e2e1921cd4",
      "meta": {
        "profile": [ "http://hl7.org/fhir/us/qicore/StructureDefinition/qicore-organization" ]
      },
      "identifier": [ {
        "use": "temp",
        "system": "urn:oid:2.16.840.1.113883.4.4",
        "value": "21-3259825"
      } ],
      "active": true,
      "type": [ {
        "coding": [ {
          "system": "http://terminology.hl7.org/CodeSystem/organization-type",
          "code": "pay",
          "display": "Payer"
        } ]
      } ],
      "name": "Blue Cross Blue Shield of Texas",
      "telecom": [ {
        "system": "phone",
        "value": "(+1) 972-766-6900"
      } ],
      "address": [ {
        "use": "billing",
        "type": "postal",
        "line": [ "P.O. Box 660044" ],
        "city": "Dallas",
        "state": "TX",
        "postalCode": "75266-0044",
        "country": "USA"
      } ]
    },
    "request": {
      "method": "PUT",
      "url": "Organization/13ab785a-6eb2-428f-aa0f-00e2e1921cd4"
    }
  }, {
    "fullUrl": "https://madie.cms.gov/MeasureReport/a50f98f1-28ac-4d2a-ad85-2fc95fcc9e8e",
    "resource": {
      "resourceType": "MeasureReport",
      "id": "a50f98f1-28ac-4d2a-ad85-2fc95fcc9e8e",
      "meta": {
        "profile": [ "http://hl7.org/fhir/us/cqfmeasures/StructureDefinition/test-case-cqfm" ]
      },
      "contained": [ {
        "resourceType": "Parameters",
        "id": "215c4f66-b5f4-4a3d-b0e1-523d0dcc3b9d-parameters",
        "parameter": [ {
          "name": "subject",
          "valueString": "3fbd6ec2-8d40-45e7-90d7-747d7c491c1a"
        } ]
      } ],
      "extension": [ {
        "url": "http://hl7.org/fhir/StructureDefinition/cqf-inputParameters",
        "valueReference": {
          "reference": "#215c4f66-b5f4-4a3d-b0e1-523d0dcc3b9d-parameters"
        }
      }, {
        "url": "http://hl7.org/fhir/us/cqfmeasures/StructureDefinition/cqfm-testCaseDescription",
        "valueMarkdown": "\"Patient has Med TPA between ED and Enc IP ,(in gap) \n  global.\"\"Hospitalization\"\" =(Ed+IP)\"\n"
      } ],
      "modifierExtension": [ {
        "url": "http://hl7.org/fhir/us/cqfmeasures/StructureDefinition/cqfm-isTestCase",
        "valueBoolean": true
      } ],
      "status": "complete",
      "type": "individual",
      "measure": "https://madie.cms.gov/Measure/CMS72FHIRSTKAntithromboticDay2",
      "period": {
        "start": "2026-01-01",
        "end": "2026-12-31"
      },
      "group": [ {
        "id": "Group_1",
        "population": [ {
          "id": "InitialPopulation_1",
          "code": {
            "coding": [ {
              "system": "http://terminology.hl7.org/CodeSystem/measure-population",
              "code": "initial-population",
              "display": "Initial Population"
            } ]
          },
          "count": 1
        }, {
          "id": "Denominator_1",
          "code": {
            "coding": [ {
              "system": "http://terminology.hl7.org/CodeSystem/measure-population",
              "code": "denominator",
              "display": "Denominator"
            } ]
          },
          "count": 1
        }, {
          "id": "DenominatorExclusion_1",
          "code": {
            "coding": [ {
              "system": "http://terminology.hl7.org/CodeSystem/measure-population",
              "code": "denominator-exclusion",
              "display": "Denominator Exclusion"
            } ]
          },
          "count": 1
        }, {
          "id": "Numerator_1",
          "code": {
            "coding": [ {
              "system": "http://terminology.hl7.org/CodeSystem/measure-population",
              "code": "numerator",
              "display": "Numerator"
            } ]
          },
          "count": 0
        }, {
          "id": "DenominatorException_1",
          "code": {
            "coding": [ {
              "system": "http://terminology.hl7.org/CodeSystem/measure-population",
              "code": "denominator-exception",
              "display": "Denominator Exception"
            } ]
          },
          "count": 0
        } ],
        "measureScore": {
          "value": 0.0
        }
      } ],
      "evaluatedResource": [ {
        "reference": "Patient/3fbd6ec2-8d40-45e7-90d7-747d7c491c1a"
      }, {
        "reference": "Encounter/4f51f8cd-55bb-47c5-aeb9-fc76e0c2447f"
      }, {
        "reference": "Encounter/9b95dcda-6a70-45ef-90c0-a048d860757e"
      }, {
        "reference": "MedicationAdministration/d84f9d38-441a-44fc-96c0-1ca37706f3c4"
      }, {
        "reference": "Coverage/067ceab1-b15f-4ca7-8b79-7647437c82cc"
      }, {
        "reference": "Condition/2aa55f21-d12d-4857-be5b-f2d3383b99d5"
      }, {
        "reference": "Claim/5ca62962b8484628b8de1ec5"
      }, {
        "reference": "Organization/13ab785a-6eb2-428f-aa0f-00e2e1921cd4"
      } ]
    },
    "request": {
      "method": "PUT",
      "url": "MeasureReport/a50f98f1-28ac-4d2a-ad85-2fc95fcc9e8e"
    }
  } ]
}