{
  "resourceType": "Bundle",
  "id": "63487c2f0968f801225401af",
  "type": "transaction",
  "entry": [ {
    "fullUrl": "https://madie.cms.gov/Patient/2559be2d-0175-4018-8dfa-958ac2b1696d",
    "resource": {
      "resourceType": "Patient",
      "id": "2559be2d-0175-4018-8dfa-958ac2b1696d",
      "meta": {
        "profile": [ "http://hl7.org/fhir/us/qicore/StructureDefinition/qicore-patient" ]
      },
      "text": {
        "status": "generated",
        "div": "<div xmlns=\"http://www.w3.org/1999/xhtml\"><div class=\"hapiHeaderText\">AssessTimeOfDelivResultIsNull<b>DENOMFail</b></div><table class=\"hapiPropertyTable\"><tbody><tr><td>Identifier</td><td>2b1f0141ffe85efd85bb0ba18ddf833ac147ccc7ffd86f1de2a9b7f23de6478b</td></tr><tr><td>Date of birth</td><td><span>14 February 1985</span></td></tr></tbody></table></div>"
      },
      "extension": [ {
        "url": "http://hl7.org/fhir/us/core/StructureDefinition/us-core-race",
        "extension": [ {
          "url": "ombCategory",
          "valueCoding": {
            "system": "urn:oid:2.16.840.1.113883.6.238",
            "code": "1002-5",
            "display": "American Indian or Alaska Native",
            "userSelected": true
          }
        }, {
          "url": "text",
          "valueString": "American Indian or Alaska Native"
        } ]
      }, {
        "url": "http://hl7.org/fhir/us/core/StructureDefinition/us-core-ethnicity",
        "extension": [ {
          "url": "ombCategory",
          "valueCoding": {
            "system": "urn:oid:2.16.840.1.113883.6.238",
            "code": "2135-2",
            "display": "Hispanic or Latino",
            "userSelected": true
          }
        }, {
          "url": "text",
          "valueString": "Hispanic or Latino"
        } ]
      } ],
      "identifier": [ {
        "type": {
          "coding": [ {
            "system": "http://terminology.hl7.org/CodeSystem/v2-0203",
            "code": "MR"
          } ]
        },
        "system": "https://bonnie-fhir.healthit.gov/",
        "value": "63487c2f0968f801225401af"
      } ],
      "active": true,
      "name": [ {
        "use": "usual",
        "family": "DENOMFail",
        "given": [ "AssessTimeOfDelivResultIsNull" ]
      } ],
      "gender": "female",
      "birthDate": "1998-02-14"
    },
    "request": {
      "method": "PUT",
      "url": "Patient/2559be2d-0175-4018-8dfa-958ac2b1696d"
    }
  }, {
    "fullUrl": "https://madie.cms.gov/Observation/2fbc5d8a-6477-4830-97a9-6fd3657801bd",
    "resource": {
      "resourceType": "Observation",
      "id": "2fbc5d8a-6477-4830-97a9-6fd3657801bd",
      "meta": {
        "profile": [ "http://hl7.org/fhir/us/qicore/StructureDefinition/qicore-simple-observation" ]
      },
      "status": "final",
      "category": [ {
        "coding": [ {
          "system": "http://terminology.hl7.org/CodeSystem/observation-category",
          "code": "exam",
          "display": "exam",
          "userSelected": true
        } ]
      } ],
      "code": {
        "coding": [ {
          "system": "http://loinc.org",
          "code": "11884-4"
        } ]
      },
      "subject": {
        "reference": "Patient/2559be2d-0175-4018-8dfa-958ac2b1696d"
      },
      "effectiveDateTime": "2026-06-08T07:15:00.000+00:00",
      "performer": [ {
        "reference": "Organization/example1",
        "display": "Hendricks Country Hospital"
      } ],
      "valueQuantity": {
        "value": 38,
        "system": "http://unitsofmeasure.org",
        "code": "wk"
      }
    },
    "request": {
      "method": "PUT",
      "url": "Observation/2fbc5d8a-6477-4830-97a9-6fd3657801bd"
    }
  }, {
    "fullUrl": "https://madie.cms.gov/Observation/32326379-975b-43d5-b065-7d0ff9f1263f",
    "resource": {
      "resourceType": "Observation",
      "id": "32326379-975b-43d5-b065-7d0ff9f1263f",
      "meta": {
        "profile": [ "http://hl7.org/fhir/us/qicore/StructureDefinition/qicore-simple-observation" ]
      },
      "status": "final",
      "category": [ {
        "coding": [ {
          "system": "http://terminology.hl7.org/CodeSystem/observation-category",
          "code": "exam",
          "display": "exam",
          "userSelected": true
        } ]
      } ],
      "code": {
        "coding": [ {
          "system": "http://loinc.org",
          "code": "11996-6"
        } ]
      },
      "subject": {
        "reference": "Patient/2559be2d-0175-4018-8dfa-958ac2b1696d"
      },
      "effectiveDateTime": "2026-06-08T07:59:00.000+00:00",
      "performer": [ {
        "reference": "Organization/example1",
        "display": "Hendricks Country Hospital"
      } ],
      "valueInteger": 1
    },
    "request": {
      "method": "PUT",
      "url": "Observation/32326379-975b-43d5-b065-7d0ff9f1263f"
    }
  }, {
    "fullUrl": "https://madie.cms.gov/Observation/6457fcf9-8203-470d-9c5b-895a69b52151",
    "resource": {
      "resourceType": "Observation",
      "id": "6457fcf9-8203-470d-9c5b-895a69b52151",
      "meta": {
        "profile": [ "http://hl7.org/fhir/us/qicore/StructureDefinition/qicore-simple-observation" ]
      },
      "status": "final",
      "category": [ {
        "coding": [ {
          "system": "http://terminology.hl7.org/CodeSystem/observation-category",
          "code": "exam",
          "display": "exam",
          "userSelected": true
        } ]
      } ],
      "code": {
        "coding": [ {
          "system": "http://loinc.org",
          "code": "93857-1"
        } ]
      },
      "subject": {
        "reference": "Patient/2559be2d-0175-4018-8dfa-958ac2b1696d"
      },
      "effectiveDateTime": "2026-06-08T08:00:00.000+00:00",
      "performer": [ {
        "reference": "Organization/example1",
        "display": "Hendricks Country Hospital"
      } ]
    },
    "request": {
      "method": "PUT",
      "url": "Observation/6457fcf9-8203-470d-9c5b-895a69b52151"
    }
  }, {
    "fullUrl": "https://madie.cms.gov/Encounter/40e053ec-9cf6-4f1d-b659-f9f502499c7c",
    "resource": {
      "resourceType": "Encounter",
      "id": "40e053ec-9cf6-4f1d-b659-f9f502499c7c",
      "meta": {
        "profile": [ "http://hl7.org/fhir/us/qicore/StructureDefinition/qicore-encounter" ]
      },
      "status": "finished",
      "class": {
        "system": "http://terminology.hl7.org/CodeSystem/v3-ActCode",
        "code": "IMP",
        "display": "inpatient encounter"
      },
      "type": [ {
        "coding": [ {
          "system": "http://snomed.info/sct",
          "code": "183452005"
        } ]
      } ],
      "subject": {
        "reference": "Patient/2559be2d-0175-4018-8dfa-958ac2b1696d"
      },
      "period": {
        "start": "2026-06-08T08:00:00.000+00:00",
        "end": "2026-06-10T08:15:00.000+00:00"
      },
      "length": {
        "value": 2,
        "unit": "days"
      },
      "reasonCode": [ {
        "coding": [ {
          "system": "http://snomed.info/sct",
          "code": "169826009",
          "display": "Single live birth from singleton pregnancy (finding)"
        } ]
      } ]
    },
    "request": {
      "method": "PUT",
      "url": "Encounter/40e053ec-9cf6-4f1d-b659-f9f502499c7c"
    }
  }, {
    "fullUrl": "https://madie.cms.gov/Procedure/b6348fb0-e798-4403-aea4-d616e9952d25",
    "resource": {
      "resourceType": "Procedure",
      "id": "b6348fb0-e798-4403-aea4-d616e9952d25",
      "meta": {
        "profile": [ "http://hl7.org/fhir/us/qicore/StructureDefinition/qicore-procedure" ]
      },
      "extension": [ {
        "url": "http://hl7.org/fhir/us/qicore/StructureDefinition/qicore-recorded",
        "valueDateTime": "2014-04-05T13:35:00.000+00:00"
      } ],
      "status": "completed",
      "code": {
        "coding": [ {
          "system": "http://www.cms.gov/Medicare/Coding/ICD10",
          "code": "10D00Z0"
        }, {
          "system": "http://www.icd10data.com/icd10pcs",
          "code": "10D00Z0",
          "userSelected": true
        } ]
      },
      "subject": {
        "reference": "Patient/2559be2d-0175-4018-8dfa-958ac2b1696d"
      },
      "performedPeriod": {
        "start": "2026-06-08T08:00:00.000+00:00",
        "end": "2026-06-08T09:15:00.000+00:00"
      }
    },
    "request": {
      "method": "PUT",
      "url": "Procedure/b6348fb0-e798-4403-aea4-d616e9952d25"
    }
  }, {
    "fullUrl": "https://madie.cms.gov/Condition/eb44a295-601b-4876-b6b6-09f4e26eb9c1",
    "resource": {
      "resourceType": "Condition",
      "id": "eb44a295-601b-4876-b6b6-09f4e26eb9c1",
      "meta": {
        "profile": [ "http://hl7.org/fhir/us/qicore/StructureDefinition/qicore-condition" ]
      },
      "category": [ {
        "coding": [ {
          "system": "http://terminology.hl7.org/CodeSystem/condition-category",
          "code": "encounter-diagnosis",
          "display": "Encounter Diagnosis"
        } ]
      } ],
      "code": {
        "coding": [ {
          "system": "http://snomed.info/sct",
          "version": "2022-09",
          "code": "169826009",
          "display": "Single live birth (finding)",
          "userSelected": true
        } ]
      },
      "subject": {
        "reference": "Patient/2559be2d-0175-4018-8dfa-958ac2b1696d"
      },
      "recordedDate": "2026-10-21T08:00:00.000+00:00"
    },
    "request": {
      "method": "PUT",
      "url": "Condition/eb44a295-601b-4876-b6b6-09f4e26eb9c1"
    }
  }, {
    "fullUrl": "https://madie.cms.gov/Coverage/6b3f18cc-019a-42f7-81bf-da189392528a",
    "resource": {
      "resourceType": "Coverage",
      "id": "6b3f18cc-019a-42f7-81bf-da189392528a",
      "meta": {
        "profile": [ "http://hl7.org/fhir/us/qicore/StructureDefinition/qicore-coverage" ]
      },
      "status": "active",
      "subscriberId": "523435",
      "beneficiary": {
        "reference": "Patient/2559be2d-0175-4018-8dfa-958ac2b1696d"
      },
      "relationship": {
        "coding": [ {
          "system": "http://terminology.hl7.org/CodeSystem/subscriber-relationship",
          "code": "self"
        } ]
      },
      "payor": [ {
        "reference": "Organization/1e007ad0-372c-437e-85fa-dfc0c161af10"
      } ]
    },
    "request": {
      "method": "PUT",
      "url": "Coverage/6b3f18cc-019a-42f7-81bf-da189392528a"
    }
  }, {
    "fullUrl": "https://madie.cms.gov/Organization/1e007ad0-372c-437e-85fa-dfc0c161af10",
    "resource": {
      "resourceType": "Organization",
      "id": "1e007ad0-372c-437e-85fa-dfc0c161af10",
      "meta": {
        "profile": [ "http://hl7.org/fhir/us/qicore/StructureDefinition/qicore-organization" ]
      },
      "identifier": [ {
        "use": "temp",
        "system": "urn:oid:2.16.840.1.113883.4.4",
        "value": "21-3259825"
      } ],
      "active": true,
      "type": [ {
        "coding": [ {
          "system": "http://terminology.hl7.org/CodeSystem/organization-type",
          "code": "pay",
          "display": "Payer"
        } ]
      } ],
      "name": "Blue Cross Blue Shield of Texas",
      "telecom": [ {
        "system": "phone",
        "value": "(+1) 972-766-6900"
      } ],
      "address": [ {
        "use": "billing",
        "type": "postal",
        "line": [ "P.O. Box 660044" ],
        "city": "Dallas",
        "state": "TX",
        "postalCode": "75266-0044",
        "country": "USA"
      } ]
    },
    "request": {
      "method": "PUT",
      "url": "Organization/1e007ad0-372c-437e-85fa-dfc0c161af10"
    }
  }, {
    "fullUrl": "https://madie.cms.gov/Practitioner/6f7402ce-4e9f-49bb-b083-45aa13ec805f",
    "resource": {
      "resourceType": "Practitioner",
      "id": "6f7402ce-4e9f-49bb-b083-45aa13ec805f",
      "meta": {
        "profile": [ "http://hl7.org/fhir/us/qicore/StructureDefinition/qicore-practitioner" ]
      },
      "identifier": [ {
        "system": "http://hl7.org/fhir/sid/us-npi",
        "value": "1234567890"
      } ],
      "name": [ {
        "family": "Evil",
        "prefix": [ "Dr" ]
      } ]
    },
    "request": {
      "method": "PUT",
      "url": "Practitioner/6f7402ce-4e9f-49bb-b083-45aa13ec805f"
    }
  }, {
    "fullUrl": "https://madie.cms.gov/MeasureReport/376079de-2d02-4580-a725-f6421ad85230",
    "resource": {
      "resourceType": "MeasureReport",
      "id": "376079de-2d02-4580-a725-f6421ad85230",
      "meta": {
        "profile": [ "http://hl7.org/fhir/us/cqfmeasures/StructureDefinition/test-case-cqfm" ]
      },
      "contained": [ {
        "resourceType": "Parameters",
        "id": "1e4a85cf-db52-4a5a-baca-aa764bcf9b37-parameters",
        "parameter": [ {
          "name": "subject",
          "valueString": "2559be2d-0175-4018-8dfa-958ac2b1696d"
        } ]
      } ],
      "extension": [ {
        "url": "http://hl7.org/fhir/StructureDefinition/cqf-inputParameters",
        "valueReference": {
          "reference": "#1e4a85cf-db52-4a5a-baca-aa764bcf9b37-parameters"
        }
      }, {
        "url": "http://hl7.org/fhir/us/cqfmeasures/StructureDefinition/cqfm-testCaseDescription",
        "valueMarkdown": "Passes: IP, Fails DENOM   Pt is 27 years of age,  encounter dx of delivery of singleton, gravida, EGA( >37 ) and @ 38 weeks, AsseDelivTm Result Is NULL\n"
      } ],
      "modifierExtension": [ {
        "url": "http://hl7.org/fhir/us/cqfmeasures/StructureDefinition/cqfm-isTestCase",
        "valueBoolean": true
      } ],
      "status": "complete",
      "type": "individual",
      "measure": "https://madie.cms.gov/Measure/CMS0334FHIRPCCesareanBirth",
      "period": {
        "start": "2026-01-01",
        "end": "2026-12-31"
      },
      "group": [ {
        "id": "Group_1",
        "population": [ {
          "id": "InitialPopulation_1",
          "code": {
            "coding": [ {
              "system": "http://terminology.hl7.org/CodeSystem/measure-population",
              "code": "initial-population",
              "display": "Initial Population"
            } ]
          },
          "count": 1
        }, {
          "id": "Denominator_1",
          "code": {
            "coding": [ {
              "system": "http://terminology.hl7.org/CodeSystem/measure-population",
              "code": "denominator",
              "display": "Denominator"
            } ]
          },
          "count": 0
        }, {
          "id": "DenominatorExclusion_1",
          "code": {
            "coding": [ {
              "system": "http://terminology.hl7.org/CodeSystem/measure-population",
              "code": "denominator-exclusion",
              "display": "Denominator Exclusion"
            } ]
          },
          "count": 0
        }, {
          "id": "Numerator_1",
          "code": {
            "coding": [ {
              "system": "http://terminology.hl7.org/CodeSystem/measure-population",
              "code": "numerator",
              "display": "Numerator"
            } ]
          },
          "count": 0
        } ],
        "measureScore": {
          "value": 0.0
        }
      } ],
      "evaluatedResource": [ {
        "reference": "Patient/2559be2d-0175-4018-8dfa-958ac2b1696d"
      }, {
        "reference": "Observation/2fbc5d8a-6477-4830-97a9-6fd3657801bd"
      }, {
        "reference": "Observation/32326379-975b-43d5-b065-7d0ff9f1263f"
      }, {
        "reference": "Observation/6457fcf9-8203-470d-9c5b-895a69b52151"
      }, {
        "reference": "Encounter/40e053ec-9cf6-4f1d-b659-f9f502499c7c"
      }, {
        "reference": "Procedure/b6348fb0-e798-4403-aea4-d616e9952d25"
      }, {
        "reference": "Condition/eb44a295-601b-4876-b6b6-09f4e26eb9c1"
      }, {
        "reference": "Coverage/6b3f18cc-019a-42f7-81bf-da189392528a"
      }, {
        "reference": "Organization/1e007ad0-372c-437e-85fa-dfc0c161af10"
      }, {
        "reference": "Practitioner/6f7402ce-4e9f-49bb-b083-45aa13ec805f"
      } ]
    },
    "request": {
      "method": "PUT",
      "url": "MeasureReport/376079de-2d02-4580-a725-f6421ad85230"
    }
  } ]
}