{
  "resourceType": "Bundle",
  "id": "633c9d040968f8012250fca6",
  "type": "transaction",
  "entry": [ {
    "fullUrl": "https://madie.cms.gov/Patient/e73d1055-c564-4663-9af0-d3ccabeb49c8",
    "resource": {
      "resourceType": "Patient",
      "id": "e73d1055-c564-4663-9af0-d3ccabeb49c8",
      "meta": {
        "profile": [ "http://hl7.org/fhir/us/qicore/StructureDefinition/qicore-patient" ]
      },
      "text": {
        "status": "generated",
        "div": "<div xmlns=\"http://www.w3.org/1999/xhtml\"><div class=\"hapiHeaderText\">CMOdurED_ED=1hrObs=1hrBFEnc <b>DENEXPASS </b></div><table class=\"hapiPropertyTable\"><tbody><tr><td>Identifier</td><td>6154ed3e6029d496bda5b35d3515afbbdc41984dd4c9181d132c9b1c15092843</td></tr><tr><td>Date of birth</td><td><span>18 September 1985</span></td></tr></tbody></table></div>"
      },
      "extension": [ {
        "url": "http://hl7.org/fhir/us/core/StructureDefinition/us-core-race",
        "extension": [ {
          "url": "ombCategory",
          "valueCoding": {
            "system": "urn:oid:2.16.840.1.113883.6.238",
            "code": "1002-5",
            "display": "American Indian or Alaska Native",
            "userSelected": true
          }
        }, {
          "url": "text",
          "valueString": "American Indian or Alaska Native"
        } ]
      }, {
        "url": "http://hl7.org/fhir/us/core/StructureDefinition/us-core-ethnicity",
        "extension": [ {
          "url": "ombCategory",
          "valueCoding": {
            "system": "urn:oid:2.16.840.1.113883.6.238",
            "code": "2135-2",
            "display": "Hispanic or Latino",
            "userSelected": true
          }
        }, {
          "url": "text",
          "valueString": "Hispanic or Latino"
        } ]
      } ],
      "identifier": [ {
        "type": {
          "coding": [ {
            "system": "http://terminology.hl7.org/CodeSystem/v2-0203",
            "code": "MR"
          } ]
        },
        "system": "https://bonnie-fhir.healthit.gov/",
        "value": "633c9d040968f8012250fca6"
      } ],
      "active": true,
      "name": [ {
        "use": "usual",
        "family": "DENEXPass",
        "given": [ "CMOdurED_ED=1hrObs=1hrBFEnc" ]
      } ],
      "gender": "female",
      "birthDate": "1986-09-18"
    },
    "request": {
      "method": "PUT",
      "url": "Patient/e73d1055-c564-4663-9af0-d3ccabeb49c8"
    }
  }, {
    "fullUrl": "https://madie.cms.gov/Condition/48e3603b-a593-4b22-935b-6f1ba2c25ffe",
    "resource": {
      "resourceType": "Condition",
      "id": "48e3603b-a593-4b22-935b-6f1ba2c25ffe",
      "meta": {
        "profile": [ "http://hl7.org/fhir/us/qicore/StructureDefinition/qicore-condition-problems-health-concerns" ]
      },
      "clinicalStatus": {
        "coding": [ {
          "system": "http://terminology.hl7.org/CodeSystem/condition-clinical",
          "code": "inactive"
        } ]
      },
      "verificationStatus": {
        "coding": [ {
          "system": "http://terminology.hl7.org/CodeSystem/condition-ver-status",
          "code": "confirmed"
        } ]
      },
      "category": [ {
        "coding": [ {
          "system": "http://terminology.hl7.org/CodeSystem/condition-category",
          "code": "encounter-diagnosis",
          "display": "Encounter Diagnosis"
        } ]
      } ],
      "code": {
        "coding": [ {
          "system": "http://hl7.org/fhir/sid/icd-10-cm",
          "code": "I48.20"
        }, {
          "system": "http://hl7.org/fhir/sid/icd-10-cm",
          "code": "I48.0"
        }, {
          "system": "http://snomed.info/sct",
          "code": "5370000"
        } ]
      },
      "subject": {
        "reference": "Patient/e73d1055-c564-4663-9af0-d3ccabeb49c8"
      },
      "onsetDateTime": "2026-10-01T09:00:00Z",
      "abatementDateTime": "2026-10-12T00:15:00.000+00:00"
    },
    "request": {
      "method": "PUT",
      "url": "Condition/48e3603b-a593-4b22-935b-6f1ba2c25ffe"
    }
  }, {
    "fullUrl": "https://madie.cms.gov/Encounter/18b9a50e-041a-433c-9220-b98807a92dc3",
    "resource": {
      "resourceType": "Encounter",
      "id": "18b9a50e-041a-433c-9220-b98807a92dc3",
      "meta": {
        "profile": [ "http://hl7.org/fhir/us/qicore/StructureDefinition/qicore-encounter" ]
      },
      "status": "finished",
      "class": {
        "system": "http://terminology.hl7.org/CodeSystem/v3-ActCode",
        "code": "EMER",
        "display": "emergency"
      },
      "type": [ {
        "coding": [ {
          "system": "http://snomed.info/sct",
          "code": "4525004"
        } ]
      } ],
      "subject": {
        "reference": "Patient/e73d1055-c564-4663-9af0-d3ccabeb49c8"
      },
      "period": {
        "start": "2026-09-30T07:59:00Z",
        "end": "2026-09-30T08:00:00.000+00:00"
      },
      "length": {
        "value": 0,
        "unit": "days"
      }
    },
    "request": {
      "method": "PUT",
      "url": "Encounter/18b9a50e-041a-433c-9220-b98807a92dc3"
    }
  }, {
    "fullUrl": "https://madie.cms.gov/Encounter/eb5a1d57-9084-49ee-a077-5729e44533d2",
    "resource": {
      "resourceType": "Encounter",
      "id": "eb5a1d57-9084-49ee-a077-5729e44533d2",
      "meta": {
        "profile": [ "http://hl7.org/fhir/us/qicore/StructureDefinition/qicore-encounter" ]
      },
      "status": "finished",
      "class": {
        "system": "http://terminology.hl7.org/CodeSystem/v3-ActCode",
        "code": "OBSENC",
        "display": "observation encounter"
      },
      "type": [ {
        "coding": [ {
          "system": "http://snomed.info/sct",
          "code": "448951000124107"
        } ]
      } ],
      "subject": {
        "reference": "Patient/e73d1055-c564-4663-9af0-d3ccabeb49c8"
      },
      "period": {
        "start": "2026-09-30T09:00:00Z",
        "end": "2026-09-30T09:01:00.000+00:00"
      },
      "length": {
        "value": 0,
        "unit": "days"
      }
    },
    "request": {
      "method": "PUT",
      "url": "Encounter/eb5a1d57-9084-49ee-a077-5729e44533d2"
    }
  }, {
    "fullUrl": "https://madie.cms.gov/Encounter/a0bf4dad-5be4-469b-92b0-5e3edc940b34",
    "resource": {
      "resourceType": "Encounter",
      "id": "a0bf4dad-5be4-469b-92b0-5e3edc940b34",
      "meta": {
        "profile": [ "http://hl7.org/fhir/us/qicore/StructureDefinition/qicore-encounter" ]
      },
      "status": "finished",
      "class": {
        "system": "http://terminology.hl7.org/CodeSystem/v3-ActCode",
        "code": "IMP",
        "display": "inpatient encounter"
      },
      "type": [ {
        "coding": [ {
          "system": "http://snomed.info/sct",
          "code": "32485007"
        } ]
      } ],
      "subject": {
        "reference": "Patient/e73d1055-c564-4663-9af0-d3ccabeb49c8"
      },
      "period": {
        "start": "2026-09-30T10:01:00Z",
        "end": "2026-10-12T00:15:00.000+00:00"
      },
      "length": {
        "value": 12,
        "unit": "days"
      },
      "reasonReference": [ {
        "reference": "Condition/48e3603b-a593-4b22-935b-6f1ba2c25ffe"
      } ]
    },
    "request": {
      "method": "PUT",
      "url": "Encounter/a0bf4dad-5be4-469b-92b0-5e3edc940b34"
    }
  }, {
    "fullUrl": "https://madie.cms.gov/claim/5ca62962b8484628b8de1ec5",
    "resource": {
      "resourceType": "Claim",
      "id": "5ca62962b8484628b8de1ec5",
      "meta": {
        "profile": [ "http://hl7.org/fhir/us/qicore/StructureDefinition/qicore-claim" ]
      },
      "status": "active",
      "type": {
        "coding": [ {
          "system": "http://terminology.hl7.org/CodeSystem/claim-type",
          "code": "institutional"
        } ]
      },
      "use": "claim",
      "patient": {
        "reference": "Patient/e73d1055-c564-4663-9af0-d3ccabeb49c8"
      },
      "created": "2026-12-01",
      "provider": {
        "reference": "Practitioner/aa33d943-8b37-4bfa-914c-ee303d7b39aa"
      },
      "priority": {
        "coding": [ {
          "system": "http://terminology.hl7.org/CodeSystem/processpriority",
          "code": "normal"
        } ]
      },
      "diagnosis": [ {
        "sequence": 1,
        "diagnosisCodeableConcept": {
          "coding": [ {
            "system": "http://hl7.org/fhir/sid/icd-10-cm",
            "code": "I63.00"
          } ]
        },
        "type": [ {
          "coding": [ {
            "system": "http://terminology.hl7.org/CodeSystem/ex-diagnosistype",
            "code": "principal"
          } ]
        } ]
      } ],
      "insurance": [ {
        "sequence": 1,
        "focal": true,
        "coverage": {
          "reference": "Coverage/5fa041661c76ba66d9959367"
        }
      } ],
      "item": [ {
        "sequence": 1,
        "diagnosisSequence": [ 1 ],
        "productOrService": {
          "coding": [ {
            "system": "http://terminology.hl7.org/CodeSystem/ex-USCLS",
            "code": "99555"
          } ]
        },
        "encounter": [ {
          "reference": "Encounter/a0bf4dad-5be4-469b-92b0-5e3edc940b34"
        } ]
      } ]
    },
    "request": {
      "method": "PUT",
      "url": "Claim/5ca62962b8484628b8de1ec5"
    }
  }, {
    "fullUrl": "https://madie.cms.gov/ServiceRequest/91c5afd6-8246-4c4a-a96a-be117e4b139c",
    "resource": {
      "resourceType": "ServiceRequest",
      "id": "91c5afd6-8246-4c4a-a96a-be117e4b139c",
      "meta": {
        "profile": [ "http://hl7.org/fhir/us/qicore/StructureDefinition/qicore-servicerequest" ]
      },
      "status": "active",
      "intent": "order",
      "code": {
        "coding": [ {
          "system": "http://snomed.info/sct",
          "code": "133918004"
        } ]
      },
      "subject": {
        "reference": "Patient/e73d1055-c564-4663-9af0-d3ccabeb49c8"
      },
      "authoredOn": "2026-09-30T08:00:00Z"
    },
    "request": {
      "method": "PUT",
      "url": "ServiceRequest/91c5afd6-8246-4c4a-a96a-be117e4b139c"
    }
  }, {
    "fullUrl": "https://madie.cms.gov/Coverage/b0e4f0d8-5c37-43d5-bb83-0e177243bada",
    "resource": {
      "resourceType": "Coverage",
      "id": "b0e4f0d8-5c37-43d5-bb83-0e177243bada",
      "meta": {
        "profile": [ "http://hl7.org/fhir/us/qicore/StructureDefinition/qicore-coverage" ]
      },
      "status": "active",
      "subscriberId": "523435",
      "beneficiary": {
        "reference": "Patient/162a5913-9989-42f2-8d6a-ae460e245e4c"
      },
      "relationship": {
        "coding": [ {
          "system": "http://terminology.hl7.org/CodeSystem/subscriber-relationship",
          "code": "self"
        } ]
      },
      "payor": [ {
        "reference": "Organization/5904aeb0-0893-4558-9780-915e167f3300"
      } ]
    },
    "request": {
      "method": "PUT",
      "url": "Coverage/b0e4f0d8-5c37-43d5-bb83-0e177243bada"
    }
  }, {
    "fullUrl": "https://madie.cms.gov/Condition/8df4f686-884a-43fe-9db7-e3662aeec1e2",
    "resource": {
      "resourceType": "Condition",
      "id": "8df4f686-884a-43fe-9db7-e3662aeec1e2",
      "meta": {
        "profile": [ "http://hl7.org/fhir/us/qicore/StructureDefinition/qicore-condition-problems-health-concerns" ]
      },
      "clinicalStatus": {
        "coding": [ {
          "system": "http://terminology.hl7.org/CodeSystem/condition-clinical",
          "code": "active"
        } ]
      },
      "verificationStatus": {
        "coding": [ {
          "system": "http://terminology.hl7.org/CodeSystem/condition-ver-status",
          "code": "confirmed"
        } ]
      },
      "category": [ {
        "coding": [ {
          "system": "http://terminology.hl7.org/CodeSystem/condition-category",
          "code": "encounter-diagnosis",
          "display": "Encounter Diagnosis"
        } ]
      } ],
      "code": {
        "coding": [ {
          "system": "http://snomed.info/sct",
          "version": "2021-09",
          "code": "111297002",
          "display": "Nonparalytic stroke (disorder)",
          "userSelected": true
        } ]
      },
      "subject": {
        "reference": "Patient/e73d1055-c564-4663-9af0-d3ccabeb49c8"
      },
      "recordedDate": "2026-10-13T08:00:00Z"
    },
    "request": {
      "method": "PUT",
      "url": "Condition/8df4f686-884a-43fe-9db7-e3662aeec1e2"
    }
  }, {
    "fullUrl": "https://madie.cms.gov/Organization/5904aeb0-0893-4558-9780-915e167f3300",
    "resource": {
      "resourceType": "Organization",
      "id": "5904aeb0-0893-4558-9780-915e167f3300",
      "meta": {
        "profile": [ "http://hl7.org/fhir/us/qicore/StructureDefinition/qicore-organization" ]
      },
      "identifier": [ {
        "use": "temp",
        "system": "urn:oid:2.16.840.1.113883.4.4",
        "value": "21-3259825"
      } ],
      "active": true,
      "type": [ {
        "coding": [ {
          "system": "http://terminology.hl7.org/CodeSystem/organization-type",
          "code": "pay",
          "display": "Payer"
        } ]
      } ],
      "name": "Blue Cross Blue Shield of Texas",
      "telecom": [ {
        "system": "phone",
        "value": "(+1) 972-766-6900"
      } ],
      "address": [ {
        "use": "billing",
        "type": "postal",
        "line": [ "P.O. Box 660044" ],
        "city": "Dallas",
        "state": "TX",
        "postalCode": "75266-0044",
        "country": "USA"
      } ]
    },
    "request": {
      "method": "PUT",
      "url": "Organization/5904aeb0-0893-4558-9780-915e167f3300"
    }
  }, {
    "fullUrl": "https://madie.cms.gov/Practitioner/aa33d943-8b37-4bfa-914c-ee303d7b39aa",
    "resource": {
      "resourceType": "Practitioner",
      "id": "aa33d943-8b37-4bfa-914c-ee303d7b39aa",
      "identifier": [ {
        "system": "http://hl7.org/fhir/sid/us-npi",
        "value": "123456"
      } ],
      "name": [ {
        "family": "Evil",
        "prefix": [ "Dr" ]
      } ]
    },
    "request": {
      "method": "PUT",
      "url": "Practitioner/aa33d943-8b37-4bfa-914c-ee303d7b39aa"
    }
  }, {
    "fullUrl": "https://madie.cms.gov/MeasureReport/06f65ec9-25f4-4244-81cf-38066af49431",
    "resource": {
      "resourceType": "MeasureReport",
      "id": "06f65ec9-25f4-4244-81cf-38066af49431",
      "meta": {
        "profile": [ "http://hl7.org/fhir/us/cqfmeasures/StructureDefinition/test-case-cqfm" ]
      },
      "contained": [ {
        "resourceType": "Parameters",
        "id": "506a4fa5-f2b1-4408-a5ed-81c55937ac81-parameters",
        "parameter": [ {
          "name": "subject",
          "valueString": "e73d1055-c564-4663-9af0-d3ccabeb49c8"
        } ]
      } ],
      "extension": [ {
        "url": "http://hl7.org/fhir/StructureDefinition/cqf-inputParameters",
        "valueReference": {
          "reference": "#506a4fa5-f2b1-4408-a5ed-81c55937ac81-parameters"
        }
      }, {
        "url": "http://hl7.org/fhir/us/cqfmeasures/StructureDefinition/cqfm-testCaseDescription",
        "valueMarkdown": "Patient receives CMO during ED. ED ends 60 min before Obs start and Obs ends 60 min before  inpatient start.  Testing HospitalizationWithObservation function\n"
      } ],
      "modifierExtension": [ {
        "url": "http://hl7.org/fhir/us/cqfmeasures/StructureDefinition/cqfm-isTestCase",
        "valueBoolean": true
      } ],
      "status": "complete",
      "type": "individual",
      "measure": "https://madie.cms.gov/Measure/CMS71FHIRSTKAnticoagAFFlutter",
      "period": {
        "start": "2026-01-01",
        "end": "2026-12-31"
      },
      "group": [ {
        "id": "Group_1",
        "population": [ {
          "id": "InitialPopulation_1",
          "code": {
            "coding": [ {
              "system": "http://terminology.hl7.org/CodeSystem/measure-population",
              "code": "initial-population",
              "display": "Initial Population"
            } ]
          },
          "count": 1
        }, {
          "id": "Denominator_1",
          "code": {
            "coding": [ {
              "system": "http://terminology.hl7.org/CodeSystem/measure-population",
              "code": "denominator",
              "display": "Denominator"
            } ]
          },
          "count": 1
        }, {
          "id": "DenominatorExclusion_1",
          "code": {
            "coding": [ {
              "system": "http://terminology.hl7.org/CodeSystem/measure-population",
              "code": "denominator-exclusion",
              "display": "Denominator Exclusion"
            } ]
          },
          "count": 1
        }, {
          "id": "Numerator_1",
          "code": {
            "coding": [ {
              "system": "http://terminology.hl7.org/CodeSystem/measure-population",
              "code": "numerator",
              "display": "Numerator"
            } ]
          },
          "count": 0
        }, {
          "id": "DenominatorException_1",
          "code": {
            "coding": [ {
              "system": "http://terminology.hl7.org/CodeSystem/measure-population",
              "code": "denominator-exception",
              "display": "Denominator Exception"
            } ]
          },
          "count": 0
        } ],
        "measureScore": {
          "value": 0.0
        }
      } ],
      "evaluatedResource": [ {
        "reference": "Patient/e73d1055-c564-4663-9af0-d3ccabeb49c8"
      }, {
        "reference": "Condition/48e3603b-a593-4b22-935b-6f1ba2c25ffe"
      }, {
        "reference": "Encounter/18b9a50e-041a-433c-9220-b98807a92dc3"
      }, {
        "reference": "Encounter/eb5a1d57-9084-49ee-a077-5729e44533d2"
      }, {
        "reference": "Encounter/a0bf4dad-5be4-469b-92b0-5e3edc940b34"
      }, {
        "reference": "Claim/5ca62962b8484628b8de1ec5"
      }, {
        "reference": "ServiceRequest/91c5afd6-8246-4c4a-a96a-be117e4b139c"
      }, {
        "reference": "Coverage/b0e4f0d8-5c37-43d5-bb83-0e177243bada"
      }, {
        "reference": "Condition/8df4f686-884a-43fe-9db7-e3662aeec1e2"
      }, {
        "reference": "Organization/5904aeb0-0893-4558-9780-915e167f3300"
      }, {
        "reference": "Practitioner/aa33d943-8b37-4bfa-914c-ee303d7b39aa"
      } ]
    },
    "request": {
      "method": "PUT",
      "url": "MeasureReport/06f65ec9-25f4-4244-81cf-38066af49431"
    }
  } ]
}