{"resourceType":"Bundle","id":"tests-9f77830b-ff7c-4060-bf38-295b215ab56d-bundle","type":"transaction","entry":[{"fullUrl":"Condition/1bd3db88-ed45-40ca-a97d-3dea46a920b0","resource":{"resourceType":"Condition","id":"1bd3db88-ed45-40ca-a97d-3dea46a920b0","meta":{"profile":["http://hl7.org/fhir/us/qicore/StructureDefinition/qicore-condition-encounter-diagnosis"]},"category":[{"coding":[{"system":"http://terminology.hl7.org/CodeSystem/condition-category","code":"encounter-diagnosis","display":"Encounter Diagnosis"}]}],"code":{"coding":[{"system":"http://snomed.info/sct","version":"2023-09","code":"10349009","display":"Multi-infarct dementia with delirium (disorder)","userSelected":true}]},"subject":{"reference":"Patient/9f77830b-ff7c-4060-bf38-295b215ab56d"},"recordedDate":"2027-04-09T08:00:00.000+00:00"},"request":{"method":"PUT","url":"Condition/1bd3db88-ed45-40ca-a97d-3dea46a920b0"}},{"fullUrl":"Practitioner/326ef581-515c-456d-8258-338c6f48e9c6","resource":{"resourceType":"Practitioner","id":"326ef581-515c-456d-8258-338c6f48e9c6","meta":{"profile":["http://hl7.org/fhir/us/qicore/StructureDefinition/qicore-practitioner"]},"identifier":[{"system":"http://hl7.org/fhir/sid/us-npi","value":"9999999896"}],"name":[{"family":"Evil","prefix":["Dr"]}]},"request":{"method":"PUT","url":"Practitioner/326ef581-515c-456d-8258-338c6f48e9c6"}},{"fullUrl":"Organization/66c887a4-f963-41f3-9a77-e1e6c767dcaf","resource":{"resourceType":"Organization","id":"66c887a4-f963-41f3-9a77-e1e6c767dcaf","meta":{"profile":["http://hl7.org/fhir/us/qicore/StructureDefinition/qicore-organization"]},"identifier":[{"use":"temp","system":"urn:oid:2.16.840.1.113883.4.4","value":"21-3259825"}],"active":true,"type":[{"coding":[{"system":"http://terminology.hl7.org/CodeSystem/organization-type","code":"pay","display":"Payer"}]}],"name":"Blue Cross Blue Shield of Texas","telecom":[{"system":"phone","value":"(+1) 972-766-6900"}],"address":[{"use":"billing","type":"postal","line":["P.O. Box 660044"],"city":"Dallas","state":"TX","postalCode":"75266-0044","country":"USA"}]},"request":{"method":"PUT","url":"Organization/66c887a4-f963-41f3-9a77-e1e6c767dcaf"}},{"fullUrl":"Bundle/661476b015ed5841a5547ebf","resource":{"resourceType":"Bundle","id":"661476b015ed5841a5547ebf","type":"transaction","entry":[{"fullUrl":"https://madie.cms.gov/Patient/9f77830b-ff7c-4060-bf38-295b215ab56d","resource":{"resourceType":"Patient","id":"9f77830b-ff7c-4060-bf38-295b215ab56d","meta":{"profile":["http://hl7.org/fhir/us/qicore/StructureDefinition/qicore-patient"]},"extension":[{"url":"http://hl7.org/fhir/us/core/StructureDefinition/us-core-race","extension":[{"url":"ombCategory","valueCoding":{"system":"urn:oid:2.16.840.1.113883.6.238","code":"1002-5","display":"American Indian or Alaska Native","userSelected":true}},{"url":"text","valueString":"American Indian or Alaska Native"}]},{"url":"http://hl7.org/fhir/us/core/StructureDefinition/us-core-ethnicity","extension":[{"url":"ombCategory","valueCoding":{"system":"urn:oid:2.16.840.1.113883.6.238","code":"2135-2","display":"Hispanic or Latino","userSelected":true}},{"url":"text","valueString":"Hispanic or Latino"}]},{"url":"http://hl7.org/fhir/us/core/StructureDefinition/us-core-sex","valueCode":"248153007"}],"identifier":[{"type":{"coding":[{"system":"http://terminology.hl7.org/CodeSystem/v2-0203","code":"MR"}]},"system":"https://bonnie-fhir.healthit.gov/","value":"661476b015ed5841a5547ebf"}],"name":[{"family":"NUMERStrat4Pass","given":["EDLOS481MinutesLastDayMP"]}],"gender":"male","birthDate":"2008-01-01"},"request":{"method":"PUT","url":"Patient/9f77830b-ff7c-4060-bf38-295b215ab56d"}},{"fullUrl":"https://madie.cms.gov/Encounter/3f4f6fa2-6df7-4acc-b277-6318fdefc86e","resource":{"resourceType":"Encounter","id":"3f4f6fa2-6df7-4acc-b277-6318fdefc86e","meta":{"profile":["http://hl7.org/fhir/us/qicore/StructureDefinition/qicore-encounter"]},"status":"finished","class":{"system":"http://terminology.hl7.org/CodeSystem/v3-ActCode","code":"EMER","display":"emergency department"},"type":[{"coding":[{"system":"http://snomed.info/sct","version":"2023-09","code":"4525004","display":"Emergency department patient visit (procedure)","userSelected":true}]}],"subject":{"reference":"Patient/9f77830b-ff7c-4060-bf38-295b215ab56d"},"period":{"start":"2027-05-31T06:00:00.000+00:00","end":"2027-05-31T14:01:00.000+00:00"},"diagnosis":[{"condition":{"reference":"Condition/1bd3db88-ed45-40ca-a97d-3dea46a920b0"},"use":{"coding":[{"system":"http://terminology.hl7.org/CodeSystem/diagnosis-role","code":"billing"}]},"rank":1}],"location":[{"location":{"reference":"Location/e55a9c8e-e9ea-44a5-972a-0bce4e070a38"},"period":{"start":"2027-05-31T06:00:00.000+00:00","end":"2027-05-31T14:01:00.000+00:00"}}]},"request":{"method":"PUT","url":"Encounter/3f4f6fa2-6df7-4acc-b277-6318fdefc86e"}},{"fullUrl":"https://madie.cms.gov/Location/e55a9c8e-e9ea-44a5-972a-0bce4e070a38","resource":{"resourceType":"Location","id":"e55a9c8e-e9ea-44a5-972a-0bce4e070a38","meta":{"profile":["http://hl7.org/fhir/us/qicore/StructureDefinition/qicore-location"]},"identifier":[{"use":"usual","system":"http://exampleoflocation.com","value":"B1-S.F2"}],"name":"Emergency Department","type":[{"coding":[{"system":"https://www.cdc.gov/nhsn/cdaportal/terminology/codesystem/hsloc.html","version":"2022","code":"1108-0","display":"Emergency Department","userSelected":true}]}]},"request":{"method":"PUT","url":"Location/e55a9c8e-e9ea-44a5-972a-0bce4e070a38"}},{"fullUrl":"https://madie.cms.gov/Condition/1bd3db88-ed45-40ca-a97d-3dea46a920b0","resource":{"resourceType":"Condition","id":"1bd3db88-ed45-40ca-a97d-3dea46a920b0","meta":{"profile":["http://hl7.org/fhir/us/qicore/StructureDefinition/qicore-condition-encounter-diagnosis"]},"category":[{"coding":[{"system":"http://terminology.hl7.org/CodeSystem/condition-category","code":"encounter-diagnosis","display":"Encounter Diagnosis"}]}],"code":{"coding":[{"system":"http://snomed.info/sct","version":"2023-09","code":"10349009","display":"Multi-infarct dementia with delirium (disorder)","userSelected":true}]},"subject":{"reference":"Patient/9f77830b-ff7c-4060-bf38-295b215ab56d"},"recordedDate":"2027-04-09T08:00:00.000+00:00"},"request":{"method":"PUT","url":"Condition/1bd3db88-ed45-40ca-a97d-3dea46a920b0"}},{"fullUrl":"https://madie.cms.gov/claim/ClaimBehavior-NotSubsAbuse","resource":{"resourceType":"Claim","id":"ClaimBehavior-NotSubsAbuse","meta":{"profile":["http://hl7.org/fhir/us/qicore/StructureDefinition/qicore-claim"]},"status":"active","type":{"coding":[{"system":"http://terminology.hl7.org/CodeSystem/claim-type","code":"institutional"}]},"use":"claim","patient":{"reference":"Patient/9f77830b-ff7c-4060-bf38-295b215ab56d"},"created":"2027-05-01","provider":{"reference":"Practitioner/practitioner-123456"},"priority":{"coding":[{"system":"http://terminology.hl7.org/CodeSystem/processpriority","code":"normal"}]},"diagnosis":[{"sequence":1,"diagnosisReference":{"reference":"Condition/1bd3db88-ed45-40ca-a97d-3dea46a920b0"},"type":[{"coding":[{"system":"http://terminology.hl7.org/CodeSystem/ex-diagnosistype","code":"principal"}]}]}],"insurance":[{"sequence":1,"focal":true,"coverage":{"reference":"Coverage/1"}}],"item":[{"sequence":1,"diagnosisSequence":[1],"productOrService":{"coding":[{"system":"http://terminology.hl7.org/CodeSystem/ex-USCLS","code":"99555"}]},"encounter":[{"reference":"Encounter/3f4f6fa2-6df7-4acc-b277-6318fdefc86e"}]}]},"request":{"method":"PUT","url":"Claim/ClaimBehavior-NotSubsAbuse"}},{"fullUrl":"https://madie.cms.gov/Coverage/ba2750c1-10b2-4e5b-82b8-1dbf8f03a768","resource":{"resourceType":"Coverage","id":"ba2750c1-10b2-4e5b-82b8-1dbf8f03a768","meta":{"profile":["http://hl7.org/fhir/us/qicore/StructureDefinition/qicore-coverage"]},"identifier":[{"type":{"coding":[{"system":"http://terminology.hl7.org/CodeSystem/v2-0203","code":"MB"}]}}],"status":"active","beneficiary":{"reference":"Patient/9f77830b-ff7c-4060-bf38-295b215ab56d"},"relationship":{"coding":[{"system":"http://terminology.hl7.org/CodeSystem/subscriber-relationship","code":"self"}]},"payor":[{"reference":"Organization/66c887a4-f963-41f3-9a77-e1e6c767dcaf"}]},"request":{"method":"PUT","url":"Coverage/ba2750c1-10b2-4e5b-82b8-1dbf8f03a768"}},{"fullUrl":"https://madie.cms.gov/Organization/66c887a4-f963-41f3-9a77-e1e6c767dcaf","resource":{"resourceType":"Organization","id":"66c887a4-f963-41f3-9a77-e1e6c767dcaf","meta":{"profile":["http://hl7.org/fhir/us/qicore/StructureDefinition/qicore-organization"]},"identifier":[{"use":"temp","system":"urn:oid:2.16.840.1.113883.4.4","value":"21-3259825"}],"active":true,"type":[{"coding":[{"system":"http://terminology.hl7.org/CodeSystem/organization-type","code":"pay","display":"Payer"}]}],"name":"Blue Cross Blue Shield of Texas","telecom":[{"system":"phone","value":"(+1) 972-766-6900"}],"address":[{"use":"billing","type":"postal","line":["P.O. Box 660044"],"city":"Dallas","state":"TX","postalCode":"75266-0044","country":"USA"}]},"request":{"method":"PUT","url":"Organization/66c887a4-f963-41f3-9a77-e1e6c767dcaf"}},{"fullUrl":"https://madie.cms.gov/Practitioner/326ef581-515c-456d-8258-338c6f48e9c6","resource":{"resourceType":"Practitioner","id":"326ef581-515c-456d-8258-338c6f48e9c6","meta":{"profile":["http://hl7.org/fhir/us/qicore/StructureDefinition/qicore-practitioner"]},"identifier":[{"system":"http://hl7.org/fhir/sid/us-npi","value":"9999999896"}],"name":[{"family":"Evil","prefix":["Dr"]}]},"request":{"method":"PUT","url":"Practitioner/326ef581-515c-456d-8258-338c6f48e9c6"}},{"fullUrl":"https://madie.cms.gov/MeasureReport/a4f2d7ee-cd37-4ad5-861f-4582d3e9e5d7","resource":{"resourceType":"MeasureReport","id":"a4f2d7ee-cd37-4ad5-861f-4582d3e9e5d7","meta":{"profile":["http://hl7.org/fhir/us/cqfmeasures/StructureDefinition/test-case-cqfm"]},"contained":[{"resourceType":"Parameters","id":"030470c4-29cc-42c2-816d-1bef66bca2de-parameters","parameter":[{"name":"subject","valueString":"9f77830b-ff7c-4060-bf38-295b215ab56d"}]}],"extension":[{"url":"http://hl7.org/fhir/StructureDefinition/cqf-inputParameters","valueReference":{"reference":"#030470c4-29cc-42c2-816d-1bef66bca2de-parameters"}},{"url":"http://hl7.org/fhir/us/cqfmeasures/StructureDefinition/cqfm-testCaseDescription","valueMarkdown":"Adult, age 18, ED enc, LOS 481 minutes. last day MP, pt. mental health dx"}],"modifierExtension":[{"url":"http://hl7.org/fhir/us/cqfmeasures/StructureDefinition/cqfm-isTestCase","valueBoolean":true}],"status":"complete","type":"individual","measure":"https://madie.cms.gov/Measure/CMS1264FHIRECATREHQR","period":{"start":"2027-01-01","end":"2027-12-31"},"group":[{"id":"Group_1","population":[{"id":"InitialPopulation_1","code":{"coding":[{"system":"http://terminology.hl7.org/CodeSystem/measure-population","code":"initial-population","display":"Initial Population"}]},"count":1},{"id":"Denominator_1","code":{"coding":[{"system":"http://terminology.hl7.org/CodeSystem/measure-population","code":"denominator","display":"Denominator"}]},"count":1},{"id":"Numerator_1","code":{"coding":[{"system":"http://terminology.hl7.org/CodeSystem/measure-population","code":"numerator","display":"Numerator"}]},"count":1}],"measureScore":{"value":0.0},"stratifier":[{"id":"Stratification_1_1","code":[{"text":"Strata-1"}],"stratum":[{"value":{"text":"Strata-1"},"population":[{"id":"InitialPopulation_1","code":{"coding":[{"system":"http://terminology.hl7.org/CodeSystem/measure-population","code":"initial-population","display":"Initial Population"}]},"count":0},{"id":"Denominator_1","code":{"coding":[{"system":"http://terminology.hl7.org/CodeSystem/measure-population","code":"denominator","display":"Denominator"}]},"count":0},{"id":"Numerator_1","code":{"coding":[{"system":"http://terminology.hl7.org/CodeSystem/measure-population","code":"numerator","display":"Numerator"}]},"count":0}]}]},{"id":"Stratification_1_2","code":[{"text":"Strata-2"}],"stratum":[{"value":{"text":"Strata-2"},"population":[{"id":"InitialPopulation_1","code":{"coding":[{"system":"http://terminology.hl7.org/CodeSystem/measure-population","code":"initial-population","display":"Initial Population"}]},"count":0},{"id":"Denominator_1","code":{"coding":[{"system":"http://terminology.hl7.org/CodeSystem/measure-population","code":"denominator","display":"Denominator"}]},"count":0},{"id":"Numerator_1","code":{"coding":[{"system":"http://terminology.hl7.org/CodeSystem/measure-population","code":"numerator","display":"Numerator"}]},"count":0}]}]},{"id":"Stratification_1_3","code":[{"text":"Strata-3"}],"stratum":[{"value":{"text":"Strata-3"},"population":[{"id":"InitialPopulation_1","code":{"coding":[{"system":"http://terminology.hl7.org/CodeSystem/measure-population","code":"initial-population","display":"Initial Population"}]},"count":0},{"id":"Denominator_1","code":{"coding":[{"system":"http://terminology.hl7.org/CodeSystem/measure-population","code":"denominator","display":"Denominator"}]},"count":0},{"id":"Numerator_1","code":{"coding":[{"system":"http://terminology.hl7.org/CodeSystem/measure-population","code":"numerator","display":"Numerator"}]},"count":0}]}]},{"id":"Stratification_1_4","code":[{"text":"Strata-4"}],"stratum":[{"value":{"text":"Strata-4"},"population":[{"id":"InitialPopulation_1","code":{"coding":[{"system":"http://terminology.hl7.org/CodeSystem/measure-population","code":"initial-population","display":"Initial Population"}]},"count":1},{"id":"Denominator_1","code":{"coding":[{"system":"http://terminology.hl7.org/CodeSystem/measure-population","code":"denominator","display":"Denominator"}]},"count":1},{"id":"Numerator_1","code":{"coding":[{"system":"http://terminology.hl7.org/CodeSystem/measure-population","code":"numerator","display":"Numerator"}]},"count":1}]}]}]}],"evaluatedResource":[{"reference":"Patient/9f77830b-ff7c-4060-bf38-295b215ab56d"},{"reference":"Encounter/3f4f6fa2-6df7-4acc-b277-6318fdefc86e"},{"reference":"Location/e55a9c8e-e9ea-44a5-972a-0bce4e070a38"},{"reference":"Condition/1bd3db88-ed45-40ca-a97d-3dea46a920b0"},{"reference":"Claim/ClaimBehavior-NotSubsAbuse"},{"reference":"Coverage/ba2750c1-10b2-4e5b-82b8-1dbf8f03a768"},{"reference":"Organization/66c887a4-f963-41f3-9a77-e1e6c767dcaf"},{"reference":"Practitioner/326ef581-515c-456d-8258-338c6f48e9c6"}]},"request":{"method":"PUT","url":"MeasureReport/a4f2d7ee-cd37-4ad5-861f-4582d3e9e5d7"}}]},"request":{"method":"PUT","url":"Bundle/661476b015ed5841a5547ebf"}},{"fullUrl":"Location/e55a9c8e-e9ea-44a5-972a-0bce4e070a38","resource":{"resourceType":"Location","id":"e55a9c8e-e9ea-44a5-972a-0bce4e070a38","meta":{"profile":["http://hl7.org/fhir/us/qicore/StructureDefinition/qicore-location"]},"identifier":[{"use":"usual","system":"http://exampleoflocation.com","value":"B1-S.F2"}],"name":"Emergency Department","type":[{"coding":[{"system":"https://www.cdc.gov/nhsn/cdaportal/terminology/codesystem/hsloc.html","version":"2022","code":"1108-0","display":"Emergency Department","userSelected":true}]}]},"request":{"method":"PUT","url":"Location/e55a9c8e-e9ea-44a5-972a-0bce4e070a38"}},{"fullUrl":"Encounter/3f4f6fa2-6df7-4acc-b277-6318fdefc86e","resource":{"resourceType":"Encounter","id":"3f4f6fa2-6df7-4acc-b277-6318fdefc86e","meta":{"profile":["http://hl7.org/fhir/us/qicore/StructureDefinition/qicore-encounter"]},"status":"finished","class":{"system":"http://terminology.hl7.org/CodeSystem/v3-ActCode","code":"EMER","display":"emergency department"},"type":[{"coding":[{"system":"http://snomed.info/sct","version":"2023-09","code":"4525004","display":"Emergency department patient visit (procedure)","userSelected":true}]}],"subject":{"reference":"Patient/9f77830b-ff7c-4060-bf38-295b215ab56d"},"period":{"start":"2027-05-31T06:00:00.000+00:00","end":"2027-05-31T14:01:00.000+00:00"},"diagnosis":[{"condition":{"reference":"Condition/1bd3db88-ed45-40ca-a97d-3dea46a920b0"},"use":{"coding":[{"system":"http://terminology.hl7.org/CodeSystem/diagnosis-role","code":"billing"}]},"rank":1}],"location":[{"location":{"reference":"Location/e55a9c8e-e9ea-44a5-972a-0bce4e070a38"},"period":{"start":"2027-05-31T06:00:00.000+00:00","end":"2027-05-31T14:01:00.000+00:00"}}]},"request":{"method":"PUT","url":"Encounter/3f4f6fa2-6df7-4acc-b277-6318fdefc86e"}},{"fullUrl":"Coverage/ba2750c1-10b2-4e5b-82b8-1dbf8f03a768","resource":{"resourceType":"Coverage","id":"ba2750c1-10b2-4e5b-82b8-1dbf8f03a768","meta":{"profile":["http://hl7.org/fhir/us/qicore/StructureDefinition/qicore-coverage"]},"identifier":[{"type":{"coding":[{"system":"http://terminology.hl7.org/CodeSystem/v2-0203","code":"MB"}]}}],"status":"active","beneficiary":{"reference":"Patient/9f77830b-ff7c-4060-bf38-295b215ab56d"},"relationship":{"coding":[{"system":"http://terminology.hl7.org/CodeSystem/subscriber-relationship","code":"self"}]},"payor":[{"reference":"Organization/66c887a4-f963-41f3-9a77-e1e6c767dcaf"}]},"request":{"method":"PUT","url":"Coverage/ba2750c1-10b2-4e5b-82b8-1dbf8f03a768"}},{"fullUrl":"MeasureReport/a4f2d7ee-cd37-4ad5-861f-4582d3e9e5d7","resource":{"resourceType":"MeasureReport","id":"a4f2d7ee-cd37-4ad5-861f-4582d3e9e5d7","meta":{"profile":["http://hl7.org/fhir/us/cqfmeasures/StructureDefinition/test-case-cqfm"]},"contained":[{"resourceType":"Parameters","id":"030470c4-29cc-42c2-816d-1bef66bca2de-parameters","parameter":[{"name":"subject","valueString":"9f77830b-ff7c-4060-bf38-295b215ab56d"}]}],"extension":[{"url":"http://hl7.org/fhir/StructureDefinition/cqf-inputParameters","valueReference":{"reference":"#030470c4-29cc-42c2-816d-1bef66bca2de-parameters"}},{"url":"http://hl7.org/fhir/us/cqfmeasures/StructureDefinition/cqfm-testCaseDescription","valueMarkdown":"Adult, age 18, ED enc, LOS 481 minutes. last day MP, pt. mental health dx"}],"modifierExtension":[{"url":"http://hl7.org/fhir/us/cqfmeasures/StructureDefinition/cqfm-isTestCase","valueBoolean":true}],"status":"complete","type":"individual","measure":"https://madie.cms.gov/Measure/CMS1264FHIRECATREHQR","period":{"start":"2027-01-01","end":"2027-12-31"},"group":[{"id":"Group_1","population":[{"id":"InitialPopulation_1","code":{"coding":[{"system":"http://terminology.hl7.org/CodeSystem/measure-population","code":"initial-population","display":"Initial Population"}]},"count":1},{"id":"Denominator_1","code":{"coding":[{"system":"http://terminology.hl7.org/CodeSystem/measure-population","code":"denominator","display":"Denominator"}]},"count":1},{"id":"Numerator_1","code":{"coding":[{"system":"http://terminology.hl7.org/CodeSystem/measure-population","code":"numerator","display":"Numerator"}]},"count":1}],"measureScore":{"value":0.0},"stratifier":[{"id":"Stratification_1_1","code":[{"text":"Strata-1"}],"stratum":[{"value":{"text":"Strata-1"},"population":[{"id":"InitialPopulation_1","code":{"coding":[{"system":"http://terminology.hl7.org/CodeSystem/measure-population","code":"initial-population","display":"Initial Population"}]},"count":0},{"id":"Denominator_1","code":{"coding":[{"system":"http://terminology.hl7.org/CodeSystem/measure-population","code":"denominator","display":"Denominator"}]},"count":0},{"id":"Numerator_1","code":{"coding":[{"system":"http://terminology.hl7.org/CodeSystem/measure-population","code":"numerator","display":"Numerator"}]},"count":0}]}]},{"id":"Stratification_1_2","code":[{"text":"Strata-2"}],"stratum":[{"value":{"text":"Strata-2"},"population":[{"id":"InitialPopulation_1","code":{"coding":[{"system":"http://terminology.hl7.org/CodeSystem/measure-population","code":"initial-population","display":"Initial Population"}]},"count":0},{"id":"Denominator_1","code":{"coding":[{"system":"http://terminology.hl7.org/CodeSystem/measure-population","code":"denominator","display":"Denominator"}]},"count":0},{"id":"Numerator_1","code":{"coding":[{"system":"http://terminology.hl7.org/CodeSystem/measure-population","code":"numerator","display":"Numerator"}]},"count":0}]}]},{"id":"Stratification_1_3","code":[{"text":"Strata-3"}],"stratum":[{"value":{"text":"Strata-3"},"population":[{"id":"InitialPopulation_1","code":{"coding":[{"system":"http://terminology.hl7.org/CodeSystem/measure-population","code":"initial-population","display":"Initial Population"}]},"count":0},{"id":"Denominator_1","code":{"coding":[{"system":"http://terminology.hl7.org/CodeSystem/measure-population","code":"denominator","display":"Denominator"}]},"count":0},{"id":"Numerator_1","code":{"coding":[{"system":"http://terminology.hl7.org/CodeSystem/measure-population","code":"numerator","display":"Numerator"}]},"count":0}]}]},{"id":"Stratification_1_4","code":[{"text":"Strata-4"}],"stratum":[{"value":{"text":"Strata-4"},"population":[{"id":"InitialPopulation_1","code":{"coding":[{"system":"http://terminology.hl7.org/CodeSystem/measure-population","code":"initial-population","display":"Initial Population"}]},"count":1},{"id":"Denominator_1","code":{"coding":[{"system":"http://terminology.hl7.org/CodeSystem/measure-population","code":"denominator","display":"Denominator"}]},"count":1},{"id":"Numerator_1","code":{"coding":[{"system":"http://terminology.hl7.org/CodeSystem/measure-population","code":"numerator","display":"Numerator"}]},"count":1}]}]}]}],"evaluatedResource":[{"reference":"Patient/9f77830b-ff7c-4060-bf38-295b215ab56d"},{"reference":"Encounter/3f4f6fa2-6df7-4acc-b277-6318fdefc86e"},{"reference":"Location/e55a9c8e-e9ea-44a5-972a-0bce4e070a38"},{"reference":"Condition/1bd3db88-ed45-40ca-a97d-3dea46a920b0"},{"reference":"Claim/ClaimBehavior-NotSubsAbuse"},{"reference":"Coverage/ba2750c1-10b2-4e5b-82b8-1dbf8f03a768"},{"reference":"Organization/66c887a4-f963-41f3-9a77-e1e6c767dcaf"},{"reference":"Practitioner/326ef581-515c-456d-8258-338c6f48e9c6"}]},"request":{"method":"PUT","url":"MeasureReport/a4f2d7ee-cd37-4ad5-861f-4582d3e9e5d7"}},{"fullUrl":"Claim/ClaimBehavior-NotSubsAbuse","resource":{"resourceType":"Claim","id":"ClaimBehavior-NotSubsAbuse","meta":{"profile":["http://hl7.org/fhir/us/qicore/StructureDefinition/qicore-claim"]},"status":"active","type":{"coding":[{"system":"http://terminology.hl7.org/CodeSystem/claim-type","code":"institutional"}]},"use":"claim","patient":{"reference":"Patient/9f77830b-ff7c-4060-bf38-295b215ab56d"},"created":"2027-05-01","provider":{"reference":"Practitioner/practitioner-123456"},"priority":{"coding":[{"system":"http://terminology.hl7.org/CodeSystem/processpriority","code":"normal"}]},"diagnosis":[{"sequence":1,"diagnosisReference":{"reference":"Condition/1bd3db88-ed45-40ca-a97d-3dea46a920b0"},"type":[{"coding":[{"system":"http://terminology.hl7.org/CodeSystem/ex-diagnosistype","code":"principal"}]}]}],"insurance":[{"sequence":1,"focal":true,"coverage":{"reference":"Coverage/1"}}],"item":[{"sequence":1,"diagnosisSequence":[1],"productOrService":{"coding":[{"system":"http://terminology.hl7.org/CodeSystem/ex-USCLS","code":"99555"}]},"encounter":[{"reference":"Encounter/3f4f6fa2-6df7-4acc-b277-6318fdefc86e"}]}]},"request":{"method":"PUT","url":"Claim/ClaimBehavior-NotSubsAbuse"}},{"fullUrl":"Patient/9f77830b-ff7c-4060-bf38-295b215ab56d","resource":{"resourceType":"Patient","id":"9f77830b-ff7c-4060-bf38-295b215ab56d","meta":{"profile":["http://hl7.org/fhir/us/qicore/StructureDefinition/qicore-patient"]},"extension":[{"url":"http://hl7.org/fhir/us/core/StructureDefinition/us-core-race","extension":[{"url":"ombCategory","valueCoding":{"system":"urn:oid:2.16.840.1.113883.6.238","code":"1002-5","display":"American Indian or Alaska Native","userSelected":true}},{"url":"text","valueString":"American Indian or Alaska Native"}]},{"url":"http://hl7.org/fhir/us/core/StructureDefinition/us-core-ethnicity","extension":[{"url":"ombCategory","valueCoding":{"system":"urn:oid:2.16.840.1.113883.6.238","code":"2135-2","display":"Hispanic or Latino","userSelected":true}},{"url":"text","valueString":"Hispanic or Latino"}]},{"url":"http://hl7.org/fhir/us/core/StructureDefinition/us-core-sex","valueCode":"248153007"}],"identifier":[{"type":{"coding":[{"system":"http://terminology.hl7.org/CodeSystem/v2-0203","code":"MR"}]},"system":"https://bonnie-fhir.healthit.gov/","value":"661476b015ed5841a5547ebf"}],"name":[{"family":"NUMERStrat4Pass","given":["EDLOS481MinutesLastDayMP"]}],"gender":"male","birthDate":"2008-01-01"},"request":{"method":"PUT","url":"Patient/9f77830b-ff7c-4060-bf38-295b215ab56d"}}]}