{"resourceType":"Bundle","id":"tests-1f8035de-4255-434e-a32f-b97039ec57ff-bundle","type":"transaction","entry":[{"fullUrl":"Patient/1f8035de-4255-434e-a32f-b97039ec57ff","resource":{"resourceType":"Patient","id":"1f8035de-4255-434e-a32f-b97039ec57ff","meta":{"profile":["http://hl7.org/fhir/us/qicore/StructureDefinition/qicore-patient"]},"extension":[{"url":"http://hl7.org/fhir/us/core/StructureDefinition/us-core-race","extension":[{"url":"ombCategory","valueCoding":{"system":"urn:oid:2.16.840.1.113883.6.238","code":"1002-5","display":"American Indian or Alaska Native","userSelected":true}},{"url":"text","valueString":"American Indian or Alaska Native"}]},{"url":"http://hl7.org/fhir/us/core/StructureDefinition/us-core-ethnicity","extension":[{"url":"ombCategory","valueCoding":{"system":"urn:oid:2.16.840.1.113883.6.238","code":"2135-2","display":"Hispanic or Latino","userSelected":true}},{"url":"text","valueString":"Hispanic or Latino"}]},{"url":"http://hl7.org/fhir/us/core/StructureDefinition/us-core-sex","valueCode":"248153007"}],"identifier":[{"type":{"coding":[{"system":"http://terminology.hl7.org/CodeSystem/v2-0203","code":"MR"}]},"system":"https://bonnie-fhir.healthit.gov/","value":"661476b015ed5841a5547ebf"}],"name":[{"family":"NUMEXStrat2Pass","given":["TimeTx61LOS481MinsObsStay"]}],"gender":"male","birthDate":"2008-01-01"},"request":{"method":"PUT","url":"Patient/1f8035de-4255-434e-a32f-b97039ec57ff"}},{"fullUrl":"Practitioner/62c90ec7-847d-45cd-b0c0-40af02f86bcb","resource":{"resourceType":"Practitioner","id":"62c90ec7-847d-45cd-b0c0-40af02f86bcb","meta":{"profile":["http://hl7.org/fhir/us/qicore/StructureDefinition/qicore-practitioner"]},"identifier":[{"system":"http://hl7.org/fhir/sid/us-npi","value":"9999999896"}],"name":[{"family":"Evil","prefix":["Dr"]}]},"request":{"method":"PUT","url":"Practitioner/62c90ec7-847d-45cd-b0c0-40af02f86bcb"}},{"fullUrl":"Encounter/5bca82bd-b04f-419b-a0f5-a28d54c1b7fc","resource":{"resourceType":"Encounter","id":"5bca82bd-b04f-419b-a0f5-a28d54c1b7fc","meta":{"profile":["http://hl7.org/fhir/us/qicore/StructureDefinition/qicore-encounter"]},"status":"finished","class":{"system":"http://terminology.hl7.org/CodeSystem/v3-ActCode","code":"EMER","display":"emergency"},"type":[{"coding":[{"system":"http://snomed.info/sct","code":"448951000124107","display":"Admission to observation unit (procedure)","userSelected":true}]}],"subject":{"reference":"Patient/1f8035de-4255-434e-a32f-b97039ec57ff"},"period":{"start":"2027-05-01T01:01:00.000+00:00","end":"2027-05-01T05:59:00.000+00:00"}},"request":{"method":"PUT","url":"Encounter/5bca82bd-b04f-419b-a0f5-a28d54c1b7fc"}},{"fullUrl":"Coverage/8792b7b8-bb7c-4af1-8258-53a6bc780669","resource":{"resourceType":"Coverage","id":"8792b7b8-bb7c-4af1-8258-53a6bc780669","meta":{"profile":["http://hl7.org/fhir/us/qicore/StructureDefinition/qicore-coverage"]},"identifier":[{"type":{"coding":[{"system":"http://terminology.hl7.org/CodeSystem/v2-0203","code":"MB"}]}}],"status":"active","beneficiary":{"reference":"Patient/1f8035de-4255-434e-a32f-b97039ec57ff"},"relationship":{"coding":[{"system":"http://terminology.hl7.org/CodeSystem/subscriber-relationship","code":"self"}]},"payor":[{"reference":"Organization/c2593529-2eab-472e-a2ea-ae6d3dda2ae6"}]},"request":{"method":"PUT","url":"Coverage/8792b7b8-bb7c-4af1-8258-53a6bc780669"}},{"fullUrl":"ServiceRequest/6af4120d-ac92-48f4-ace5-30c42c8c1bc3","resource":{"resourceType":"ServiceRequest","id":"6af4120d-ac92-48f4-ace5-30c42c8c1bc3","meta":{"profile":["http://hl7.org/fhir/us/qicore/StructureDefinition/qicore-servicerequest"]},"status":"active","intent":"order","code":{"coding":[{"system":"http://snomed.info/sct","code":"19712007","display":"Patient transfer, to another health care facility (procedure)","userSelected":true}]},"subject":{"reference":"Patient/1f8035de-4255-434e-a32f-b97039ec57ff"},"authoredOn":"2027-05-01T02:00:00.000+00:00"},"request":{"method":"PUT","url":"ServiceRequest/6af4120d-ac92-48f4-ace5-30c42c8c1bc3"}},{"fullUrl":"Bundle/661476b015ed5841a5547ebf","resource":{"resourceType":"Bundle","id":"661476b015ed5841a5547ebf","type":"transaction","entry":[{"fullUrl":"https://madie.cms.gov/Patient/1f8035de-4255-434e-a32f-b97039ec57ff","resource":{"resourceType":"Patient","id":"1f8035de-4255-434e-a32f-b97039ec57ff","meta":{"profile":["http://hl7.org/fhir/us/qicore/StructureDefinition/qicore-patient"]},"extension":[{"url":"http://hl7.org/fhir/us/core/StructureDefinition/us-core-race","extension":[{"url":"ombCategory","valueCoding":{"system":"urn:oid:2.16.840.1.113883.6.238","code":"1002-5","display":"American Indian or Alaska Native","userSelected":true}},{"url":"text","valueString":"American Indian or Alaska Native"}]},{"url":"http://hl7.org/fhir/us/core/StructureDefinition/us-core-ethnicity","extension":[{"url":"ombCategory","valueCoding":{"system":"urn:oid:2.16.840.1.113883.6.238","code":"2135-2","display":"Hispanic or Latino","userSelected":true}},{"url":"text","valueString":"Hispanic or Latino"}]},{"url":"http://hl7.org/fhir/us/core/StructureDefinition/us-core-sex","valueCode":"248153007"}],"identifier":[{"type":{"coding":[{"system":"http://terminology.hl7.org/CodeSystem/v2-0203","code":"MR"}]},"system":"https://bonnie-fhir.healthit.gov/","value":"661476b015ed5841a5547ebf"}],"name":[{"family":"NUMEXStrat2Pass","given":["TimeTx61LOS481MinsObsStay"]}],"gender":"male","birthDate":"2008-01-01"},"request":{"method":"PUT","url":"Patient/1f8035de-4255-434e-a32f-b97039ec57ff"}},{"fullUrl":"https://madie.cms.gov/Encounter/9366be6b-637a-49d4-84ca-3efad7370b79","resource":{"resourceType":"Encounter","id":"9366be6b-637a-49d4-84ca-3efad7370b79","meta":{"profile":["http://hl7.org/fhir/us/qicore/StructureDefinition/qicore-encounter"]},"status":"finished","class":{"system":"http://terminology.hl7.org/CodeSystem/v3-ActCode","code":"EMER","display":"emergency department"},"type":[{"coding":[{"system":"http://snomed.info/sct","version":"2023-09","code":"4525004","display":"Emergency department patient visit (procedure)","userSelected":true}]}],"subject":{"reference":"Patient/1f8035de-4255-434e-a32f-b97039ec57ff"},"period":{"start":"2027-05-01T00:00:00.000+00:00","end":"2027-05-01T06:00:00.000+00:00"},"diagnosis":[{"condition":{"reference":"Condition/621a36c5-373c-4428-a642-411e26c96fc4"},"use":{"coding":[{"system":"http://terminology.hl7.org/CodeSystem/diagnosis-role","code":"billing"}]},"rank":1}],"location":[{"location":{"reference":"Location/a05b5d0a-b34a-4a88-b372-929d285ba90c"},"period":{"start":"2027-05-01T00:00:00.000+00:00","end":"2027-05-01T10:01:00.000+00:00"}},{"location":{"reference":"Location/3b585df0-acc4-4c10-a0ef-6b2f920e9902"},"period":{"start":"2027-05-01T02:00:00.000+00:00","end":"2027-05-01T10:01:00.000+00:00"}}]},"request":{"method":"PUT","url":"Encounter/9366be6b-637a-49d4-84ca-3efad7370b79"}},{"fullUrl":"https://madie.cms.gov/ServiceRequest/6af4120d-ac92-48f4-ace5-30c42c8c1bc3","resource":{"resourceType":"ServiceRequest","id":"6af4120d-ac92-48f4-ace5-30c42c8c1bc3","meta":{"profile":["http://hl7.org/fhir/us/qicore/StructureDefinition/qicore-servicerequest"]},"status":"active","intent":"order","code":{"coding":[{"system":"http://snomed.info/sct","code":"19712007","display":"Patient transfer, to another health care facility (procedure)","userSelected":true}]},"subject":{"reference":"Patient/1f8035de-4255-434e-a32f-b97039ec57ff"},"authoredOn":"2027-05-01T02:00:00.000+00:00"},"request":{"method":"PUT","url":"ServiceRequest/6af4120d-ac92-48f4-ace5-30c42c8c1bc3"}},{"fullUrl":"https://madie.cms.gov/Location/a05b5d0a-b34a-4a88-b372-929d285ba90c","resource":{"resourceType":"Location","id":"a05b5d0a-b34a-4a88-b372-929d285ba90c","meta":{"profile":["http://hl7.org/fhir/us/qicore/StructureDefinition/qicore-location"]},"identifier":[{"use":"usual","system":"http://exampleoflocation.com","value":"B1-S.F2"}],"name":"MEmergency Department","type":[{"coding":[{"system":"https://www.cdc.gov/nhsn/cdaportal/terminology/codesystem/hsloc.html","version":"2022","code":"1108-0","display":"Emergency Department","userSelected":true}]}]},"request":{"method":"PUT","url":"Location/a05b5d0a-b34a-4a88-b372-929d285ba90c"}},{"fullUrl":"https://madie.cms.gov/Location/3b585df0-acc4-4c10-a0ef-6b2f920e9902","resource":{"resourceType":"Location","id":"3b585df0-acc4-4c10-a0ef-6b2f920e9902","meta":{"profile":["http://hl7.org/fhir/us/qicore/StructureDefinition/qicore-location"]},"identifier":[{"use":"usual","system":"http://exampleoflocation.com","value":"B1-S.F2"}],"name":"Emergency Department","type":[{"coding":[{"system":"https://www.cdc.gov/nhsn/cdaportal/terminology/codesystem/hsloc.html","version":"2022","code":"1209-6","display":"Treatment Room","userSelected":true}]}]},"request":{"method":"PUT","url":"Location/3b585df0-acc4-4c10-a0ef-6b2f920e9902"}},{"fullUrl":"https://madie.cms.gov/claim/ClaimBehavior-NotSubsAbuse","resource":{"resourceType":"Claim","id":"ClaimBehavior-NotSubsAbuse","meta":{"profile":["http://hl7.org/fhir/us/qicore/StructureDefinition/qicore-claim"]},"status":"active","type":{"coding":[{"system":"http://terminology.hl7.org/CodeSystem/claim-type","code":"institutional"}]},"use":"claim","patient":{"reference":"Patient/1f8035de-4255-434e-a32f-b97039ec57ff"},"created":"2027-05-01","provider":{"reference":"Practitioner/practitioner-123456"},"priority":{"coding":[{"system":"http://terminology.hl7.org/CodeSystem/processpriority","code":"normal"}]},"diagnosis":[{"sequence":1,"diagnosisReference":{"reference":"Condition/621a36c5-373c-4428-a642-411e26c96fc4"},"type":[{"coding":[{"system":"http://terminology.hl7.org/CodeSystem/ex-diagnosistype","code":"principal"}]}]}],"insurance":[{"sequence":1,"focal":true,"coverage":{"reference":"Coverage/1"}}],"item":[{"sequence":1,"diagnosisSequence":[1],"productOrService":{"coding":[{"system":"http://terminology.hl7.org/CodeSystem/ex-USCLS","code":"99555"}]},"encounter":[{"reference":"Encounter/9366be6b-637a-49d4-84ca-3efad7370b79"}]}]},"request":{"method":"PUT","url":"Claim/ClaimBehavior-NotSubsAbuse"}},{"fullUrl":"https://madie.cms.gov/Coverage/8792b7b8-bb7c-4af1-8258-53a6bc780669","resource":{"resourceType":"Coverage","id":"8792b7b8-bb7c-4af1-8258-53a6bc780669","meta":{"profile":["http://hl7.org/fhir/us/qicore/StructureDefinition/qicore-coverage"]},"identifier":[{"type":{"coding":[{"system":"http://terminology.hl7.org/CodeSystem/v2-0203","code":"MB"}]}}],"status":"active","beneficiary":{"reference":"Patient/1f8035de-4255-434e-a32f-b97039ec57ff"},"relationship":{"coding":[{"system":"http://terminology.hl7.org/CodeSystem/subscriber-relationship","code":"self"}]},"payor":[{"reference":"Organization/c2593529-2eab-472e-a2ea-ae6d3dda2ae6"}]},"request":{"method":"PUT","url":"Coverage/8792b7b8-bb7c-4af1-8258-53a6bc780669"}},{"fullUrl":"https://madie.cms.gov/Condition/621a36c5-373c-4428-a642-411e26c96fc4","resource":{"resourceType":"Condition","id":"621a36c5-373c-4428-a642-411e26c96fc4","meta":{"profile":["http://hl7.org/fhir/us/qicore/StructureDefinition/qicore-condition-encounter-diagnosis"]},"category":[{"coding":[{"system":"http://terminology.hl7.org/CodeSystem/condition-category","code":"encounter-diagnosis","display":"Encounter Diagnosis"}]}],"code":{"coding":[{"system":"http://snomed.info/sct","version":"2023-09","code":"10674711000119105","display":"Acute severe exacerbation of asthma co-occurrent with allergic rhinitis (disorder)","userSelected":true}]},"subject":{"reference":"Patient/1f8035de-4255-434e-a32f-b97039ec57ff"},"recordedDate":"2027-05-01T08:00:00.000+00:00"},"request":{"method":"PUT","url":"Condition/621a36c5-373c-4428-a642-411e26c96fc4"}},{"fullUrl":"https://madie.cms.gov/Encounter/5bca82bd-b04f-419b-a0f5-a28d54c1b7fc","resource":{"resourceType":"Encounter","id":"5bca82bd-b04f-419b-a0f5-a28d54c1b7fc","meta":{"profile":["http://hl7.org/fhir/us/qicore/StructureDefinition/qicore-encounter"]},"status":"finished","class":{"system":"http://terminology.hl7.org/CodeSystem/v3-ActCode","code":"EMER","display":"emergency"},"type":[{"coding":[{"system":"http://snomed.info/sct","code":"448951000124107","display":"Admission to observation unit (procedure)","userSelected":true}]}],"subject":{"reference":"Patient/1f8035de-4255-434e-a32f-b97039ec57ff"},"period":{"start":"2027-05-01T01:01:00.000+00:00","end":"2027-05-01T05:59:00.000+00:00"}},"request":{"method":"PUT","url":"Encounter/5bca82bd-b04f-419b-a0f5-a28d54c1b7fc"}},{"fullUrl":"https://madie.cms.gov/Organization/c2593529-2eab-472e-a2ea-ae6d3dda2ae6","resource":{"resourceType":"Organization","id":"c2593529-2eab-472e-a2ea-ae6d3dda2ae6","meta":{"profile":["http://hl7.org/fhir/us/qicore/StructureDefinition/qicore-organization"]},"identifier":[{"use":"temp","system":"urn:oid:2.16.840.1.113883.4.4","value":"21-3259825"}],"active":true,"type":[{"coding":[{"system":"http://terminology.hl7.org/CodeSystem/organization-type","code":"pay","display":"Payer"}]}],"name":"Blue Cross Blue Shield of Texas","telecom":[{"system":"phone","value":"(+1) 972-766-6900"}],"address":[{"use":"billing","type":"postal","line":["P.O. Box 660044"],"city":"Dallas","state":"TX","postalCode":"75266-0044","country":"USA"}]},"request":{"method":"PUT","url":"Organization/c2593529-2eab-472e-a2ea-ae6d3dda2ae6"}},{"fullUrl":"https://madie.cms.gov/Practitioner/62c90ec7-847d-45cd-b0c0-40af02f86bcb","resource":{"resourceType":"Practitioner","id":"62c90ec7-847d-45cd-b0c0-40af02f86bcb","meta":{"profile":["http://hl7.org/fhir/us/qicore/StructureDefinition/qicore-practitioner"]},"identifier":[{"system":"http://hl7.org/fhir/sid/us-npi","value":"9999999896"}],"name":[{"family":"Evil","prefix":["Dr"]}]},"request":{"method":"PUT","url":"Practitioner/62c90ec7-847d-45cd-b0c0-40af02f86bcb"}},{"fullUrl":"https://madie.cms.gov/MeasureReport/26c06877-1df5-4033-98a6-701017d39306","resource":{"resourceType":"MeasureReport","id":"26c06877-1df5-4033-98a6-701017d39306","meta":{"profile":["http://hl7.org/fhir/us/cqfmeasures/StructureDefinition/test-case-cqfm"]},"contained":[{"resourceType":"Parameters","id":"75cf7fca-c9cb-4e38-a829-aeaab26fc642-parameters","parameter":[{"name":"subject","valueString":"1f8035de-4255-434e-a32f-b97039ec57ff"}]}],"extension":[{"url":"http://hl7.org/fhir/StructureDefinition/cqf-inputParameters","valueReference":{"reference":"#75cf7fca-c9cb-4e38-a829-aeaab26fc642-parameters"}},{"url":"http://hl7.org/fhir/us/cqfmeasures/StructureDefinition/cqfm-testCaseDescription","valueMarkdown":"Time to treatment greater than 60 mins. LOS greater than 8 hours with observational stay."}],"modifierExtension":[{"url":"http://hl7.org/fhir/us/cqfmeasures/StructureDefinition/cqfm-isTestCase","valueBoolean":true}],"status":"complete","type":"individual","measure":"https://madie.cms.gov/Measure/CMS1264FHIRECATREHQR","period":{"start":"2027-01-01","end":"2027-12-31"},"group":[{"id":"Group_1","population":[{"id":"InitialPopulation_1","code":{"coding":[{"system":"http://terminology.hl7.org/CodeSystem/measure-population","code":"initial-population","display":"Initial Population"}]},"count":1},{"id":"Denominator_1","code":{"coding":[{"system":"http://terminology.hl7.org/CodeSystem/measure-population","code":"denominator","display":"Denominator"}]},"count":1},{"id":"Numerator_1","code":{"coding":[{"system":"http://terminology.hl7.org/CodeSystem/measure-population","code":"numerator","display":"Numerator"}]},"count":1}],"measureScore":{"value":0.0},"stratifier":[{"id":"Stratification_1_1","code":[{"text":"Strata-1"}],"stratum":[{"value":{"text":"Strata-1"},"population":[{"id":"InitialPopulation_1","code":{"coding":[{"system":"http://terminology.hl7.org/CodeSystem/measure-population","code":"initial-population","display":"Initial Population"}]},"count":0},{"id":"Denominator_1","code":{"coding":[{"system":"http://terminology.hl7.org/CodeSystem/measure-population","code":"denominator","display":"Denominator"}]},"count":0},{"id":"Numerator_1","code":{"coding":[{"system":"http://terminology.hl7.org/CodeSystem/measure-population","code":"numerator","display":"Numerator"}]},"count":0}]}]},{"id":"Stratification_1_2","code":[{"text":"Strata-2"}],"stratum":[{"value":{"text":"Strata-2"},"population":[{"id":"InitialPopulation_1","code":{"coding":[{"system":"http://terminology.hl7.org/CodeSystem/measure-population","code":"initial-population","display":"Initial Population"}]},"count":1},{"id":"Denominator_1","code":{"coding":[{"system":"http://terminology.hl7.org/CodeSystem/measure-population","code":"denominator","display":"Denominator"}]},"count":1},{"id":"Numerator_1","code":{"coding":[{"system":"http://terminology.hl7.org/CodeSystem/measure-population","code":"numerator","display":"Numerator"}]},"count":1}]}]},{"id":"Stratification_1_3","code":[{"text":"Strata-3"}],"stratum":[{"value":{"text":"Strata-3"},"population":[{"id":"InitialPopulation_1","code":{"coding":[{"system":"http://terminology.hl7.org/CodeSystem/measure-population","code":"initial-population","display":"Initial Population"}]},"count":0},{"id":"Denominator_1","code":{"coding":[{"system":"http://terminology.hl7.org/CodeSystem/measure-population","code":"denominator","display":"Denominator"}]},"count":0},{"id":"Numerator_1","code":{"coding":[{"system":"http://terminology.hl7.org/CodeSystem/measure-population","code":"numerator","display":"Numerator"}]},"count":0}]}]},{"id":"Stratification_1_4","code":[{"text":"Strata-4"}],"stratum":[{"value":{"text":"Strata-4"},"population":[{"id":"InitialPopulation_1","code":{"coding":[{"system":"http://terminology.hl7.org/CodeSystem/measure-population","code":"initial-population","display":"Initial Population"}]},"count":0},{"id":"Denominator_1","code":{"coding":[{"system":"http://terminology.hl7.org/CodeSystem/measure-population","code":"denominator","display":"Denominator"}]},"count":0},{"id":"Numerator_1","code":{"coding":[{"system":"http://terminology.hl7.org/CodeSystem/measure-population","code":"numerator","display":"Numerator"}]},"count":0}]}]}]}],"evaluatedResource":[{"reference":"Patient/1f8035de-4255-434e-a32f-b97039ec57ff"},{"reference":"Encounter/9366be6b-637a-49d4-84ca-3efad7370b79"},{"reference":"ServiceRequest/6af4120d-ac92-48f4-ace5-30c42c8c1bc3"},{"reference":"Location/a05b5d0a-b34a-4a88-b372-929d285ba90c"},{"reference":"Location/3b585df0-acc4-4c10-a0ef-6b2f920e9902"},{"reference":"Claim/ClaimBehavior-NotSubsAbuse"},{"reference":"Coverage/8792b7b8-bb7c-4af1-8258-53a6bc780669"},{"reference":"Condition/621a36c5-373c-4428-a642-411e26c96fc4"},{"reference":"Encounter/5bca82bd-b04f-419b-a0f5-a28d54c1b7fc"},{"reference":"Organization/c2593529-2eab-472e-a2ea-ae6d3dda2ae6"},{"reference":"Practitioner/62c90ec7-847d-45cd-b0c0-40af02f86bcb"}]},"request":{"method":"PUT","url":"MeasureReport/26c06877-1df5-4033-98a6-701017d39306"}}]},"request":{"method":"PUT","url":"Bundle/661476b015ed5841a5547ebf"}},{"fullUrl":"Location/a05b5d0a-b34a-4a88-b372-929d285ba90c","resource":{"resourceType":"Location","id":"a05b5d0a-b34a-4a88-b372-929d285ba90c","meta":{"profile":["http://hl7.org/fhir/us/qicore/StructureDefinition/qicore-location"]},"identifier":[{"use":"usual","system":"http://exampleoflocation.com","value":"B1-S.F2"}],"name":"MEmergency Department","type":[{"coding":[{"system":"https://www.cdc.gov/nhsn/cdaportal/terminology/codesystem/hsloc.html","version":"2022","code":"1108-0","display":"Emergency Department","userSelected":true}]}]},"request":{"method":"PUT","url":"Location/a05b5d0a-b34a-4a88-b372-929d285ba90c"}},{"fullUrl":"MeasureReport/26c06877-1df5-4033-98a6-701017d39306","resource":{"resourceType":"MeasureReport","id":"26c06877-1df5-4033-98a6-701017d39306","meta":{"profile":["http://hl7.org/fhir/us/cqfmeasures/StructureDefinition/test-case-cqfm"]},"contained":[{"resourceType":"Parameters","id":"75cf7fca-c9cb-4e38-a829-aeaab26fc642-parameters","parameter":[{"name":"subject","valueString":"1f8035de-4255-434e-a32f-b97039ec57ff"}]}],"extension":[{"url":"http://hl7.org/fhir/StructureDefinition/cqf-inputParameters","valueReference":{"reference":"#75cf7fca-c9cb-4e38-a829-aeaab26fc642-parameters"}},{"url":"http://hl7.org/fhir/us/cqfmeasures/StructureDefinition/cqfm-testCaseDescription","valueMarkdown":"Time to treatment greater than 60 mins. LOS greater than 8 hours with observational stay."}],"modifierExtension":[{"url":"http://hl7.org/fhir/us/cqfmeasures/StructureDefinition/cqfm-isTestCase","valueBoolean":true}],"status":"complete","type":"individual","measure":"https://madie.cms.gov/Measure/CMS1264FHIRECATREHQR","period":{"start":"2027-01-01","end":"2027-12-31"},"group":[{"id":"Group_1","population":[{"id":"InitialPopulation_1","code":{"coding":[{"system":"http://terminology.hl7.org/CodeSystem/measure-population","code":"initial-population","display":"Initial Population"}]},"count":1},{"id":"Denominator_1","code":{"coding":[{"system":"http://terminology.hl7.org/CodeSystem/measure-population","code":"denominator","display":"Denominator"}]},"count":1},{"id":"Numerator_1","code":{"coding":[{"system":"http://terminology.hl7.org/CodeSystem/measure-population","code":"numerator","display":"Numerator"}]},"count":1}],"measureScore":{"value":0.0},"stratifier":[{"id":"Stratification_1_1","code":[{"text":"Strata-1"}],"stratum":[{"value":{"text":"Strata-1"},"population":[{"id":"InitialPopulation_1","code":{"coding":[{"system":"http://terminology.hl7.org/CodeSystem/measure-population","code":"initial-population","display":"Initial Population"}]},"count":0},{"id":"Denominator_1","code":{"coding":[{"system":"http://terminology.hl7.org/CodeSystem/measure-population","code":"denominator","display":"Denominator"}]},"count":0},{"id":"Numerator_1","code":{"coding":[{"system":"http://terminology.hl7.org/CodeSystem/measure-population","code":"numerator","display":"Numerator"}]},"count":0}]}]},{"id":"Stratification_1_2","code":[{"text":"Strata-2"}],"stratum":[{"value":{"text":"Strata-2"},"population":[{"id":"InitialPopulation_1","code":{"coding":[{"system":"http://terminology.hl7.org/CodeSystem/measure-population","code":"initial-population","display":"Initial Population"}]},"count":1},{"id":"Denominator_1","code":{"coding":[{"system":"http://terminology.hl7.org/CodeSystem/measure-population","code":"denominator","display":"Denominator"}]},"count":1},{"id":"Numerator_1","code":{"coding":[{"system":"http://terminology.hl7.org/CodeSystem/measure-population","code":"numerator","display":"Numerator"}]},"count":1}]}]},{"id":"Stratification_1_3","code":[{"text":"Strata-3"}],"stratum":[{"value":{"text":"Strata-3"},"population":[{"id":"InitialPopulation_1","code":{"coding":[{"system":"http://terminology.hl7.org/CodeSystem/measure-population","code":"initial-population","display":"Initial Population"}]},"count":0},{"id":"Denominator_1","code":{"coding":[{"system":"http://terminology.hl7.org/CodeSystem/measure-population","code":"denominator","display":"Denominator"}]},"count":0},{"id":"Numerator_1","code":{"coding":[{"system":"http://terminology.hl7.org/CodeSystem/measure-population","code":"numerator","display":"Numerator"}]},"count":0}]}]},{"id":"Stratification_1_4","code":[{"text":"Strata-4"}],"stratum":[{"value":{"text":"Strata-4"},"population":[{"id":"InitialPopulation_1","code":{"coding":[{"system":"http://terminology.hl7.org/CodeSystem/measure-population","code":"initial-population","display":"Initial Population"}]},"count":0},{"id":"Denominator_1","code":{"coding":[{"system":"http://terminology.hl7.org/CodeSystem/measure-population","code":"denominator","display":"Denominator"}]},"count":0},{"id":"Numerator_1","code":{"coding":[{"system":"http://terminology.hl7.org/CodeSystem/measure-population","code":"numerator","display":"Numerator"}]},"count":0}]}]}]}],"evaluatedResource":[{"reference":"Patient/1f8035de-4255-434e-a32f-b97039ec57ff"},{"reference":"Encounter/9366be6b-637a-49d4-84ca-3efad7370b79"},{"reference":"ServiceRequest/6af4120d-ac92-48f4-ace5-30c42c8c1bc3"},{"reference":"Location/a05b5d0a-b34a-4a88-b372-929d285ba90c"},{"reference":"Location/3b585df0-acc4-4c10-a0ef-6b2f920e9902"},{"reference":"Claim/ClaimBehavior-NotSubsAbuse"},{"reference":"Coverage/8792b7b8-bb7c-4af1-8258-53a6bc780669"},{"reference":"Condition/621a36c5-373c-4428-a642-411e26c96fc4"},{"reference":"Encounter/5bca82bd-b04f-419b-a0f5-a28d54c1b7fc"},{"reference":"Organization/c2593529-2eab-472e-a2ea-ae6d3dda2ae6"},{"reference":"Practitioner/62c90ec7-847d-45cd-b0c0-40af02f86bcb"}]},"request":{"method":"PUT","url":"MeasureReport/26c06877-1df5-4033-98a6-701017d39306"}},{"fullUrl":"Condition/621a36c5-373c-4428-a642-411e26c96fc4","resource":{"resourceType":"Condition","id":"621a36c5-373c-4428-a642-411e26c96fc4","meta":{"profile":["http://hl7.org/fhir/us/qicore/StructureDefinition/qicore-condition-encounter-diagnosis"]},"category":[{"coding":[{"system":"http://terminology.hl7.org/CodeSystem/condition-category","code":"encounter-diagnosis","display":"Encounter Diagnosis"}]}],"code":{"coding":[{"system":"http://snomed.info/sct","version":"2023-09","code":"10674711000119105","display":"Acute severe exacerbation of asthma co-occurrent with allergic rhinitis (disorder)","userSelected":true}]},"subject":{"reference":"Patient/1f8035de-4255-434e-a32f-b97039ec57ff"},"recordedDate":"2027-05-01T08:00:00.000+00:00"},"request":{"method":"PUT","url":"Condition/621a36c5-373c-4428-a642-411e26c96fc4"}},{"fullUrl":"Claim/ClaimBehavior-NotSubsAbuse","resource":{"resourceType":"Claim","id":"ClaimBehavior-NotSubsAbuse","meta":{"profile":["http://hl7.org/fhir/us/qicore/StructureDefinition/qicore-claim"]},"status":"active","type":{"coding":[{"system":"http://terminology.hl7.org/CodeSystem/claim-type","code":"institutional"}]},"use":"claim","patient":{"reference":"Patient/1f8035de-4255-434e-a32f-b97039ec57ff"},"created":"2027-05-01","provider":{"reference":"Practitioner/practitioner-123456"},"priority":{"coding":[{"system":"http://terminology.hl7.org/CodeSystem/processpriority","code":"normal"}]},"diagnosis":[{"sequence":1,"diagnosisReference":{"reference":"Condition/621a36c5-373c-4428-a642-411e26c96fc4"},"type":[{"coding":[{"system":"http://terminology.hl7.org/CodeSystem/ex-diagnosistype","code":"principal"}]}]}],"insurance":[{"sequence":1,"focal":true,"coverage":{"reference":"Coverage/1"}}],"item":[{"sequence":1,"diagnosisSequence":[1],"productOrService":{"coding":[{"system":"http://terminology.hl7.org/CodeSystem/ex-USCLS","code":"99555"}]},"encounter":[{"reference":"Encounter/9366be6b-637a-49d4-84ca-3efad7370b79"}]}]},"request":{"method":"PUT","url":"Claim/ClaimBehavior-NotSubsAbuse"}},{"fullUrl":"Encounter/9366be6b-637a-49d4-84ca-3efad7370b79","resource":{"resourceType":"Encounter","id":"9366be6b-637a-49d4-84ca-3efad7370b79","meta":{"profile":["http://hl7.org/fhir/us/qicore/StructureDefinition/qicore-encounter"]},"status":"finished","class":{"system":"http://terminology.hl7.org/CodeSystem/v3-ActCode","code":"EMER","display":"emergency department"},"type":[{"coding":[{"system":"http://snomed.info/sct","version":"2023-09","code":"4525004","display":"Emergency department patient visit (procedure)","userSelected":true}]}],"subject":{"reference":"Patient/1f8035de-4255-434e-a32f-b97039ec57ff"},"period":{"start":"2027-05-01T00:00:00.000+00:00","end":"2027-05-01T06:00:00.000+00:00"},"diagnosis":[{"condition":{"reference":"Condition/621a36c5-373c-4428-a642-411e26c96fc4"},"use":{"coding":[{"system":"http://terminology.hl7.org/CodeSystem/diagnosis-role","code":"billing"}]},"rank":1}],"location":[{"location":{"reference":"Location/a05b5d0a-b34a-4a88-b372-929d285ba90c"},"period":{"start":"2027-05-01T00:00:00.000+00:00","end":"2027-05-01T10:01:00.000+00:00"}},{"location":{"reference":"Location/3b585df0-acc4-4c10-a0ef-6b2f920e9902"},"period":{"start":"2027-05-01T02:00:00.000+00:00","end":"2027-05-01T10:01:00.000+00:00"}}]},"request":{"method":"PUT","url":"Encounter/9366be6b-637a-49d4-84ca-3efad7370b79"}},{"fullUrl":"Location/3b585df0-acc4-4c10-a0ef-6b2f920e9902","resource":{"resourceType":"Location","id":"3b585df0-acc4-4c10-a0ef-6b2f920e9902","meta":{"profile":["http://hl7.org/fhir/us/qicore/StructureDefinition/qicore-location"]},"identifier":[{"use":"usual","system":"http://exampleoflocation.com","value":"B1-S.F2"}],"name":"Emergency Department","type":[{"coding":[{"system":"https://www.cdc.gov/nhsn/cdaportal/terminology/codesystem/hsloc.html","version":"2022","code":"1209-6","display":"Treatment Room","userSelected":true}]}]},"request":{"method":"PUT","url":"Location/3b585df0-acc4-4c10-a0ef-6b2f920e9902"}},{"fullUrl":"Organization/c2593529-2eab-472e-a2ea-ae6d3dda2ae6","resource":{"resourceType":"Organization","id":"c2593529-2eab-472e-a2ea-ae6d3dda2ae6","meta":{"profile":["http://hl7.org/fhir/us/qicore/StructureDefinition/qicore-organization"]},"identifier":[{"use":"temp","system":"urn:oid:2.16.840.1.113883.4.4","value":"21-3259825"}],"active":true,"type":[{"coding":[{"system":"http://terminology.hl7.org/CodeSystem/organization-type","code":"pay","display":"Payer"}]}],"name":"Blue Cross Blue Shield of Texas","telecom":[{"system":"phone","value":"(+1) 972-766-6900"}],"address":[{"use":"billing","type":"postal","line":["P.O. Box 660044"],"city":"Dallas","state":"TX","postalCode":"75266-0044","country":"USA"}]},"request":{"method":"PUT","url":"Organization/c2593529-2eab-472e-a2ea-ae6d3dda2ae6"}}]}