{"resourceType":"Bundle","id":"tests-eabe386d-5bca-4fdd-acb0-8228b4df83c0-bundle","type":"transaction","entry":[{"fullUrl":"ServiceRequest/e6a37115-10ba-4005-83f1-de1c3af6e8e4","resource":{"resourceType":"ServiceRequest","id":"e6a37115-10ba-4005-83f1-de1c3af6e8e4","meta":{"profile":["http://hl7.org/fhir/us/qicore/StructureDefinition/qicore-servicerequest"]},"status":"active","intent":"plan","code":{"coding":[{"system":"http://snomed.info/sct","version":"2023-09","code":"19951005","display":"Hospital admission, emergency, from emergency room, medical nature (procedure)","userSelected":true}]},"subject":{"reference":"Patient/eabe386d-5bca-4fdd-acb0-8228b4df83c0"},"authoredOn":"2027-05-01T01:58:00.000+00:00"},"request":{"method":"PUT","url":"ServiceRequest/e6a37115-10ba-4005-83f1-de1c3af6e8e4"}},{"fullUrl":"Coverage/d1ca786b-2a96-4957-bddf-2105ee4d66f1","resource":{"resourceType":"Coverage","id":"d1ca786b-2a96-4957-bddf-2105ee4d66f1","meta":{"profile":["http://hl7.org/fhir/us/qicore/StructureDefinition/qicore-coverage"]},"identifier":[{"type":{"coding":[{"system":"http://terminology.hl7.org/CodeSystem/v2-0203","code":"MB"}]}}],"status":"active","beneficiary":{"reference":"Patient/eabe386d-5bca-4fdd-acb0-8228b4df83c0"},"relationship":{"coding":[{"system":"http://terminology.hl7.org/CodeSystem/subscriber-relationship","code":"self"}]},"payor":[{"reference":"Organization/0c686ed7-0862-4fcd-be0d-e2401171c535"}]},"request":{"method":"PUT","url":"Coverage/d1ca786b-2a96-4957-bddf-2105ee4d66f1"}},{"fullUrl":"Practitioner/86eb2ba3-88fa-4f12-bf7e-96901e11bab3","resource":{"resourceType":"Practitioner","id":"86eb2ba3-88fa-4f12-bf7e-96901e11bab3","meta":{"profile":["http://hl7.org/fhir/us/qicore/StructureDefinition/qicore-practitioner"]},"identifier":[{"system":"http://hl7.org/fhir/sid/us-npi","value":"9999999896"}],"name":[{"family":"Evil","prefix":["Dr"]}]},"request":{"method":"PUT","url":"Practitioner/86eb2ba3-88fa-4f12-bf7e-96901e11bab3"}},{"fullUrl":"Organization/0c686ed7-0862-4fcd-be0d-e2401171c535","resource":{"resourceType":"Organization","id":"0c686ed7-0862-4fcd-be0d-e2401171c535","meta":{"profile":["http://hl7.org/fhir/us/qicore/StructureDefinition/qicore-organization"]},"identifier":[{"use":"temp","system":"urn:oid:2.16.840.1.113883.4.4","value":"21-3259825"}],"active":true,"type":[{"coding":[{"system":"http://terminology.hl7.org/CodeSystem/organization-type","code":"pay","display":"Payer"}]}],"name":"Blue Cross Blue Shield of Texas","telecom":[{"system":"phone","value":"(+1) 972-766-6900"}],"address":[{"use":"billing","type":"postal","line":["P.O. Box 660044"],"city":"Dallas","state":"TX","postalCode":"75266-0044","country":"USA"}]},"request":{"method":"PUT","url":"Organization/0c686ed7-0862-4fcd-be0d-e2401171c535"}},{"fullUrl":"Location/2d75ae9f-a7ac-4631-87db-d6cb6f6ded54","resource":{"resourceType":"Location","id":"2d75ae9f-a7ac-4631-87db-d6cb6f6ded54","meta":{"profile":["http://hl7.org/fhir/us/qicore/StructureDefinition/qicore-location"]},"identifier":[{"use":"usual","system":"http://exampleoflocation.com","value":"B1-S.F2"}],"name":"Emergency Department","type":[{"coding":[{"system":"https://www.cdc.gov/nhsn/cdaportal/terminology/codesystem/hsloc.html","version":"2022","code":"1108-0","display":"Emergency Department","userSelected":true}]}]},"request":{"method":"PUT","url":"Location/2d75ae9f-a7ac-4631-87db-d6cb6f6ded54"}},{"fullUrl":"Condition/7ce96252-0997-4fda-af23-3d5c89a43b99","resource":{"resourceType":"Condition","id":"7ce96252-0997-4fda-af23-3d5c89a43b99","meta":{"profile":["http://hl7.org/fhir/us/qicore/StructureDefinition/qicore-condition-encounter-diagnosis"]},"category":[{"coding":[{"system":"http://terminology.hl7.org/CodeSystem/condition-category","code":"encounter-diagnosis","display":"Encounter Diagnosis"}]}],"code":{"coding":[{"system":"http://snomed.info/sct","version":"2023-09","code":"10349009","display":"Multi-infarct dementia with delirium (disorder)","userSelected":true}]},"subject":{"reference":"Patient/eabe386d-5bca-4fdd-acb0-8228b4df83c0"},"recordedDate":"2027-04-09T08:00:00.000+00:00"},"request":{"method":"PUT","url":"Condition/7ce96252-0997-4fda-af23-3d5c89a43b99"}},{"fullUrl":"Bundle/661476b015ed5841a5547ebf","resource":{"resourceType":"Bundle","id":"661476b015ed5841a5547ebf","type":"transaction","entry":[{"fullUrl":"https://madie.cms.gov/Patient/eabe386d-5bca-4fdd-acb0-8228b4df83c0","resource":{"resourceType":"Patient","id":"eabe386d-5bca-4fdd-acb0-8228b4df83c0","meta":{"profile":["http://hl7.org/fhir/us/qicore/StructureDefinition/qicore-patient"]},"extension":[{"url":"http://hl7.org/fhir/us/core/StructureDefinition/us-core-race","extension":[{"url":"ombCategory","valueCoding":{"system":"urn:oid:2.16.840.1.113883.6.238","code":"1002-5","display":"American Indian or Alaska Native","userSelected":true}},{"url":"text","valueString":"American Indian or Alaska Native"}]},{"url":"http://hl7.org/fhir/us/core/StructureDefinition/us-core-ethnicity","extension":[{"url":"ombCategory","valueCoding":{"system":"urn:oid:2.16.840.1.113883.6.238","code":"2135-2","display":"Hispanic or Latino","userSelected":true}},{"url":"text","valueString":"Hispanic or Latino"}]},{"url":"http://hl7.org/fhir/us/core/StructureDefinition/us-core-sex","valueCode":"248153007"}],"identifier":[{"type":{"coding":[{"system":"http://terminology.hl7.org/CodeSystem/v2-0203","code":"MR"}]},"system":"https://bonnie-fhir.healthit.gov/","value":"661476b015ed5841a5547ebf"}],"name":[{"family":"DENOMStrat4Pass","given":["EncDuringMP"]}],"gender":"male","birthDate":"2008-01-01"},"request":{"method":"PUT","url":"Patient/eabe386d-5bca-4fdd-acb0-8228b4df83c0"}},{"fullUrl":"https://madie.cms.gov/Encounter/55798ce1-1369-4937-9786-a4f8a78f3b9b","resource":{"resourceType":"Encounter","id":"55798ce1-1369-4937-9786-a4f8a78f3b9b","meta":{"profile":["http://hl7.org/fhir/us/qicore/StructureDefinition/qicore-encounter"]},"status":"finished","class":{"system":"http://terminology.hl7.org/CodeSystem/v3-ActCode","code":"EMER","display":"emergency department"},"type":[{"coding":[{"system":"http://snomed.info/sct","version":"2023-09","code":"4525004","display":"Emergency department patient visit (procedure)","userSelected":true}]}],"subject":{"reference":"Patient/eabe386d-5bca-4fdd-acb0-8228b4df83c0"},"period":{"start":"2027-05-01T19:58:00.000+00:00","end":"2027-05-01T23:59:00.000+00:00"},"diagnosis":[{"condition":{"reference":"Condition/7ce96252-0997-4fda-af23-3d5c89a43b99"},"use":{"coding":[{"system":"http://terminology.hl7.org/CodeSystem/diagnosis-role","code":"billing"}]},"rank":1}],"location":[{"location":{"reference":"Location/2d75ae9f-a7ac-4631-87db-d6cb6f6ded54"},"period":{"start":"2027-05-01T00:01:00.000+00:00","end":"2027-05-01T02:59:00.000+00:00"}}]},"request":{"method":"PUT","url":"Encounter/55798ce1-1369-4937-9786-a4f8a78f3b9b"}},{"fullUrl":"https://madie.cms.gov/ServiceRequest/e6a37115-10ba-4005-83f1-de1c3af6e8e4","resource":{"resourceType":"ServiceRequest","id":"e6a37115-10ba-4005-83f1-de1c3af6e8e4","meta":{"profile":["http://hl7.org/fhir/us/qicore/StructureDefinition/qicore-servicerequest"]},"status":"active","intent":"plan","code":{"coding":[{"system":"http://snomed.info/sct","version":"2023-09","code":"19951005","display":"Hospital admission, emergency, from emergency room, medical nature (procedure)","userSelected":true}]},"subject":{"reference":"Patient/eabe386d-5bca-4fdd-acb0-8228b4df83c0"},"authoredOn":"2027-05-01T01:58:00.000+00:00"},"request":{"method":"PUT","url":"ServiceRequest/e6a37115-10ba-4005-83f1-de1c3af6e8e4"}},{"fullUrl":"https://madie.cms.gov/Location/2d75ae9f-a7ac-4631-87db-d6cb6f6ded54","resource":{"resourceType":"Location","id":"2d75ae9f-a7ac-4631-87db-d6cb6f6ded54","meta":{"profile":["http://hl7.org/fhir/us/qicore/StructureDefinition/qicore-location"]},"identifier":[{"use":"usual","system":"http://exampleoflocation.com","value":"B1-S.F2"}],"name":"Emergency Department","type":[{"coding":[{"system":"https://www.cdc.gov/nhsn/cdaportal/terminology/codesystem/hsloc.html","version":"2022","code":"1108-0","display":"Emergency Department","userSelected":true}]}]},"request":{"method":"PUT","url":"Location/2d75ae9f-a7ac-4631-87db-d6cb6f6ded54"}},{"fullUrl":"https://madie.cms.gov/claim/ClaimBehavior-NotSubsAbuse","resource":{"resourceType":"Claim","id":"ClaimBehavior-NotSubsAbuse","meta":{"profile":["http://hl7.org/fhir/us/qicore/StructureDefinition/qicore-claim"]},"status":"active","type":{"coding":[{"system":"http://terminology.hl7.org/CodeSystem/claim-type","code":"institutional"}]},"use":"claim","patient":{"reference":"Patient/eabe386d-5bca-4fdd-acb0-8228b4df83c0"},"created":"2027-05-01","provider":{"reference":"Practitioner/practitioner-123456"},"priority":{"coding":[{"system":"http://terminology.hl7.org/CodeSystem/processpriority","code":"normal"}]},"diagnosis":[{"sequence":1,"diagnosisReference":{"reference":"Condition/7ce96252-0997-4fda-af23-3d5c89a43b99"},"type":[{"coding":[{"system":"http://terminology.hl7.org/CodeSystem/ex-diagnosistype","code":"principal"}]}]}],"insurance":[{"sequence":1,"focal":true,"coverage":{"reference":"Coverage/1"}}],"item":[{"sequence":1,"diagnosisSequence":[1],"productOrService":{"coding":[{"system":"http://terminology.hl7.org/CodeSystem/ex-USCLS","code":"99555"}]},"encounter":[{"reference":"Encounter/55798ce1-1369-4937-9786-a4f8a78f3b9b"}]}]},"request":{"method":"PUT","url":"Claim/ClaimBehavior-NotSubsAbuse"}},{"fullUrl":"https://madie.cms.gov/Coverage/d1ca786b-2a96-4957-bddf-2105ee4d66f1","resource":{"resourceType":"Coverage","id":"d1ca786b-2a96-4957-bddf-2105ee4d66f1","meta":{"profile":["http://hl7.org/fhir/us/qicore/StructureDefinition/qicore-coverage"]},"identifier":[{"type":{"coding":[{"system":"http://terminology.hl7.org/CodeSystem/v2-0203","code":"MB"}]}}],"status":"active","beneficiary":{"reference":"Patient/eabe386d-5bca-4fdd-acb0-8228b4df83c0"},"relationship":{"coding":[{"system":"http://terminology.hl7.org/CodeSystem/subscriber-relationship","code":"self"}]},"payor":[{"reference":"Organization/0c686ed7-0862-4fcd-be0d-e2401171c535"}]},"request":{"method":"PUT","url":"Coverage/d1ca786b-2a96-4957-bddf-2105ee4d66f1"}},{"fullUrl":"https://madie.cms.gov/Condition/7ce96252-0997-4fda-af23-3d5c89a43b99","resource":{"resourceType":"Condition","id":"7ce96252-0997-4fda-af23-3d5c89a43b99","meta":{"profile":["http://hl7.org/fhir/us/qicore/StructureDefinition/qicore-condition-encounter-diagnosis"]},"category":[{"coding":[{"system":"http://terminology.hl7.org/CodeSystem/condition-category","code":"encounter-diagnosis","display":"Encounter Diagnosis"}]}],"code":{"coding":[{"system":"http://snomed.info/sct","version":"2023-09","code":"10349009","display":"Multi-infarct dementia with delirium (disorder)","userSelected":true}]},"subject":{"reference":"Patient/eabe386d-5bca-4fdd-acb0-8228b4df83c0"},"recordedDate":"2027-04-09T08:00:00.000+00:00"},"request":{"method":"PUT","url":"Condition/7ce96252-0997-4fda-af23-3d5c89a43b99"}},{"fullUrl":"https://madie.cms.gov/Organization/0c686ed7-0862-4fcd-be0d-e2401171c535","resource":{"resourceType":"Organization","id":"0c686ed7-0862-4fcd-be0d-e2401171c535","meta":{"profile":["http://hl7.org/fhir/us/qicore/StructureDefinition/qicore-organization"]},"identifier":[{"use":"temp","system":"urn:oid:2.16.840.1.113883.4.4","value":"21-3259825"}],"active":true,"type":[{"coding":[{"system":"http://terminology.hl7.org/CodeSystem/organization-type","code":"pay","display":"Payer"}]}],"name":"Blue Cross Blue Shield of Texas","telecom":[{"system":"phone","value":"(+1) 972-766-6900"}],"address":[{"use":"billing","type":"postal","line":["P.O. Box 660044"],"city":"Dallas","state":"TX","postalCode":"75266-0044","country":"USA"}]},"request":{"method":"PUT","url":"Organization/0c686ed7-0862-4fcd-be0d-e2401171c535"}},{"fullUrl":"https://madie.cms.gov/Practitioner/86eb2ba3-88fa-4f12-bf7e-96901e11bab3","resource":{"resourceType":"Practitioner","id":"86eb2ba3-88fa-4f12-bf7e-96901e11bab3","meta":{"profile":["http://hl7.org/fhir/us/qicore/StructureDefinition/qicore-practitioner"]},"identifier":[{"system":"http://hl7.org/fhir/sid/us-npi","value":"9999999896"}],"name":[{"family":"Evil","prefix":["Dr"]}]},"request":{"method":"PUT","url":"Practitioner/86eb2ba3-88fa-4f12-bf7e-96901e11bab3"}},{"fullUrl":"https://madie.cms.gov/MeasureReport/69efe970-fc8e-44af-90c9-15ff3944b51f","resource":{"resourceType":"MeasureReport","id":"69efe970-fc8e-44af-90c9-15ff3944b51f","meta":{"profile":["http://hl7.org/fhir/us/cqfmeasures/StructureDefinition/test-case-cqfm"]},"contained":[{"resourceType":"Parameters","id":"2c74391a-2651-4a10-972b-695eb03c4645-parameters","parameter":[{"name":"subject","valueString":"eabe386d-5bca-4fdd-acb0-8228b4df83c0"}]}],"extension":[{"url":"http://hl7.org/fhir/StructureDefinition/cqf-inputParameters","valueReference":{"reference":"#2c74391a-2651-4a10-972b-695eb03c4645-parameters"}},{"url":"http://hl7.org/fhir/us/cqfmeasures/StructureDefinition/cqfm-testCaseDescription","valueMarkdown":"Encounter - transfer decision intent is plan instead of ordered"}],"modifierExtension":[{"url":"http://hl7.org/fhir/us/cqfmeasures/StructureDefinition/cqfm-isTestCase","valueBoolean":true}],"status":"complete","type":"individual","measure":"https://madie.cms.gov/Measure/CMS1264FHIRECATREHQR","period":{"start":"2027-01-01","end":"2027-12-31"},"group":[{"id":"Group_1","population":[{"id":"InitialPopulation_1","code":{"coding":[{"system":"http://terminology.hl7.org/CodeSystem/measure-population","code":"initial-population","display":"Initial Population"}]},"count":1},{"id":"Denominator_1","code":{"coding":[{"system":"http://terminology.hl7.org/CodeSystem/measure-population","code":"denominator","display":"Denominator"}]},"count":1},{"id":"Numerator_1","code":{"coding":[{"system":"http://terminology.hl7.org/CodeSystem/measure-population","code":"numerator","display":"Numerator"}]},"count":0}],"measureScore":{"value":0.0},"stratifier":[{"id":"Stratification_1_1","code":[{"text":"Strata-1"}],"stratum":[{"value":{"text":"Strata-1"},"population":[{"id":"InitialPopulation_1","code":{"coding":[{"system":"http://terminology.hl7.org/CodeSystem/measure-population","code":"initial-population","display":"Initial Population"}]},"count":0},{"id":"Denominator_1","code":{"coding":[{"system":"http://terminology.hl7.org/CodeSystem/measure-population","code":"denominator","display":"Denominator"}]},"count":0},{"id":"Numerator_1","code":{"coding":[{"system":"http://terminology.hl7.org/CodeSystem/measure-population","code":"numerator","display":"Numerator"}]},"count":0}]}]},{"id":"Stratification_1_2","code":[{"text":"Strata-2"}],"stratum":[{"value":{"text":"Strata-2"},"population":[{"id":"InitialPopulation_1","code":{"coding":[{"system":"http://terminology.hl7.org/CodeSystem/measure-population","code":"initial-population","display":"Initial Population"}]},"count":0},{"id":"Denominator_1","code":{"coding":[{"system":"http://terminology.hl7.org/CodeSystem/measure-population","code":"denominator","display":"Denominator"}]},"count":0},{"id":"Numerator_1","code":{"coding":[{"system":"http://terminology.hl7.org/CodeSystem/measure-population","code":"numerator","display":"Numerator"}]},"count":0}]}]},{"id":"Stratification_1_3","code":[{"text":"Strata-3"}],"stratum":[{"value":{"text":"Strata-3"},"population":[{"id":"InitialPopulation_1","code":{"coding":[{"system":"http://terminology.hl7.org/CodeSystem/measure-population","code":"initial-population","display":"Initial Population"}]},"count":0},{"id":"Denominator_1","code":{"coding":[{"system":"http://terminology.hl7.org/CodeSystem/measure-population","code":"denominator","display":"Denominator"}]},"count":0},{"id":"Numerator_1","code":{"coding":[{"system":"http://terminology.hl7.org/CodeSystem/measure-population","code":"numerator","display":"Numerator"}]},"count":0}]}]},{"id":"Stratification_1_4","code":[{"text":"Strata-4"}],"stratum":[{"value":{"text":"Strata-4"},"population":[{"id":"InitialPopulation_1","code":{"coding":[{"system":"http://terminology.hl7.org/CodeSystem/measure-population","code":"initial-population","display":"Initial Population"}]},"count":1},{"id":"Denominator_1","code":{"coding":[{"system":"http://terminology.hl7.org/CodeSystem/measure-population","code":"denominator","display":"Denominator"}]},"count":1},{"id":"Numerator_1","code":{"coding":[{"system":"http://terminology.hl7.org/CodeSystem/measure-population","code":"numerator","display":"Numerator"}]},"count":0}]}]}]}],"evaluatedResource":[{"reference":"Patient/eabe386d-5bca-4fdd-acb0-8228b4df83c0"},{"reference":"Encounter/55798ce1-1369-4937-9786-a4f8a78f3b9b"},{"reference":"ServiceRequest/e6a37115-10ba-4005-83f1-de1c3af6e8e4"},{"reference":"Location/2d75ae9f-a7ac-4631-87db-d6cb6f6ded54"},{"reference":"Claim/ClaimBehavior-NotSubsAbuse"},{"reference":"Coverage/d1ca786b-2a96-4957-bddf-2105ee4d66f1"},{"reference":"Condition/7ce96252-0997-4fda-af23-3d5c89a43b99"},{"reference":"Organization/0c686ed7-0862-4fcd-be0d-e2401171c535"},{"reference":"Practitioner/86eb2ba3-88fa-4f12-bf7e-96901e11bab3"}]},"request":{"method":"PUT","url":"MeasureReport/69efe970-fc8e-44af-90c9-15ff3944b51f"}}]},"request":{"method":"PUT","url":"Bundle/661476b015ed5841a5547ebf"}},{"fullUrl":"MeasureReport/69efe970-fc8e-44af-90c9-15ff3944b51f","resource":{"resourceType":"MeasureReport","id":"69efe970-fc8e-44af-90c9-15ff3944b51f","meta":{"profile":["http://hl7.org/fhir/us/cqfmeasures/StructureDefinition/test-case-cqfm"]},"contained":[{"resourceType":"Parameters","id":"2c74391a-2651-4a10-972b-695eb03c4645-parameters","parameter":[{"name":"subject","valueString":"eabe386d-5bca-4fdd-acb0-8228b4df83c0"}]}],"extension":[{"url":"http://hl7.org/fhir/StructureDefinition/cqf-inputParameters","valueReference":{"reference":"#2c74391a-2651-4a10-972b-695eb03c4645-parameters"}},{"url":"http://hl7.org/fhir/us/cqfmeasures/StructureDefinition/cqfm-testCaseDescription","valueMarkdown":"Encounter - transfer decision intent is plan instead of ordered"}],"modifierExtension":[{"url":"http://hl7.org/fhir/us/cqfmeasures/StructureDefinition/cqfm-isTestCase","valueBoolean":true}],"status":"complete","type":"individual","measure":"https://madie.cms.gov/Measure/CMS1264FHIRECATREHQR","period":{"start":"2027-01-01","end":"2027-12-31"},"group":[{"id":"Group_1","population":[{"id":"InitialPopulation_1","code":{"coding":[{"system":"http://terminology.hl7.org/CodeSystem/measure-population","code":"initial-population","display":"Initial Population"}]},"count":1},{"id":"Denominator_1","code":{"coding":[{"system":"http://terminology.hl7.org/CodeSystem/measure-population","code":"denominator","display":"Denominator"}]},"count":1},{"id":"Numerator_1","code":{"coding":[{"system":"http://terminology.hl7.org/CodeSystem/measure-population","code":"numerator","display":"Numerator"}]},"count":0}],"measureScore":{"value":0.0},"stratifier":[{"id":"Stratification_1_1","code":[{"text":"Strata-1"}],"stratum":[{"value":{"text":"Strata-1"},"population":[{"id":"InitialPopulation_1","code":{"coding":[{"system":"http://terminology.hl7.org/CodeSystem/measure-population","code":"initial-population","display":"Initial Population"}]},"count":0},{"id":"Denominator_1","code":{"coding":[{"system":"http://terminology.hl7.org/CodeSystem/measure-population","code":"denominator","display":"Denominator"}]},"count":0},{"id":"Numerator_1","code":{"coding":[{"system":"http://terminology.hl7.org/CodeSystem/measure-population","code":"numerator","display":"Numerator"}]},"count":0}]}]},{"id":"Stratification_1_2","code":[{"text":"Strata-2"}],"stratum":[{"value":{"text":"Strata-2"},"population":[{"id":"InitialPopulation_1","code":{"coding":[{"system":"http://terminology.hl7.org/CodeSystem/measure-population","code":"initial-population","display":"Initial Population"}]},"count":0},{"id":"Denominator_1","code":{"coding":[{"system":"http://terminology.hl7.org/CodeSystem/measure-population","code":"denominator","display":"Denominator"}]},"count":0},{"id":"Numerator_1","code":{"coding":[{"system":"http://terminology.hl7.org/CodeSystem/measure-population","code":"numerator","display":"Numerator"}]},"count":0}]}]},{"id":"Stratification_1_3","code":[{"text":"Strata-3"}],"stratum":[{"value":{"text":"Strata-3"},"population":[{"id":"InitialPopulation_1","code":{"coding":[{"system":"http://terminology.hl7.org/CodeSystem/measure-population","code":"initial-population","display":"Initial Population"}]},"count":0},{"id":"Denominator_1","code":{"coding":[{"system":"http://terminology.hl7.org/CodeSystem/measure-population","code":"denominator","display":"Denominator"}]},"count":0},{"id":"Numerator_1","code":{"coding":[{"system":"http://terminology.hl7.org/CodeSystem/measure-population","code":"numerator","display":"Numerator"}]},"count":0}]}]},{"id":"Stratification_1_4","code":[{"text":"Strata-4"}],"stratum":[{"value":{"text":"Strata-4"},"population":[{"id":"InitialPopulation_1","code":{"coding":[{"system":"http://terminology.hl7.org/CodeSystem/measure-population","code":"initial-population","display":"Initial Population"}]},"count":1},{"id":"Denominator_1","code":{"coding":[{"system":"http://terminology.hl7.org/CodeSystem/measure-population","code":"denominator","display":"Denominator"}]},"count":1},{"id":"Numerator_1","code":{"coding":[{"system":"http://terminology.hl7.org/CodeSystem/measure-population","code":"numerator","display":"Numerator"}]},"count":0}]}]}]}],"evaluatedResource":[{"reference":"Patient/eabe386d-5bca-4fdd-acb0-8228b4df83c0"},{"reference":"Encounter/55798ce1-1369-4937-9786-a4f8a78f3b9b"},{"reference":"ServiceRequest/e6a37115-10ba-4005-83f1-de1c3af6e8e4"},{"reference":"Location/2d75ae9f-a7ac-4631-87db-d6cb6f6ded54"},{"reference":"Claim/ClaimBehavior-NotSubsAbuse"},{"reference":"Coverage/d1ca786b-2a96-4957-bddf-2105ee4d66f1"},{"reference":"Condition/7ce96252-0997-4fda-af23-3d5c89a43b99"},{"reference":"Organization/0c686ed7-0862-4fcd-be0d-e2401171c535"},{"reference":"Practitioner/86eb2ba3-88fa-4f12-bf7e-96901e11bab3"}]},"request":{"method":"PUT","url":"MeasureReport/69efe970-fc8e-44af-90c9-15ff3944b51f"}},{"fullUrl":"Patient/eabe386d-5bca-4fdd-acb0-8228b4df83c0","resource":{"resourceType":"Patient","id":"eabe386d-5bca-4fdd-acb0-8228b4df83c0","meta":{"profile":["http://hl7.org/fhir/us/qicore/StructureDefinition/qicore-patient"]},"extension":[{"url":"http://hl7.org/fhir/us/core/StructureDefinition/us-core-race","extension":[{"url":"ombCategory","valueCoding":{"system":"urn:oid:2.16.840.1.113883.6.238","code":"1002-5","display":"American Indian or Alaska Native","userSelected":true}},{"url":"text","valueString":"American Indian or Alaska Native"}]},{"url":"http://hl7.org/fhir/us/core/StructureDefinition/us-core-ethnicity","extension":[{"url":"ombCategory","valueCoding":{"system":"urn:oid:2.16.840.1.113883.6.238","code":"2135-2","display":"Hispanic or Latino","userSelected":true}},{"url":"text","valueString":"Hispanic or Latino"}]},{"url":"http://hl7.org/fhir/us/core/StructureDefinition/us-core-sex","valueCode":"248153007"}],"identifier":[{"type":{"coding":[{"system":"http://terminology.hl7.org/CodeSystem/v2-0203","code":"MR"}]},"system":"https://bonnie-fhir.healthit.gov/","value":"661476b015ed5841a5547ebf"}],"name":[{"family":"DENOMStrat4Pass","given":["EncDuringMP"]}],"gender":"male","birthDate":"2008-01-01"},"request":{"method":"PUT","url":"Patient/eabe386d-5bca-4fdd-acb0-8228b4df83c0"}},{"fullUrl":"Claim/ClaimBehavior-NotSubsAbuse","resource":{"resourceType":"Claim","id":"ClaimBehavior-NotSubsAbuse","meta":{"profile":["http://hl7.org/fhir/us/qicore/StructureDefinition/qicore-claim"]},"status":"active","type":{"coding":[{"system":"http://terminology.hl7.org/CodeSystem/claim-type","code":"institutional"}]},"use":"claim","patient":{"reference":"Patient/eabe386d-5bca-4fdd-acb0-8228b4df83c0"},"created":"2027-05-01","provider":{"reference":"Practitioner/practitioner-123456"},"priority":{"coding":[{"system":"http://terminology.hl7.org/CodeSystem/processpriority","code":"normal"}]},"diagnosis":[{"sequence":1,"diagnosisReference":{"reference":"Condition/7ce96252-0997-4fda-af23-3d5c89a43b99"},"type":[{"coding":[{"system":"http://terminology.hl7.org/CodeSystem/ex-diagnosistype","code":"principal"}]}]}],"insurance":[{"sequence":1,"focal":true,"coverage":{"reference":"Coverage/1"}}],"item":[{"sequence":1,"diagnosisSequence":[1],"productOrService":{"coding":[{"system":"http://terminology.hl7.org/CodeSystem/ex-USCLS","code":"99555"}]},"encounter":[{"reference":"Encounter/55798ce1-1369-4937-9786-a4f8a78f3b9b"}]}]},"request":{"method":"PUT","url":"Claim/ClaimBehavior-NotSubsAbuse"}},{"fullUrl":"Encounter/55798ce1-1369-4937-9786-a4f8a78f3b9b","resource":{"resourceType":"Encounter","id":"55798ce1-1369-4937-9786-a4f8a78f3b9b","meta":{"profile":["http://hl7.org/fhir/us/qicore/StructureDefinition/qicore-encounter"]},"status":"finished","class":{"system":"http://terminology.hl7.org/CodeSystem/v3-ActCode","code":"EMER","display":"emergency department"},"type":[{"coding":[{"system":"http://snomed.info/sct","version":"2023-09","code":"4525004","display":"Emergency department patient visit (procedure)","userSelected":true}]}],"subject":{"reference":"Patient/eabe386d-5bca-4fdd-acb0-8228b4df83c0"},"period":{"start":"2027-05-01T19:58:00.000+00:00","end":"2027-05-01T23:59:00.000+00:00"},"diagnosis":[{"condition":{"reference":"Condition/7ce96252-0997-4fda-af23-3d5c89a43b99"},"use":{"coding":[{"system":"http://terminology.hl7.org/CodeSystem/diagnosis-role","code":"billing"}]},"rank":1}],"location":[{"location":{"reference":"Location/2d75ae9f-a7ac-4631-87db-d6cb6f6ded54"},"period":{"start":"2027-05-01T00:01:00.000+00:00","end":"2027-05-01T02:59:00.000+00:00"}}]},"request":{"method":"PUT","url":"Encounter/55798ce1-1369-4937-9786-a4f8a78f3b9b"}}]}