{"resourceType":"Bundle","id":"tests-11703274-1218-440d-bb98-08502a794179-bundle","type":"transaction","entry":[{"fullUrl":"Practitioner/03bc20bb-9685-42c6-913a-0671cb9e1809","resource":{"resourceType":"Practitioner","id":"03bc20bb-9685-42c6-913a-0671cb9e1809","meta":{"profile":["http://hl7.org/fhir/us/qicore/StructureDefinition/qicore-practitioner"]},"identifier":[{"system":"http://hl7.org/fhir/sid/us-npi","value":"9999999896"}],"name":[{"family":"Evil","prefix":["Dr"]}]},"request":{"method":"PUT","url":"Practitioner/03bc20bb-9685-42c6-913a-0671cb9e1809"}},{"fullUrl":"Patient/11703274-1218-440d-bb98-08502a794179","resource":{"resourceType":"Patient","id":"11703274-1218-440d-bb98-08502a794179","meta":{"profile":["http://hl7.org/fhir/us/qicore/StructureDefinition/qicore-patient"]},"extension":[{"url":"http://hl7.org/fhir/us/core/StructureDefinition/us-core-race","extension":[{"url":"ombCategory","valueCoding":{"system":"urn:oid:2.16.840.1.113883.6.238","code":"1002-5","display":"American Indian or Alaska Native","userSelected":true}},{"url":"text","valueString":"American Indian or Alaska Native"}]},{"url":"http://hl7.org/fhir/us/core/StructureDefinition/us-core-ethnicity","extension":[{"url":"ombCategory","valueCoding":{"system":"urn:oid:2.16.840.1.113883.6.238","code":"2135-2","display":"Hispanic or Latino","userSelected":true}},{"url":"text","valueString":"Hispanic or Latino"}]},{"url":"http://hl7.org/fhir/us/core/StructureDefinition/us-core-sex","valueCode":"248153007"}],"identifier":[{"type":{"coding":[{"system":"http://terminology.hl7.org/CodeSystem/v2-0203","code":"MR"}]},"system":"https://bonnie-fhir.healthit.gov/","value":"6617e30316793f5a4fae16fe"}],"name":[{"family":"NUMERStrat2Pass","given":["PatientTransfertoAnotherHealthCareFacility"]}],"gender":"male","birthDate":"2009-01-01"},"request":{"method":"PUT","url":"Patient/11703274-1218-440d-bb98-08502a794179"}},{"fullUrl":"Condition/c33e650d-c412-4df1-bae7-d2652173fd8e","resource":{"resourceType":"Condition","id":"c33e650d-c412-4df1-bae7-d2652173fd8e","meta":{"profile":["http://hl7.org/fhir/us/qicore/StructureDefinition/qicore-condition-encounter-diagnosis"]},"category":[{"coding":[{"system":"http://terminology.hl7.org/CodeSystem/condition-category","code":"encounter-diagnosis","display":"Encounter Diagnosis"}]}],"code":{"coding":[{"system":"http://snomed.info/sct","version":"2023-09","code":"10660471000119109","display":"Ulcer of left foot due to type 2 diabetes mellitus (disorder)","userSelected":true}]},"subject":{"reference":"Patient/11703274-1218-440d-bb98-08502a794179"},"recordedDate":"2027-05-01T08:00:00.000+00:00"},"request":{"method":"PUT","url":"Condition/c33e650d-c412-4df1-bae7-d2652173fd8e"}},{"fullUrl":"Location/ba0171cd-4028-4e05-8c7d-17b74ebc91df","resource":{"resourceType":"Location","id":"ba0171cd-4028-4e05-8c7d-17b74ebc91df","meta":{"profile":["http://hl7.org/fhir/us/qicore/StructureDefinition/qicore-location"]},"identifier":[{"use":"usual","system":"http://exampleoflocation.com","value":"B1-S.F2"}],"name":"Emergency Department","type":[{"coding":[{"system":"https://www.cdc.gov/nhsn/cdaportal/terminology/codesystem/hsloc.html","version":"2022","code":"1108-0","display":"Emergency Department","userSelected":true}]}]},"request":{"method":"PUT","url":"Location/ba0171cd-4028-4e05-8c7d-17b74ebc91df"}},{"fullUrl":"ServiceRequest/198ce377-d0d0-468b-8366-7057dcabfa30","resource":{"resourceType":"ServiceRequest","id":"198ce377-d0d0-468b-8366-7057dcabfa30","meta":{"profile":["http://hl7.org/fhir/us/qicore/StructureDefinition/qicore-servicerequest"]},"status":"completed","intent":"order","code":{"coding":[{"system":"http://snomed.info/sct","code":"19712007","display":"Patient transfer, to another health care facility (procedure)","userSelected":true}]},"subject":{"reference":"Patient/11703274-1218-440d-bb98-08502a794179"},"authoredOn":"2027-05-01T01:00:00.000+00:00"},"request":{"method":"PUT","url":"ServiceRequest/198ce377-d0d0-468b-8366-7057dcabfa30"}},{"fullUrl":"Organization/314ce27b-129f-4d84-a517-fec89b8788e7","resource":{"resourceType":"Organization","id":"314ce27b-129f-4d84-a517-fec89b8788e7","meta":{"profile":["http://hl7.org/fhir/us/qicore/StructureDefinition/qicore-organization"]},"identifier":[{"use":"temp","system":"urn:oid:2.16.840.1.113883.4.4","value":"21-3259825"}],"active":true,"type":[{"coding":[{"system":"http://terminology.hl7.org/CodeSystem/organization-type","code":"pay","display":"Payer"}]}],"name":"Blue Cross Blue Shield of Texas","telecom":[{"system":"phone","value":"(+1) 972-766-6900"}],"address":[{"use":"billing","type":"postal","line":["P.O. Box 660044"],"city":"Dallas","state":"TX","postalCode":"75266-0044","country":"USA"}]},"request":{"method":"PUT","url":"Organization/314ce27b-129f-4d84-a517-fec89b8788e7"}},{"fullUrl":"Bundle/6617e30316793f5a4fae16fe","resource":{"resourceType":"Bundle","id":"6617e30316793f5a4fae16fe","type":"transaction","entry":[{"fullUrl":"https://madie.cms.gov/Patient/11703274-1218-440d-bb98-08502a794179","resource":{"resourceType":"Patient","id":"11703274-1218-440d-bb98-08502a794179","meta":{"profile":["http://hl7.org/fhir/us/qicore/StructureDefinition/qicore-patient"]},"extension":[{"url":"http://hl7.org/fhir/us/core/StructureDefinition/us-core-race","extension":[{"url":"ombCategory","valueCoding":{"system":"urn:oid:2.16.840.1.113883.6.238","code":"1002-5","display":"American Indian or Alaska Native","userSelected":true}},{"url":"text","valueString":"American Indian or Alaska Native"}]},{"url":"http://hl7.org/fhir/us/core/StructureDefinition/us-core-ethnicity","extension":[{"url":"ombCategory","valueCoding":{"system":"urn:oid:2.16.840.1.113883.6.238","code":"2135-2","display":"Hispanic or Latino","userSelected":true}},{"url":"text","valueString":"Hispanic or Latino"}]},{"url":"http://hl7.org/fhir/us/core/StructureDefinition/us-core-sex","valueCode":"248153007"}],"identifier":[{"type":{"coding":[{"system":"http://terminology.hl7.org/CodeSystem/v2-0203","code":"MR"}]},"system":"https://bonnie-fhir.healthit.gov/","value":"6617e30316793f5a4fae16fe"}],"name":[{"family":"NUMERStrat2Pass","given":["PatientTransfertoAnotherHealthCareFacility"]}],"gender":"male","birthDate":"2009-01-01"},"request":{"method":"PUT","url":"Patient/11703274-1218-440d-bb98-08502a794179"}},{"fullUrl":"https://madie.cms.gov/Encounter/200ea20e-33d3-47d9-9446-9e44adf0e083","resource":{"resourceType":"Encounter","id":"200ea20e-33d3-47d9-9446-9e44adf0e083","meta":{"profile":["http://hl7.org/fhir/us/qicore/StructureDefinition/qicore-encounter"]},"status":"finished","class":{"system":"http://terminology.hl7.org/CodeSystem/v3-ActCode","code":"AMB","display":"ambulatory"},"type":[{"coding":[{"system":"http://snomed.info/sct","version":"2023-09","code":"4525004","display":"Emergency department patient visit (procedure)","userSelected":true}]}],"subject":{"reference":"Patient/11703274-1218-440d-bb98-08502a794179"},"period":{"start":"2027-05-01T00:00:00.000+00:00","end":"2027-05-01T04:00:00.000+00:00"},"diagnosis":[{"condition":{"reference":"Condition/c33e650d-c412-4df1-bae7-d2652173fd8e"},"use":{"coding":[{"system":"http://terminology.hl7.org/CodeSystem/diagnosis-role","code":"billing"}]},"rank":1}],"location":[{"location":{"reference":"Location/ba0171cd-4028-4e05-8c7d-17b74ebc91df"},"period":{"start":"2027-05-01T00:00:00.000+00:00","end":"2027-05-01T05:01:00.000+00:00"}}]},"request":{"method":"PUT","url":"Encounter/200ea20e-33d3-47d9-9446-9e44adf0e083"}},{"fullUrl":"https://madie.cms.gov/Location/ba0171cd-4028-4e05-8c7d-17b74ebc91df","resource":{"resourceType":"Location","id":"ba0171cd-4028-4e05-8c7d-17b74ebc91df","meta":{"profile":["http://hl7.org/fhir/us/qicore/StructureDefinition/qicore-location"]},"identifier":[{"use":"usual","system":"http://exampleoflocation.com","value":"B1-S.F2"}],"name":"Emergency Department","type":[{"coding":[{"system":"https://www.cdc.gov/nhsn/cdaportal/terminology/codesystem/hsloc.html","version":"2022","code":"1108-0","display":"Emergency Department","userSelected":true}]}]},"request":{"method":"PUT","url":"Location/ba0171cd-4028-4e05-8c7d-17b74ebc91df"}},{"fullUrl":"https://madie.cms.gov/ServiceRequest/198ce377-d0d0-468b-8366-7057dcabfa30","resource":{"resourceType":"ServiceRequest","id":"198ce377-d0d0-468b-8366-7057dcabfa30","meta":{"profile":["http://hl7.org/fhir/us/qicore/StructureDefinition/qicore-servicerequest"]},"status":"completed","intent":"order","code":{"coding":[{"system":"http://snomed.info/sct","code":"19712007","display":"Patient transfer, to another health care facility (procedure)","userSelected":true}]},"subject":{"reference":"Patient/11703274-1218-440d-bb98-08502a794179"},"authoredOn":"2027-05-01T01:00:00.000+00:00"},"request":{"method":"PUT","url":"ServiceRequest/198ce377-d0d0-468b-8366-7057dcabfa30"}},{"fullUrl":"https://madie.cms.gov/Condition/c33e650d-c412-4df1-bae7-d2652173fd8e","resource":{"resourceType":"Condition","id":"c33e650d-c412-4df1-bae7-d2652173fd8e","meta":{"profile":["http://hl7.org/fhir/us/qicore/StructureDefinition/qicore-condition-encounter-diagnosis"]},"category":[{"coding":[{"system":"http://terminology.hl7.org/CodeSystem/condition-category","code":"encounter-diagnosis","display":"Encounter Diagnosis"}]}],"code":{"coding":[{"system":"http://snomed.info/sct","version":"2023-09","code":"10660471000119109","display":"Ulcer of left foot due to type 2 diabetes mellitus (disorder)","userSelected":true}]},"subject":{"reference":"Patient/11703274-1218-440d-bb98-08502a794179"},"recordedDate":"2027-05-01T08:00:00.000+00:00"},"request":{"method":"PUT","url":"Condition/c33e650d-c412-4df1-bae7-d2652173fd8e"}},{"fullUrl":"https://madie.cms.gov/claim/ClaimBehavior-NotSubsAbuse","resource":{"resourceType":"Claim","id":"ClaimBehavior-NotSubsAbuse","meta":{"profile":["http://hl7.org/fhir/us/qicore/StructureDefinition/qicore-claim"]},"status":"active","type":{"coding":[{"system":"http://terminology.hl7.org/CodeSystem/claim-type","code":"institutional"}]},"use":"claim","patient":{"reference":"Patient/11703274-1218-440d-bb98-08502a794179"},"created":"2027-05-01","provider":{"reference":"Practitioner/practitioner-123456"},"priority":{"coding":[{"system":"http://terminology.hl7.org/CodeSystem/processpriority","code":"normal"}]},"diagnosis":[{"sequence":1,"diagnosisReference":{"reference":"Condition/c33e650d-c412-4df1-bae7-d2652173fd8e"},"type":[{"coding":[{"system":"http://terminology.hl7.org/CodeSystem/ex-diagnosistype","code":"principal"}]}]}],"insurance":[{"sequence":1,"focal":true,"coverage":{"reference":"Coverage/1"}}],"item":[{"sequence":1,"diagnosisSequence":[1],"productOrService":{"coding":[{"system":"http://terminology.hl7.org/CodeSystem/ex-USCLS","code":"99555"}]},"encounter":[{"reference":"Encounter/200ea20e-33d3-47d9-9446-9e44adf0e083"}]}]},"request":{"method":"PUT","url":"Claim/ClaimBehavior-NotSubsAbuse"}},{"fullUrl":"https://madie.cms.gov/Coverage/2738e44c-0806-45ad-b61a-dbbaacdf0380","resource":{"resourceType":"Coverage","id":"2738e44c-0806-45ad-b61a-dbbaacdf0380","meta":{"profile":["http://hl7.org/fhir/us/qicore/StructureDefinition/qicore-coverage"]},"identifier":[{"type":{"coding":[{"system":"http://terminology.hl7.org/CodeSystem/v2-0203","code":"MB"}]}}],"status":"active","beneficiary":{"reference":"Patient/11703274-1218-440d-bb98-08502a794179"},"relationship":{"coding":[{"system":"http://terminology.hl7.org/CodeSystem/subscriber-relationship","code":"self"}]},"payor":[{"reference":"Organization/314ce27b-129f-4d84-a517-fec89b8788e7"}]},"request":{"method":"PUT","url":"Coverage/2738e44c-0806-45ad-b61a-dbbaacdf0380"}},{"fullUrl":"https://madie.cms.gov/Organization/314ce27b-129f-4d84-a517-fec89b8788e7","resource":{"resourceType":"Organization","id":"314ce27b-129f-4d84-a517-fec89b8788e7","meta":{"profile":["http://hl7.org/fhir/us/qicore/StructureDefinition/qicore-organization"]},"identifier":[{"use":"temp","system":"urn:oid:2.16.840.1.113883.4.4","value":"21-3259825"}],"active":true,"type":[{"coding":[{"system":"http://terminology.hl7.org/CodeSystem/organization-type","code":"pay","display":"Payer"}]}],"name":"Blue Cross Blue Shield of Texas","telecom":[{"system":"phone","value":"(+1) 972-766-6900"}],"address":[{"use":"billing","type":"postal","line":["P.O. Box 660044"],"city":"Dallas","state":"TX","postalCode":"75266-0044","country":"USA"}]},"request":{"method":"PUT","url":"Organization/314ce27b-129f-4d84-a517-fec89b8788e7"}},{"fullUrl":"https://madie.cms.gov/Practitioner/03bc20bb-9685-42c6-913a-0671cb9e1809","resource":{"resourceType":"Practitioner","id":"03bc20bb-9685-42c6-913a-0671cb9e1809","meta":{"profile":["http://hl7.org/fhir/us/qicore/StructureDefinition/qicore-practitioner"]},"identifier":[{"system":"http://hl7.org/fhir/sid/us-npi","value":"9999999896"}],"name":[{"family":"Evil","prefix":["Dr"]}]},"request":{"method":"PUT","url":"Practitioner/03bc20bb-9685-42c6-913a-0671cb9e1809"}},{"fullUrl":"https://madie.cms.gov/MeasureReport/4047f446-0792-4057-a614-9e75ac0bf617","resource":{"resourceType":"MeasureReport","id":"4047f446-0792-4057-a614-9e75ac0bf617","meta":{"profile":["http://hl7.org/fhir/us/cqfmeasures/StructureDefinition/test-case-cqfm"]},"contained":[{"resourceType":"Parameters","id":"2428209c-4682-420c-a03d-243d5c763a42-parameters","parameter":[{"name":"subject","valueString":"11703274-1218-440d-bb98-08502a794179"}]}],"extension":[{"url":"http://hl7.org/fhir/StructureDefinition/cqf-inputParameters","valueReference":{"reference":"#2428209c-4682-420c-a03d-243d5c763a42-parameters"}},{"url":"http://hl7.org/fhir/us/cqfmeasures/StructureDefinition/cqfm-testCaseDescription","valueMarkdown":"Adult, age 18 ED first minute of MP,  bed assignment 241 mins before ED departure without psych "}],"modifierExtension":[{"url":"http://hl7.org/fhir/us/cqfmeasures/StructureDefinition/cqfm-isTestCase","valueBoolean":true}],"status":"complete","type":"individual","measure":"https://madie.cms.gov/Measure/CMS1264FHIRECATREHQR","period":{"start":"2027-01-01","end":"2027-12-31"},"group":[{"id":"Group_1","population":[{"id":"InitialPopulation_1","code":{"coding":[{"system":"http://terminology.hl7.org/CodeSystem/measure-population","code":"initial-population","display":"Initial Population"}]},"count":1},{"id":"Denominator_1","code":{"coding":[{"system":"http://terminology.hl7.org/CodeSystem/measure-population","code":"denominator","display":"Denominator"}]},"count":1},{"id":"Numerator_1","code":{"coding":[{"system":"http://terminology.hl7.org/CodeSystem/measure-population","code":"numerator","display":"Numerator"}]},"count":1}],"measureScore":{"value":0.0},"stratifier":[{"id":"Stratification_1_1","code":[{"text":"Strata-1"}],"stratum":[{"value":{"text":"Strata-1"},"population":[{"id":"InitialPopulation_1","code":{"coding":[{"system":"http://terminology.hl7.org/CodeSystem/measure-population","code":"initial-population","display":"Initial Population"}]},"count":0},{"id":"Denominator_1","code":{"coding":[{"system":"http://terminology.hl7.org/CodeSystem/measure-population","code":"denominator","display":"Denominator"}]},"count":0},{"id":"Numerator_1","code":{"coding":[{"system":"http://terminology.hl7.org/CodeSystem/measure-population","code":"numerator","display":"Numerator"}]},"count":0}]}]},{"id":"Stratification_1_2","code":[{"text":"Strata-2"}],"stratum":[{"value":{"text":"Strata-2"},"population":[{"id":"InitialPopulation_1","code":{"coding":[{"system":"http://terminology.hl7.org/CodeSystem/measure-population","code":"initial-population","display":"Initial Population"}]},"count":1},{"id":"Denominator_1","code":{"coding":[{"system":"http://terminology.hl7.org/CodeSystem/measure-population","code":"denominator","display":"Denominator"}]},"count":1},{"id":"Numerator_1","code":{"coding":[{"system":"http://terminology.hl7.org/CodeSystem/measure-population","code":"numerator","display":"Numerator"}]},"count":1}]}]},{"id":"Stratification_1_3","code":[{"text":"Strata-3"}],"stratum":[{"value":{"text":"Strata-3"},"population":[{"id":"InitialPopulation_1","code":{"coding":[{"system":"http://terminology.hl7.org/CodeSystem/measure-population","code":"initial-population","display":"Initial Population"}]},"count":0},{"id":"Denominator_1","code":{"coding":[{"system":"http://terminology.hl7.org/CodeSystem/measure-population","code":"denominator","display":"Denominator"}]},"count":0},{"id":"Numerator_1","code":{"coding":[{"system":"http://terminology.hl7.org/CodeSystem/measure-population","code":"numerator","display":"Numerator"}]},"count":0}]}]},{"id":"Stratification_1_4","code":[{"text":"Strata-4"}],"stratum":[{"value":{"text":"Strata-4"},"population":[{"id":"InitialPopulation_1","code":{"coding":[{"system":"http://terminology.hl7.org/CodeSystem/measure-population","code":"initial-population","display":"Initial Population"}]},"count":0},{"id":"Denominator_1","code":{"coding":[{"system":"http://terminology.hl7.org/CodeSystem/measure-population","code":"denominator","display":"Denominator"}]},"count":0},{"id":"Numerator_1","code":{"coding":[{"system":"http://terminology.hl7.org/CodeSystem/measure-population","code":"numerator","display":"Numerator"}]},"count":0}]}]}]}],"evaluatedResource":[{"reference":"Patient/11703274-1218-440d-bb98-08502a794179"},{"reference":"Encounter/200ea20e-33d3-47d9-9446-9e44adf0e083"},{"reference":"Location/ba0171cd-4028-4e05-8c7d-17b74ebc91df"},{"reference":"ServiceRequest/198ce377-d0d0-468b-8366-7057dcabfa30"},{"reference":"Condition/c33e650d-c412-4df1-bae7-d2652173fd8e"},{"reference":"Claim/ClaimBehavior-NotSubsAbuse"},{"reference":"Coverage/2738e44c-0806-45ad-b61a-dbbaacdf0380"},{"reference":"Organization/314ce27b-129f-4d84-a517-fec89b8788e7"},{"reference":"Practitioner/03bc20bb-9685-42c6-913a-0671cb9e1809"}]},"request":{"method":"PUT","url":"MeasureReport/4047f446-0792-4057-a614-9e75ac0bf617"}}]},"request":{"method":"PUT","url":"Bundle/6617e30316793f5a4fae16fe"}},{"fullUrl":"Coverage/2738e44c-0806-45ad-b61a-dbbaacdf0380","resource":{"resourceType":"Coverage","id":"2738e44c-0806-45ad-b61a-dbbaacdf0380","meta":{"profile":["http://hl7.org/fhir/us/qicore/StructureDefinition/qicore-coverage"]},"identifier":[{"type":{"coding":[{"system":"http://terminology.hl7.org/CodeSystem/v2-0203","code":"MB"}]}}],"status":"active","beneficiary":{"reference":"Patient/11703274-1218-440d-bb98-08502a794179"},"relationship":{"coding":[{"system":"http://terminology.hl7.org/CodeSystem/subscriber-relationship","code":"self"}]},"payor":[{"reference":"Organization/314ce27b-129f-4d84-a517-fec89b8788e7"}]},"request":{"method":"PUT","url":"Coverage/2738e44c-0806-45ad-b61a-dbbaacdf0380"}},{"fullUrl":"Claim/ClaimBehavior-NotSubsAbuse","resource":{"resourceType":"Claim","id":"ClaimBehavior-NotSubsAbuse","meta":{"profile":["http://hl7.org/fhir/us/qicore/StructureDefinition/qicore-claim"]},"status":"active","type":{"coding":[{"system":"http://terminology.hl7.org/CodeSystem/claim-type","code":"institutional"}]},"use":"claim","patient":{"reference":"Patient/11703274-1218-440d-bb98-08502a794179"},"created":"2027-05-01","provider":{"reference":"Practitioner/practitioner-123456"},"priority":{"coding":[{"system":"http://terminology.hl7.org/CodeSystem/processpriority","code":"normal"}]},"diagnosis":[{"sequence":1,"diagnosisReference":{"reference":"Condition/c33e650d-c412-4df1-bae7-d2652173fd8e"},"type":[{"coding":[{"system":"http://terminology.hl7.org/CodeSystem/ex-diagnosistype","code":"principal"}]}]}],"insurance":[{"sequence":1,"focal":true,"coverage":{"reference":"Coverage/1"}}],"item":[{"sequence":1,"diagnosisSequence":[1],"productOrService":{"coding":[{"system":"http://terminology.hl7.org/CodeSystem/ex-USCLS","code":"99555"}]},"encounter":[{"reference":"Encounter/200ea20e-33d3-47d9-9446-9e44adf0e083"}]}]},"request":{"method":"PUT","url":"Claim/ClaimBehavior-NotSubsAbuse"}},{"fullUrl":"Encounter/200ea20e-33d3-47d9-9446-9e44adf0e083","resource":{"resourceType":"Encounter","id":"200ea20e-33d3-47d9-9446-9e44adf0e083","meta":{"profile":["http://hl7.org/fhir/us/qicore/StructureDefinition/qicore-encounter"]},"status":"finished","class":{"system":"http://terminology.hl7.org/CodeSystem/v3-ActCode","code":"AMB","display":"ambulatory"},"type":[{"coding":[{"system":"http://snomed.info/sct","version":"2023-09","code":"4525004","display":"Emergency department patient visit (procedure)","userSelected":true}]}],"subject":{"reference":"Patient/11703274-1218-440d-bb98-08502a794179"},"period":{"start":"2027-05-01T00:00:00.000+00:00","end":"2027-05-01T04:00:00.000+00:00"},"diagnosis":[{"condition":{"reference":"Condition/c33e650d-c412-4df1-bae7-d2652173fd8e"},"use":{"coding":[{"system":"http://terminology.hl7.org/CodeSystem/diagnosis-role","code":"billing"}]},"rank":1}],"location":[{"location":{"reference":"Location/ba0171cd-4028-4e05-8c7d-17b74ebc91df"},"period":{"start":"2027-05-01T00:00:00.000+00:00","end":"2027-05-01T05:01:00.000+00:00"}}]},"request":{"method":"PUT","url":"Encounter/200ea20e-33d3-47d9-9446-9e44adf0e083"}},{"fullUrl":"MeasureReport/4047f446-0792-4057-a614-9e75ac0bf617","resource":{"resourceType":"MeasureReport","id":"4047f446-0792-4057-a614-9e75ac0bf617","meta":{"profile":["http://hl7.org/fhir/us/cqfmeasures/StructureDefinition/test-case-cqfm"]},"contained":[{"resourceType":"Parameters","id":"2428209c-4682-420c-a03d-243d5c763a42-parameters","parameter":[{"name":"subject","valueString":"11703274-1218-440d-bb98-08502a794179"}]}],"extension":[{"url":"http://hl7.org/fhir/StructureDefinition/cqf-inputParameters","valueReference":{"reference":"#2428209c-4682-420c-a03d-243d5c763a42-parameters"}},{"url":"http://hl7.org/fhir/us/cqfmeasures/StructureDefinition/cqfm-testCaseDescription","valueMarkdown":"Adult, age 18 ED first minute of MP,  bed assignment 241 mins before ED departure without psych "}],"modifierExtension":[{"url":"http://hl7.org/fhir/us/cqfmeasures/StructureDefinition/cqfm-isTestCase","valueBoolean":true}],"status":"complete","type":"individual","measure":"https://madie.cms.gov/Measure/CMS1264FHIRECATREHQR","period":{"start":"2027-01-01","end":"2027-12-31"},"group":[{"id":"Group_1","population":[{"id":"InitialPopulation_1","code":{"coding":[{"system":"http://terminology.hl7.org/CodeSystem/measure-population","code":"initial-population","display":"Initial Population"}]},"count":1},{"id":"Denominator_1","code":{"coding":[{"system":"http://terminology.hl7.org/CodeSystem/measure-population","code":"denominator","display":"Denominator"}]},"count":1},{"id":"Numerator_1","code":{"coding":[{"system":"http://terminology.hl7.org/CodeSystem/measure-population","code":"numerator","display":"Numerator"}]},"count":1}],"measureScore":{"value":0.0},"stratifier":[{"id":"Stratification_1_1","code":[{"text":"Strata-1"}],"stratum":[{"value":{"text":"Strata-1"},"population":[{"id":"InitialPopulation_1","code":{"coding":[{"system":"http://terminology.hl7.org/CodeSystem/measure-population","code":"initial-population","display":"Initial Population"}]},"count":0},{"id":"Denominator_1","code":{"coding":[{"system":"http://terminology.hl7.org/CodeSystem/measure-population","code":"denominator","display":"Denominator"}]},"count":0},{"id":"Numerator_1","code":{"coding":[{"system":"http://terminology.hl7.org/CodeSystem/measure-population","code":"numerator","display":"Numerator"}]},"count":0}]}]},{"id":"Stratification_1_2","code":[{"text":"Strata-2"}],"stratum":[{"value":{"text":"Strata-2"},"population":[{"id":"InitialPopulation_1","code":{"coding":[{"system":"http://terminology.hl7.org/CodeSystem/measure-population","code":"initial-population","display":"Initial Population"}]},"count":1},{"id":"Denominator_1","code":{"coding":[{"system":"http://terminology.hl7.org/CodeSystem/measure-population","code":"denominator","display":"Denominator"}]},"count":1},{"id":"Numerator_1","code":{"coding":[{"system":"http://terminology.hl7.org/CodeSystem/measure-population","code":"numerator","display":"Numerator"}]},"count":1}]}]},{"id":"Stratification_1_3","code":[{"text":"Strata-3"}],"stratum":[{"value":{"text":"Strata-3"},"population":[{"id":"InitialPopulation_1","code":{"coding":[{"system":"http://terminology.hl7.org/CodeSystem/measure-population","code":"initial-population","display":"Initial Population"}]},"count":0},{"id":"Denominator_1","code":{"coding":[{"system":"http://terminology.hl7.org/CodeSystem/measure-population","code":"denominator","display":"Denominator"}]},"count":0},{"id":"Numerator_1","code":{"coding":[{"system":"http://terminology.hl7.org/CodeSystem/measure-population","code":"numerator","display":"Numerator"}]},"count":0}]}]},{"id":"Stratification_1_4","code":[{"text":"Strata-4"}],"stratum":[{"value":{"text":"Strata-4"},"population":[{"id":"InitialPopulation_1","code":{"coding":[{"system":"http://terminology.hl7.org/CodeSystem/measure-population","code":"initial-population","display":"Initial Population"}]},"count":0},{"id":"Denominator_1","code":{"coding":[{"system":"http://terminology.hl7.org/CodeSystem/measure-population","code":"denominator","display":"Denominator"}]},"count":0},{"id":"Numerator_1","code":{"coding":[{"system":"http://terminology.hl7.org/CodeSystem/measure-population","code":"numerator","display":"Numerator"}]},"count":0}]}]}]}],"evaluatedResource":[{"reference":"Patient/11703274-1218-440d-bb98-08502a794179"},{"reference":"Encounter/200ea20e-33d3-47d9-9446-9e44adf0e083"},{"reference":"Location/ba0171cd-4028-4e05-8c7d-17b74ebc91df"},{"reference":"ServiceRequest/198ce377-d0d0-468b-8366-7057dcabfa30"},{"reference":"Condition/c33e650d-c412-4df1-bae7-d2652173fd8e"},{"reference":"Claim/ClaimBehavior-NotSubsAbuse"},{"reference":"Coverage/2738e44c-0806-45ad-b61a-dbbaacdf0380"},{"reference":"Organization/314ce27b-129f-4d84-a517-fec89b8788e7"},{"reference":"Practitioner/03bc20bb-9685-42c6-913a-0671cb9e1809"}]},"request":{"method":"PUT","url":"MeasureReport/4047f446-0792-4057-a614-9e75ac0bf617"}}]}