{"resourceType":"Bundle","id":"tests-cc00e728-de5f-4df8-abcb-1e610496be66-bundle","type":"transaction","entry":[{"fullUrl":"Coverage/b07c4a70-f0b4-42ef-9035-1f0a1cc10bc3","resource":{"resourceType":"Coverage","id":"b07c4a70-f0b4-42ef-9035-1f0a1cc10bc3","meta":{"profile":["http://hl7.org/fhir/us/qicore/StructureDefinition/qicore-coverage"]},"identifier":[{"type":{"coding":[{"system":"http://terminology.hl7.org/CodeSystem/v2-0203","code":"MB"}]}}],"status":"active","beneficiary":{"reference":"Patient/cc00e728-de5f-4df8-abcb-1e610496be66"},"relationship":{"coding":[{"system":"http://terminology.hl7.org/CodeSystem/subscriber-relationship","code":"self"}]},"payor":[{"reference":"Organization/c66cebed-8b50-4219-950f-16bf07619e3e"}]},"request":{"method":"PUT","url":"Coverage/b07c4a70-f0b4-42ef-9035-1f0a1cc10bc3"}},{"fullUrl":"Patient/cc00e728-de5f-4df8-abcb-1e610496be66","resource":{"resourceType":"Patient","id":"cc00e728-de5f-4df8-abcb-1e610496be66","meta":{"profile":["http://hl7.org/fhir/us/qicore/StructureDefinition/qicore-patient"]},"extension":[{"url":"http://hl7.org/fhir/us/core/StructureDefinition/us-core-race","extension":[{"url":"ombCategory","valueCoding":{"system":"urn:oid:2.16.840.1.113883.6.238","code":"2076-8","display":"Native Hawaiian or Other Pacific Islander","userSelected":true}},{"url":"text","valueString":"Native Hawaiian or Other Pacific Islander"}]},{"url":"http://hl7.org/fhir/us/core/StructureDefinition/us-core-ethnicity","extension":[{"url":"ombCategory","valueCoding":{"system":"urn:oid:2.16.840.1.113883.6.238","code":"2186-5","display":"Not Hispanic or Latino","userSelected":true}},{"url":"text","valueString":"Not Hispanic or Latino"}]},{"url":"http://hl7.org/fhir/us/core/StructureDefinition/us-core-sex","valueCode":"248152002"}],"identifier":[{"type":{"coding":[{"system":"http://terminology.hl7.org/CodeSystem/v2-0203","code":"MR"}]},"system":"https://bonnie-fhir.healthit.gov/","value":"661579e3db207d74c03b8a54"}],"name":[{"family":"NUMERStrat1Fail","given":["TimeToTx60Min"]}],"gender":"female","birthDate":"2010-12-31"},"request":{"method":"PUT","url":"Patient/cc00e728-de5f-4df8-abcb-1e610496be66"}},{"fullUrl":"Location/638d3c82-d188-4b8c-b759-b9f189867947","resource":{"resourceType":"Location","id":"638d3c82-d188-4b8c-b759-b9f189867947","meta":{"profile":["http://hl7.org/fhir/us/qicore/StructureDefinition/qicore-location"]},"identifier":[{"use":"usual","system":"http://exampleoflocation.com","value":"B1-S.F2"}],"name":"Emergency Department","type":[{"coding":[{"system":"https://www.cdc.gov/nhsn/cdaportal/terminology/codesystem/hsloc.html","version":"2022","code":"1108-0","display":"Emergency Department","userSelected":true}]}]},"request":{"method":"PUT","url":"Location/638d3c82-d188-4b8c-b759-b9f189867947"}},{"fullUrl":"Location/6306799b-01d6-41b2-b3b3-5980221ce65d","resource":{"resourceType":"Location","id":"6306799b-01d6-41b2-b3b3-5980221ce65d","meta":{"profile":["http://hl7.org/fhir/us/qicore/StructureDefinition/qicore-location"]},"identifier":[{"use":"usual","system":"http://exampleoflocation.com","value":"B1-S.F2"}],"name":"Emergency Department","type":[{"coding":[{"system":"https://www.cdc.gov/nhsn/cdaportal/terminology/codesystem/hsloc.html","version":"2022","code":"1108-0","display":"Emergency Department","userSelected":true}]}]},"request":{"method":"PUT","url":"Location/6306799b-01d6-41b2-b3b3-5980221ce65d"}},{"fullUrl":"Condition/7172ce23-46cc-41ea-b942-47ad680dff37","resource":{"resourceType":"Condition","id":"7172ce23-46cc-41ea-b942-47ad680dff37","meta":{"profile":["http://hl7.org/fhir/us/qicore/StructureDefinition/qicore-condition-encounter-diagnosis"]},"category":[{"coding":[{"system":"http://terminology.hl7.org/CodeSystem/condition-category","code":"encounter-diagnosis","display":"Encounter Diagnosis"}]}],"code":{"coding":[{"system":"http://snomed.info/sct","version":"2023-09","code":"10660471000119109","display":"Ulcer of left foot due to type 2 diabetes mellitus (disorder)","userSelected":true}]},"subject":{"reference":"Patient/cc00e728-de5f-4df8-abcb-1e610496be66"},"recordedDate":"2027-05-01T08:00:00.000+00:00"},"request":{"method":"PUT","url":"Condition/7172ce23-46cc-41ea-b942-47ad680dff37"}},{"fullUrl":"Location/c0234032-ccb8-42b9-830a-2a0ae0becd10","resource":{"resourceType":"Location","id":"c0234032-ccb8-42b9-830a-2a0ae0becd10","meta":{"profile":["http://hl7.org/fhir/us/qicore/StructureDefinition/qicore-location"]},"identifier":[{"use":"usual","system":"http://exampleoflocation.com","value":"B1-S.F1"}],"name":"Medical Surgical East, first floor","type":[{"coding":[{"system":"https://www.cdc.gov/nhsn/cdaportal/terminology/codesystem/hsloc.html","version":"2022","code":"1108-0","display":"Emergency Department","userSelected":true}]}]},"request":{"method":"PUT","url":"Location/c0234032-ccb8-42b9-830a-2a0ae0becd10"}},{"fullUrl":"MeasureReport/0cbc30f3-ddb0-4719-a395-f048e8f66f94","resource":{"resourceType":"MeasureReport","id":"0cbc30f3-ddb0-4719-a395-f048e8f66f94","meta":{"profile":["http://hl7.org/fhir/us/cqfmeasures/StructureDefinition/test-case-cqfm"]},"contained":[{"resourceType":"Parameters","id":"e5973745-7362-4c6a-a08a-0aaf79442d00-parameters","parameter":[{"name":"subject","valueString":"cc00e728-de5f-4df8-abcb-1e610496be66"}]}],"extension":[{"url":"http://hl7.org/fhir/StructureDefinition/cqf-inputParameters","valueReference":{"reference":"#e5973745-7362-4c6a-a08a-0aaf79442d00-parameters"}},{"url":"http://hl7.org/fhir/us/cqfmeasures/StructureDefinition/cqfm-testCaseDescription","valueMarkdown":"Child ED enc first day of MP, time to tx 60minutes. "}],"modifierExtension":[{"url":"http://hl7.org/fhir/us/cqfmeasures/StructureDefinition/cqfm-isTestCase","valueBoolean":true}],"status":"complete","type":"individual","measure":"https://madie.cms.gov/Measure/CMS1264FHIRECATREHQR","period":{"start":"2027-01-01","end":"2027-12-31"},"group":[{"id":"Group_1","population":[{"id":"InitialPopulation_1","code":{"coding":[{"system":"http://terminology.hl7.org/CodeSystem/measure-population","code":"initial-population","display":"Initial Population"}]},"count":1},{"id":"Denominator_1","code":{"coding":[{"system":"http://terminology.hl7.org/CodeSystem/measure-population","code":"denominator","display":"Denominator"}]},"count":1},{"id":"Numerator_1","code":{"coding":[{"system":"http://terminology.hl7.org/CodeSystem/measure-population","code":"numerator","display":"Numerator"}]},"count":0}],"measureScore":{"value":0.0},"stratifier":[{"id":"Stratification_1_1","code":[{"text":"Strata-1"}],"stratum":[{"value":{"text":"Strata-1"},"population":[{"id":"InitialPopulation_1","code":{"coding":[{"system":"http://terminology.hl7.org/CodeSystem/measure-population","code":"initial-population","display":"Initial Population"}]},"count":1},{"id":"Denominator_1","code":{"coding":[{"system":"http://terminology.hl7.org/CodeSystem/measure-population","code":"denominator","display":"Denominator"}]},"count":1},{"id":"Numerator_1","code":{"coding":[{"system":"http://terminology.hl7.org/CodeSystem/measure-population","code":"numerator","display":"Numerator"}]},"count":0}]}]},{"id":"Stratification_1_2","code":[{"text":"Strata-2"}],"stratum":[{"value":{"text":"Strata-2"},"population":[{"id":"InitialPopulation_1","code":{"coding":[{"system":"http://terminology.hl7.org/CodeSystem/measure-population","code":"initial-population","display":"Initial Population"}]},"count":0},{"id":"Denominator_1","code":{"coding":[{"system":"http://terminology.hl7.org/CodeSystem/measure-population","code":"denominator","display":"Denominator"}]},"count":0},{"id":"Numerator_1","code":{"coding":[{"system":"http://terminology.hl7.org/CodeSystem/measure-population","code":"numerator","display":"Numerator"}]},"count":0}]}]},{"id":"Stratification_1_3","code":[{"text":"Strata-3"}],"stratum":[{"value":{"text":"Strata-3"},"population":[{"id":"InitialPopulation_1","code":{"coding":[{"system":"http://terminology.hl7.org/CodeSystem/measure-population","code":"initial-population","display":"Initial Population"}]},"count":0},{"id":"Denominator_1","code":{"coding":[{"system":"http://terminology.hl7.org/CodeSystem/measure-population","code":"denominator","display":"Denominator"}]},"count":0},{"id":"Numerator_1","code":{"coding":[{"system":"http://terminology.hl7.org/CodeSystem/measure-population","code":"numerator","display":"Numerator"}]},"count":0}]}]},{"id":"Stratification_1_4","code":[{"text":"Strata-4"}],"stratum":[{"value":{"text":"Strata-4"},"population":[{"id":"InitialPopulation_1","code":{"coding":[{"system":"http://terminology.hl7.org/CodeSystem/measure-population","code":"initial-population","display":"Initial Population"}]},"count":0},{"id":"Denominator_1","code":{"coding":[{"system":"http://terminology.hl7.org/CodeSystem/measure-population","code":"denominator","display":"Denominator"}]},"count":0},{"id":"Numerator_1","code":{"coding":[{"system":"http://terminology.hl7.org/CodeSystem/measure-population","code":"numerator","display":"Numerator"}]},"count":0}]}]}]}],"evaluatedResource":[{"reference":"Patient/cc00e728-de5f-4df8-abcb-1e610496be66"},{"reference":"Encounter/b0e5253a-5af4-4a54-b141-85eafdb2a3f5"},{"reference":"Location/c0234032-ccb8-42b9-830a-2a0ae0becd10"},{"reference":"Location/3dc8b848-c7cb-4276-b31a-104b5a1bfd26"},{"reference":"Condition/7172ce23-46cc-41ea-b942-47ad680dff37"},{"reference":"Location/638d3c82-d188-4b8c-b759-b9f189867947"},{"reference":"Location/6306799b-01d6-41b2-b3b3-5980221ce65d"},{"reference":"Claim/ClaimBehavior-NotSubsAbuse"},{"reference":"Coverage/b07c4a70-f0b4-42ef-9035-1f0a1cc10bc3"},{"reference":"Organization/c66cebed-8b50-4219-950f-16bf07619e3e"},{"reference":"Practitioner/98fd76d4-a46f-4da2-8cb6-8f05af901174"}]},"request":{"method":"PUT","url":"MeasureReport/0cbc30f3-ddb0-4719-a395-f048e8f66f94"}},{"fullUrl":"Location/3dc8b848-c7cb-4276-b31a-104b5a1bfd26","resource":{"resourceType":"Location","id":"3dc8b848-c7cb-4276-b31a-104b5a1bfd26","meta":{"profile":["http://hl7.org/fhir/us/qicore/StructureDefinition/qicore-location"]},"identifier":[{"use":"usual","system":"http://exampleoflocation.com","value":"B1-S.F2"}],"name":"Emergency Department","type":[{"coding":[{"system":"https://www.cdc.gov/nhsn/cdaportal/terminology/codesystem/hsloc.html","version":"2022","code":"1209-6","display":"Treatment Room","userSelected":true}]}]},"request":{"method":"PUT","url":"Location/3dc8b848-c7cb-4276-b31a-104b5a1bfd26"}},{"fullUrl":"Encounter/b0e5253a-5af4-4a54-b141-85eafdb2a3f5","resource":{"resourceType":"Encounter","id":"b0e5253a-5af4-4a54-b141-85eafdb2a3f5","meta":{"profile":["http://hl7.org/fhir/us/qicore/StructureDefinition/qicore-encounter"]},"status":"finished","class":{"system":"http://terminology.hl7.org/CodeSystem/v3-ActCode","code":"EMER","display":"emergency"},"type":[{"coding":[{"system":"http://snomed.info/sct","version":"2023-09","code":"4525004","display":"Emergency department patient visit (procedure)","userSelected":true}]}],"subject":{"reference":"Patient/cc00e728-de5f-4df8-abcb-1e610496be66"},"period":{"start":"2027-05-01T08:00:00.000+00:00","end":"2027-05-01T12:15:00.000+00:00"},"location":[{"location":{"reference":"Location/c0234032-ccb8-42b9-830a-2a0ae0becd10"},"period":{"start":"2027-05-01T07:45:00.000+00:00","end":"2027-05-01T12:15:00.000+00:00"}},{"location":{"reference":"Location/3dc8b848-c7cb-4276-b31a-104b5a1bfd26"},"period":{"start":"2027-05-01T08:45:00.000+00:00","end":"2027-05-01T12:15:00.000+00:00"}}]},"request":{"method":"PUT","url":"Encounter/b0e5253a-5af4-4a54-b141-85eafdb2a3f5"}},{"fullUrl":"Claim/ClaimBehavior-NotSubsAbuse","resource":{"resourceType":"Claim","id":"ClaimBehavior-NotSubsAbuse","meta":{"profile":["http://hl7.org/fhir/us/qicore/StructureDefinition/qicore-claim"]},"status":"active","type":{"coding":[{"system":"http://terminology.hl7.org/CodeSystem/claim-type","code":"institutional"}]},"use":"claim","patient":{"reference":"Patient/cc00e728-de5f-4df8-abcb-1e610496be66"},"created":"2027-05-01","provider":{"reference":"Practitioner/practitioner-123456"},"priority":{"coding":[{"system":"http://terminology.hl7.org/CodeSystem/processpriority","code":"normal"}]},"diagnosis":[{"sequence":1,"diagnosisReference":{"reference":"Condition/7172ce23-46cc-41ea-b942-47ad680dff37"},"type":[{"coding":[{"system":"http://terminology.hl7.org/CodeSystem/ex-diagnosistype","code":"principal"}]}]}],"insurance":[{"sequence":1,"focal":true,"coverage":{"reference":"Coverage/1"}}],"item":[{"sequence":1,"diagnosisSequence":[1],"productOrService":{"coding":[{"system":"http://terminology.hl7.org/CodeSystem/ex-USCLS","code":"99555"}]},"encounter":[{"reference":"Encounter/b0e5253a-5af4-4a54-b141-85eafdb2a3f5"}]}]},"request":{"method":"PUT","url":"Claim/ClaimBehavior-NotSubsAbuse"}},{"fullUrl":"Practitioner/98fd76d4-a46f-4da2-8cb6-8f05af901174","resource":{"resourceType":"Practitioner","id":"98fd76d4-a46f-4da2-8cb6-8f05af901174","meta":{"profile":["http://hl7.org/fhir/us/qicore/StructureDefinition/qicore-practitioner"]},"identifier":[{"system":"http://hl7.org/fhir/sid/us-npi","value":"9999999896"}],"name":[{"family":"Evil","prefix":["Dr"]}]},"request":{"method":"PUT","url":"Practitioner/98fd76d4-a46f-4da2-8cb6-8f05af901174"}},{"fullUrl":"Bundle/661579e3db207d74c03b8a54","resource":{"resourceType":"Bundle","id":"661579e3db207d74c03b8a54","type":"transaction","entry":[{"fullUrl":"https://madie.cms.gov/Patient/cc00e728-de5f-4df8-abcb-1e610496be66","resource":{"resourceType":"Patient","id":"cc00e728-de5f-4df8-abcb-1e610496be66","meta":{"profile":["http://hl7.org/fhir/us/qicore/StructureDefinition/qicore-patient"]},"extension":[{"url":"http://hl7.org/fhir/us/core/StructureDefinition/us-core-race","extension":[{"url":"ombCategory","valueCoding":{"system":"urn:oid:2.16.840.1.113883.6.238","code":"2076-8","display":"Native Hawaiian or Other Pacific Islander","userSelected":true}},{"url":"text","valueString":"Native Hawaiian or Other Pacific Islander"}]},{"url":"http://hl7.org/fhir/us/core/StructureDefinition/us-core-ethnicity","extension":[{"url":"ombCategory","valueCoding":{"system":"urn:oid:2.16.840.1.113883.6.238","code":"2186-5","display":"Not Hispanic or Latino","userSelected":true}},{"url":"text","valueString":"Not Hispanic or Latino"}]},{"url":"http://hl7.org/fhir/us/core/StructureDefinition/us-core-sex","valueCode":"248152002"}],"identifier":[{"type":{"coding":[{"system":"http://terminology.hl7.org/CodeSystem/v2-0203","code":"MR"}]},"system":"https://bonnie-fhir.healthit.gov/","value":"661579e3db207d74c03b8a54"}],"name":[{"family":"NUMERStrat1Fail","given":["TimeToTx60Min"]}],"gender":"female","birthDate":"2010-12-31"},"request":{"method":"PUT","url":"Patient/cc00e728-de5f-4df8-abcb-1e610496be66"}},{"fullUrl":"https://madie.cms.gov/Encounter/b0e5253a-5af4-4a54-b141-85eafdb2a3f5","resource":{"resourceType":"Encounter","id":"b0e5253a-5af4-4a54-b141-85eafdb2a3f5","meta":{"profile":["http://hl7.org/fhir/us/qicore/StructureDefinition/qicore-encounter"]},"status":"finished","class":{"system":"http://terminology.hl7.org/CodeSystem/v3-ActCode","code":"EMER","display":"emergency"},"type":[{"coding":[{"system":"http://snomed.info/sct","version":"2023-09","code":"4525004","display":"Emergency department patient visit (procedure)","userSelected":true}]}],"subject":{"reference":"Patient/cc00e728-de5f-4df8-abcb-1e610496be66"},"period":{"start":"2027-05-01T08:00:00.000+00:00","end":"2027-05-01T12:15:00.000+00:00"},"location":[{"location":{"reference":"Location/c0234032-ccb8-42b9-830a-2a0ae0becd10"},"period":{"start":"2027-05-01T07:45:00.000+00:00","end":"2027-05-01T12:15:00.000+00:00"}},{"location":{"reference":"Location/3dc8b848-c7cb-4276-b31a-104b5a1bfd26"},"period":{"start":"2027-05-01T08:45:00.000+00:00","end":"2027-05-01T12:15:00.000+00:00"}}]},"request":{"method":"PUT","url":"Encounter/b0e5253a-5af4-4a54-b141-85eafdb2a3f5"}},{"fullUrl":"https://madie.cms.gov/Location/c0234032-ccb8-42b9-830a-2a0ae0becd10","resource":{"resourceType":"Location","id":"c0234032-ccb8-42b9-830a-2a0ae0becd10","meta":{"profile":["http://hl7.org/fhir/us/qicore/StructureDefinition/qicore-location"]},"identifier":[{"use":"usual","system":"http://exampleoflocation.com","value":"B1-S.F1"}],"name":"Medical Surgical East, first floor","type":[{"coding":[{"system":"https://www.cdc.gov/nhsn/cdaportal/terminology/codesystem/hsloc.html","version":"2022","code":"1108-0","display":"Emergency Department","userSelected":true}]}]},"request":{"method":"PUT","url":"Location/c0234032-ccb8-42b9-830a-2a0ae0becd10"}},{"fullUrl":"https://madie.cms.gov/Location/3dc8b848-c7cb-4276-b31a-104b5a1bfd26","resource":{"resourceType":"Location","id":"3dc8b848-c7cb-4276-b31a-104b5a1bfd26","meta":{"profile":["http://hl7.org/fhir/us/qicore/StructureDefinition/qicore-location"]},"identifier":[{"use":"usual","system":"http://exampleoflocation.com","value":"B1-S.F2"}],"name":"Emergency Department","type":[{"coding":[{"system":"https://www.cdc.gov/nhsn/cdaportal/terminology/codesystem/hsloc.html","version":"2022","code":"1209-6","display":"Treatment Room","userSelected":true}]}]},"request":{"method":"PUT","url":"Location/3dc8b848-c7cb-4276-b31a-104b5a1bfd26"}},{"fullUrl":"https://madie.cms.gov/Condition/7172ce23-46cc-41ea-b942-47ad680dff37","resource":{"resourceType":"Condition","id":"7172ce23-46cc-41ea-b942-47ad680dff37","meta":{"profile":["http://hl7.org/fhir/us/qicore/StructureDefinition/qicore-condition-encounter-diagnosis"]},"category":[{"coding":[{"system":"http://terminology.hl7.org/CodeSystem/condition-category","code":"encounter-diagnosis","display":"Encounter Diagnosis"}]}],"code":{"coding":[{"system":"http://snomed.info/sct","version":"2023-09","code":"10660471000119109","display":"Ulcer of left foot due to type 2 diabetes mellitus (disorder)","userSelected":true}]},"subject":{"reference":"Patient/cc00e728-de5f-4df8-abcb-1e610496be66"},"recordedDate":"2027-05-01T08:00:00.000+00:00"},"request":{"method":"PUT","url":"Condition/7172ce23-46cc-41ea-b942-47ad680dff37"}},{"fullUrl":"https://madie.cms.gov/Location/638d3c82-d188-4b8c-b759-b9f189867947","resource":{"resourceType":"Location","id":"638d3c82-d188-4b8c-b759-b9f189867947","meta":{"profile":["http://hl7.org/fhir/us/qicore/StructureDefinition/qicore-location"]},"identifier":[{"use":"usual","system":"http://exampleoflocation.com","value":"B1-S.F2"}],"name":"Emergency Department","type":[{"coding":[{"system":"https://www.cdc.gov/nhsn/cdaportal/terminology/codesystem/hsloc.html","version":"2022","code":"1108-0","display":"Emergency Department","userSelected":true}]}]},"request":{"method":"PUT","url":"Location/638d3c82-d188-4b8c-b759-b9f189867947"}},{"fullUrl":"https://madie.cms.gov/Location/6306799b-01d6-41b2-b3b3-5980221ce65d","resource":{"resourceType":"Location","id":"6306799b-01d6-41b2-b3b3-5980221ce65d","meta":{"profile":["http://hl7.org/fhir/us/qicore/StructureDefinition/qicore-location"]},"identifier":[{"use":"usual","system":"http://exampleoflocation.com","value":"B1-S.F2"}],"name":"Emergency Department","type":[{"coding":[{"system":"https://www.cdc.gov/nhsn/cdaportal/terminology/codesystem/hsloc.html","version":"2022","code":"1108-0","display":"Emergency Department","userSelected":true}]}]},"request":{"method":"PUT","url":"Location/6306799b-01d6-41b2-b3b3-5980221ce65d"}},{"fullUrl":"https://madie.cms.gov/claim/ClaimBehavior-NotSubsAbuse","resource":{"resourceType":"Claim","id":"ClaimBehavior-NotSubsAbuse","meta":{"profile":["http://hl7.org/fhir/us/qicore/StructureDefinition/qicore-claim"]},"status":"active","type":{"coding":[{"system":"http://terminology.hl7.org/CodeSystem/claim-type","code":"institutional"}]},"use":"claim","patient":{"reference":"Patient/cc00e728-de5f-4df8-abcb-1e610496be66"},"created":"2027-05-01","provider":{"reference":"Practitioner/practitioner-123456"},"priority":{"coding":[{"system":"http://terminology.hl7.org/CodeSystem/processpriority","code":"normal"}]},"diagnosis":[{"sequence":1,"diagnosisReference":{"reference":"Condition/7172ce23-46cc-41ea-b942-47ad680dff37"},"type":[{"coding":[{"system":"http://terminology.hl7.org/CodeSystem/ex-diagnosistype","code":"principal"}]}]}],"insurance":[{"sequence":1,"focal":true,"coverage":{"reference":"Coverage/1"}}],"item":[{"sequence":1,"diagnosisSequence":[1],"productOrService":{"coding":[{"system":"http://terminology.hl7.org/CodeSystem/ex-USCLS","code":"99555"}]},"encounter":[{"reference":"Encounter/b0e5253a-5af4-4a54-b141-85eafdb2a3f5"}]}]},"request":{"method":"PUT","url":"Claim/ClaimBehavior-NotSubsAbuse"}},{"fullUrl":"https://madie.cms.gov/Coverage/b07c4a70-f0b4-42ef-9035-1f0a1cc10bc3","resource":{"resourceType":"Coverage","id":"b07c4a70-f0b4-42ef-9035-1f0a1cc10bc3","meta":{"profile":["http://hl7.org/fhir/us/qicore/StructureDefinition/qicore-coverage"]},"identifier":[{"type":{"coding":[{"system":"http://terminology.hl7.org/CodeSystem/v2-0203","code":"MB"}]}}],"status":"active","beneficiary":{"reference":"Patient/cc00e728-de5f-4df8-abcb-1e610496be66"},"relationship":{"coding":[{"system":"http://terminology.hl7.org/CodeSystem/subscriber-relationship","code":"self"}]},"payor":[{"reference":"Organization/c66cebed-8b50-4219-950f-16bf07619e3e"}]},"request":{"method":"PUT","url":"Coverage/b07c4a70-f0b4-42ef-9035-1f0a1cc10bc3"}},{"fullUrl":"https://madie.cms.gov/Organization/c66cebed-8b50-4219-950f-16bf07619e3e","resource":{"resourceType":"Organization","id":"c66cebed-8b50-4219-950f-16bf07619e3e","meta":{"profile":["http://hl7.org/fhir/us/qicore/StructureDefinition/qicore-organization"]},"identifier":[{"use":"temp","system":"urn:oid:2.16.840.1.113883.4.4","value":"21-3259825"}],"active":true,"type":[{"coding":[{"system":"http://terminology.hl7.org/CodeSystem/organization-type","code":"pay","display":"Payer"}]}],"name":"Blue Cross Blue Shield of Texas","telecom":[{"system":"phone","value":"(+1) 972-766-6900"}],"address":[{"use":"billing","type":"postal","line":["P.O. Box 660044"],"city":"Dallas","state":"TX","postalCode":"75266-0044","country":"USA"}]},"request":{"method":"PUT","url":"Organization/c66cebed-8b50-4219-950f-16bf07619e3e"}},{"fullUrl":"https://madie.cms.gov/Practitioner/98fd76d4-a46f-4da2-8cb6-8f05af901174","resource":{"resourceType":"Practitioner","id":"98fd76d4-a46f-4da2-8cb6-8f05af901174","meta":{"profile":["http://hl7.org/fhir/us/qicore/StructureDefinition/qicore-practitioner"]},"identifier":[{"system":"http://hl7.org/fhir/sid/us-npi","value":"9999999896"}],"name":[{"family":"Evil","prefix":["Dr"]}]},"request":{"method":"PUT","url":"Practitioner/98fd76d4-a46f-4da2-8cb6-8f05af901174"}},{"fullUrl":"https://madie.cms.gov/MeasureReport/0cbc30f3-ddb0-4719-a395-f048e8f66f94","resource":{"resourceType":"MeasureReport","id":"0cbc30f3-ddb0-4719-a395-f048e8f66f94","meta":{"profile":["http://hl7.org/fhir/us/cqfmeasures/StructureDefinition/test-case-cqfm"]},"contained":[{"resourceType":"Parameters","id":"e5973745-7362-4c6a-a08a-0aaf79442d00-parameters","parameter":[{"name":"subject","valueString":"cc00e728-de5f-4df8-abcb-1e610496be66"}]}],"extension":[{"url":"http://hl7.org/fhir/StructureDefinition/cqf-inputParameters","valueReference":{"reference":"#e5973745-7362-4c6a-a08a-0aaf79442d00-parameters"}},{"url":"http://hl7.org/fhir/us/cqfmeasures/StructureDefinition/cqfm-testCaseDescription","valueMarkdown":"Child ED enc first day of MP, time to tx 60minutes. "}],"modifierExtension":[{"url":"http://hl7.org/fhir/us/cqfmeasures/StructureDefinition/cqfm-isTestCase","valueBoolean":true}],"status":"complete","type":"individual","measure":"https://madie.cms.gov/Measure/CMS1264FHIRECATREHQR","period":{"start":"2027-01-01","end":"2027-12-31"},"group":[{"id":"Group_1","population":[{"id":"InitialPopulation_1","code":{"coding":[{"system":"http://terminology.hl7.org/CodeSystem/measure-population","code":"initial-population","display":"Initial Population"}]},"count":1},{"id":"Denominator_1","code":{"coding":[{"system":"http://terminology.hl7.org/CodeSystem/measure-population","code":"denominator","display":"Denominator"}]},"count":1},{"id":"Numerator_1","code":{"coding":[{"system":"http://terminology.hl7.org/CodeSystem/measure-population","code":"numerator","display":"Numerator"}]},"count":0}],"measureScore":{"value":0.0},"stratifier":[{"id":"Stratification_1_1","code":[{"text":"Strata-1"}],"stratum":[{"value":{"text":"Strata-1"},"population":[{"id":"InitialPopulation_1","code":{"coding":[{"system":"http://terminology.hl7.org/CodeSystem/measure-population","code":"initial-population","display":"Initial Population"}]},"count":1},{"id":"Denominator_1","code":{"coding":[{"system":"http://terminology.hl7.org/CodeSystem/measure-population","code":"denominator","display":"Denominator"}]},"count":1},{"id":"Numerator_1","code":{"coding":[{"system":"http://terminology.hl7.org/CodeSystem/measure-population","code":"numerator","display":"Numerator"}]},"count":0}]}]},{"id":"Stratification_1_2","code":[{"text":"Strata-2"}],"stratum":[{"value":{"text":"Strata-2"},"population":[{"id":"InitialPopulation_1","code":{"coding":[{"system":"http://terminology.hl7.org/CodeSystem/measure-population","code":"initial-population","display":"Initial Population"}]},"count":0},{"id":"Denominator_1","code":{"coding":[{"system":"http://terminology.hl7.org/CodeSystem/measure-population","code":"denominator","display":"Denominator"}]},"count":0},{"id":"Numerator_1","code":{"coding":[{"system":"http://terminology.hl7.org/CodeSystem/measure-population","code":"numerator","display":"Numerator"}]},"count":0}]}]},{"id":"Stratification_1_3","code":[{"text":"Strata-3"}],"stratum":[{"value":{"text":"Strata-3"},"population":[{"id":"InitialPopulation_1","code":{"coding":[{"system":"http://terminology.hl7.org/CodeSystem/measure-population","code":"initial-population","display":"Initial Population"}]},"count":0},{"id":"Denominator_1","code":{"coding":[{"system":"http://terminology.hl7.org/CodeSystem/measure-population","code":"denominator","display":"Denominator"}]},"count":0},{"id":"Numerator_1","code":{"coding":[{"system":"http://terminology.hl7.org/CodeSystem/measure-population","code":"numerator","display":"Numerator"}]},"count":0}]}]},{"id":"Stratification_1_4","code":[{"text":"Strata-4"}],"stratum":[{"value":{"text":"Strata-4"},"population":[{"id":"InitialPopulation_1","code":{"coding":[{"system":"http://terminology.hl7.org/CodeSystem/measure-population","code":"initial-population","display":"Initial Population"}]},"count":0},{"id":"Denominator_1","code":{"coding":[{"system":"http://terminology.hl7.org/CodeSystem/measure-population","code":"denominator","display":"Denominator"}]},"count":0},{"id":"Numerator_1","code":{"coding":[{"system":"http://terminology.hl7.org/CodeSystem/measure-population","code":"numerator","display":"Numerator"}]},"count":0}]}]}]}],"evaluatedResource":[{"reference":"Patient/cc00e728-de5f-4df8-abcb-1e610496be66"},{"reference":"Encounter/b0e5253a-5af4-4a54-b141-85eafdb2a3f5"},{"reference":"Location/c0234032-ccb8-42b9-830a-2a0ae0becd10"},{"reference":"Location/3dc8b848-c7cb-4276-b31a-104b5a1bfd26"},{"reference":"Condition/7172ce23-46cc-41ea-b942-47ad680dff37"},{"reference":"Location/638d3c82-d188-4b8c-b759-b9f189867947"},{"reference":"Location/6306799b-01d6-41b2-b3b3-5980221ce65d"},{"reference":"Claim/ClaimBehavior-NotSubsAbuse"},{"reference":"Coverage/b07c4a70-f0b4-42ef-9035-1f0a1cc10bc3"},{"reference":"Organization/c66cebed-8b50-4219-950f-16bf07619e3e"},{"reference":"Practitioner/98fd76d4-a46f-4da2-8cb6-8f05af901174"}]},"request":{"method":"PUT","url":"MeasureReport/0cbc30f3-ddb0-4719-a395-f048e8f66f94"}}]},"request":{"method":"PUT","url":"Bundle/661579e3db207d74c03b8a54"}},{"fullUrl":"Organization/c66cebed-8b50-4219-950f-16bf07619e3e","resource":{"resourceType":"Organization","id":"c66cebed-8b50-4219-950f-16bf07619e3e","meta":{"profile":["http://hl7.org/fhir/us/qicore/StructureDefinition/qicore-organization"]},"identifier":[{"use":"temp","system":"urn:oid:2.16.840.1.113883.4.4","value":"21-3259825"}],"active":true,"type":[{"coding":[{"system":"http://terminology.hl7.org/CodeSystem/organization-type","code":"pay","display":"Payer"}]}],"name":"Blue Cross Blue Shield of Texas","telecom":[{"system":"phone","value":"(+1) 972-766-6900"}],"address":[{"use":"billing","type":"postal","line":["P.O. Box 660044"],"city":"Dallas","state":"TX","postalCode":"75266-0044","country":"USA"}]},"request":{"method":"PUT","url":"Organization/c66cebed-8b50-4219-950f-16bf07619e3e"}}]}