{"resourceType":"Bundle","id":"tests-a3dd602c-cd84-4e7a-aa37-eae4b15fdf4e-bundle","type":"transaction","entry":[{"fullUrl":"Location/db01cffb-aa70-45f7-9289-4deef15c3b20","resource":{"resourceType":"Location","id":"db01cffb-aa70-45f7-9289-4deef15c3b20","meta":{"profile":["http://hl7.org/fhir/us/qicore/StructureDefinition/qicore-location"]},"identifier":[{"use":"usual","system":"http://exampleoflocation.com","value":"B1-S.F2"}],"name":"Medical Surgical East, first floor","type":[{"coding":[{"system":"https://www.cdc.gov/nhsn/cdaportal/terminology/codesystem/hsloc.html","version":"2022","code":"1209-6","display":"Treatment Room","userSelected":true}]}]},"request":{"method":"PUT","url":"Location/db01cffb-aa70-45f7-9289-4deef15c3b20"}},{"fullUrl":"Practitioner/659f6874-83e2-402c-b682-738ccb5cfa3c","resource":{"resourceType":"Practitioner","id":"659f6874-83e2-402c-b682-738ccb5cfa3c","meta":{"profile":["http://hl7.org/fhir/us/qicore/StructureDefinition/qicore-practitioner"]},"identifier":[{"system":"http://hl7.org/fhir/sid/us-npi","value":"9999999896"}],"name":[{"family":"Evil","prefix":["Dr"]}]},"request":{"method":"PUT","url":"Practitioner/659f6874-83e2-402c-b682-738ccb5cfa3c"}},{"fullUrl":"Bundle/661579e3db207d74c03b8a50","resource":{"resourceType":"Bundle","id":"661579e3db207d74c03b8a50","type":"transaction","entry":[{"fullUrl":"https://madie.cms.gov/Patient/a3dd602c-cd84-4e7a-aa37-eae4b15fdf4e","resource":{"resourceType":"Patient","id":"a3dd602c-cd84-4e7a-aa37-eae4b15fdf4e","meta":{"profile":["http://hl7.org/fhir/us/qicore/StructureDefinition/qicore-patient"]},"extension":[{"url":"http://hl7.org/fhir/us/core/StructureDefinition/us-core-race","extension":[{"url":"ombCategory","valueCoding":{"system":"urn:oid:2.16.840.1.113883.6.238","code":"2076-8","display":"Native Hawaiian or Other Pacific Islander","userSelected":true}},{"url":"text","valueString":"Native Hawaiian or Other Pacific Islander"}]},{"url":"http://hl7.org/fhir/us/core/StructureDefinition/us-core-ethnicity","extension":[{"url":"ombCategory","valueCoding":{"system":"urn:oid:2.16.840.1.113883.6.238","code":"2186-5","display":"Not Hispanic or Latino","userSelected":true}},{"url":"text","valueString":"Not Hispanic or Latino"}]},{"url":"http://hl7.org/fhir/us/core/StructureDefinition/us-core-sex","valueCode":"248152002"}],"identifier":[{"type":{"coding":[{"system":"http://terminology.hl7.org/CodeSystem/v2-0203","code":"MR"}]},"system":"https://bonnie-fhir.healthit.gov/","value":"661579e3db207d74c03b8a50"}],"name":[{"family":"NUMERStrat4Pass","given":["EMDuringTriage"]}],"gender":"female","birthDate":"2008-12-31"},"request":{"method":"PUT","url":"Patient/a3dd602c-cd84-4e7a-aa37-eae4b15fdf4e"}},{"fullUrl":"https://madie.cms.gov/Encounter/01460acb-363e-49b8-aaae-b991d8268edc","resource":{"resourceType":"Encounter","id":"01460acb-363e-49b8-aaae-b991d8268edc","meta":{"profile":["http://hl7.org/fhir/us/qicore/StructureDefinition/qicore-encounter"]},"status":"finished","class":{"system":"http://terminology.hl7.org/CodeSystem/v3-ActCode","code":"EMER","display":"emergency"},"type":[{"coding":[{"system":"http://snomed.info/sct","version":"2023-09","code":"225390008","display":"Triage (procedure)","userSelected":true}]}],"subject":{"reference":"Patient/a3dd602c-cd84-4e7a-aa37-eae4b15fdf4e"},"period":{"start":"2027-05-01T08:00:00.000+00:00","end":"2027-05-01T13:15:00.000+00:00"}},"request":{"method":"PUT","url":"Encounter/01460acb-363e-49b8-aaae-b991d8268edc"}},{"fullUrl":"https://madie.cms.gov/Encounter/85ce274e-d159-43ea-8715-5b3ba9a5c8df","resource":{"resourceType":"Encounter","id":"85ce274e-d159-43ea-8715-5b3ba9a5c8df","meta":{"profile":["http://hl7.org/fhir/us/qicore/StructureDefinition/qicore-encounter"]},"status":"finished","class":{"system":"http://terminology.hl7.org/CodeSystem/v3-ActCode","code":"EMER","display":"emergency"},"type":[{"coding":[{"system":"http://snomed.info/sct","version":"2023-09","code":"4525004","display":"Emergency department patient visit (procedure)","userSelected":true}]}],"subject":{"reference":"Patient/a3dd602c-cd84-4e7a-aa37-eae4b15fdf4e"},"period":{"start":"2027-05-01T08:00:00.000+00:00","end":"2027-05-01T12:15:00.000+00:00"},"diagnosis":[{"condition":{"reference":"Condition/bea6b2a1-c14c-44e2-8646-5433c5757eb5"},"use":{"coding":[{"system":"http://terminology.hl7.org/CodeSystem/diagnosis-role","code":"billing"}]},"rank":1}],"location":[{"location":{"reference":"Location/5d6f9388-5efb-4c9c-a73c-2d5f9b114492"},"period":{"start":"2027-05-01T07:45:00.000+00:00","end":"2027-05-01T16:31:00.000+00:00"}},{"location":{"reference":"Location/db01cffb-aa70-45f7-9289-4deef15c3b20"},"period":{"start":"2027-05-01T09:31:00.000+00:00","end":"2027-05-01T12:15:00.000+00:00"}},{"location":{"reference":"Location/616ecc40-2a8e-4f99-a8c7-9d75deb16a9e"},"period":{"start":"2027-05-01T08:40:00.000+00:00","end":"2027-05-01T12:15:00.000+00:00"}},{"location":{"reference":"Location/ee7f89c4-eca6-470a-8c52-55e12b9873f4"},"period":{"start":"2027-05-01T08:30:00.000+00:00","end":"2027-05-01T15:46:00.000+00:00"}}]},"request":{"method":"PUT","url":"Encounter/85ce274e-d159-43ea-8715-5b3ba9a5c8df"}},{"fullUrl":"https://madie.cms.gov/Location/5d6f9388-5efb-4c9c-a73c-2d5f9b114492","resource":{"resourceType":"Location","id":"5d6f9388-5efb-4c9c-a73c-2d5f9b114492","meta":{"profile":["http://hl7.org/fhir/us/qicore/StructureDefinition/qicore-location"]},"identifier":[{"use":"usual","system":"http://exampleoflocation.com","value":"B1-S.F1"}],"name":"Medical Surgical East, first floor","type":[{"coding":[{"system":"https://www.cdc.gov/nhsn/cdaportal/terminology/codesystem/hsloc.html","version":"2022","code":"1108-0","display":"Emergency Department","userSelected":true}]}]},"request":{"method":"PUT","url":"Location/5d6f9388-5efb-4c9c-a73c-2d5f9b114492"}},{"fullUrl":"https://madie.cms.gov/Location/db01cffb-aa70-45f7-9289-4deef15c3b20","resource":{"resourceType":"Location","id":"db01cffb-aa70-45f7-9289-4deef15c3b20","meta":{"profile":["http://hl7.org/fhir/us/qicore/StructureDefinition/qicore-location"]},"identifier":[{"use":"usual","system":"http://exampleoflocation.com","value":"B1-S.F2"}],"name":"Medical Surgical East, first floor","type":[{"coding":[{"system":"https://www.cdc.gov/nhsn/cdaportal/terminology/codesystem/hsloc.html","version":"2022","code":"1209-6","display":"Treatment Room","userSelected":true}]}]},"request":{"method":"PUT","url":"Location/db01cffb-aa70-45f7-9289-4deef15c3b20"}},{"fullUrl":"https://madie.cms.gov/Condition/bea6b2a1-c14c-44e2-8646-5433c5757eb5","resource":{"resourceType":"Condition","id":"bea6b2a1-c14c-44e2-8646-5433c5757eb5","meta":{"profile":["http://hl7.org/fhir/us/qicore/StructureDefinition/qicore-condition-encounter-diagnosis"]},"category":[{"coding":[{"system":"http://terminology.hl7.org/CodeSystem/condition-category","code":"encounter-diagnosis","display":"Encounter Diagnosis"}]}],"code":{"coding":[{"system":"http://snomed.info/sct","version":"2023-09","code":"10349009","display":"Multi-infarct dementia with delirium (disorder)","userSelected":true}]},"subject":{"reference":"Patient/a3dd602c-cd84-4e7a-aa37-eae4b15fdf4e"},"recordedDate":"2027-04-09T08:00:00.000+00:00"},"request":{"method":"PUT","url":"Condition/bea6b2a1-c14c-44e2-8646-5433c5757eb5"}},{"fullUrl":"https://madie.cms.gov/Location/ee7f89c4-eca6-470a-8c52-55e12b9873f4","resource":{"resourceType":"Location","id":"ee7f89c4-eca6-470a-8c52-55e12b9873f4","meta":{"profile":["http://hl7.org/fhir/us/qicore/StructureDefinition/qicore-location"]},"identifier":[{"use":"usual","system":"http://exampleoflocation.com","value":"B1-S.F2"}],"name":"Medical Surgical East, first floor","type":[{"coding":[{"system":"https://www.cdc.gov/nhsn/cdaportal/terminology/codesystem/hsloc.html","version":"2022","code":"1108-0","display":"Emergency Department","userSelected":true}]}]},"request":{"method":"PUT","url":"Location/ee7f89c4-eca6-470a-8c52-55e12b9873f4"}},{"fullUrl":"https://madie.cms.gov/Location/616ecc40-2a8e-4f99-a8c7-9d75deb16a9e","resource":{"resourceType":"Location","id":"616ecc40-2a8e-4f99-a8c7-9d75deb16a9e","meta":{"profile":["http://hl7.org/fhir/us/qicore/StructureDefinition/qicore-location"]},"identifier":[{"use":"usual","system":"http://exampleoflocation.com","value":"B1-S.F2"}],"name":"Medical Surgical East, first floor","type":[{"coding":[{"system":"https://www.cdc.gov/nhsn/cdaportal/terminology/codesystem/hsloc.html","version":"2022","code":"1209-6","display":"Treatment Room"}]}]},"request":{"method":"PUT","url":"Location/616ecc40-2a8e-4f99-a8c7-9d75deb16a9e"}},{"fullUrl":"https://madie.cms.gov/claim/ClaimBehavior-NotSubsAbuse","resource":{"resourceType":"Claim","id":"ClaimBehavior-NotSubsAbuse","meta":{"profile":["http://hl7.org/fhir/us/qicore/StructureDefinition/qicore-claim"]},"status":"active","type":{"coding":[{"system":"http://terminology.hl7.org/CodeSystem/claim-type","code":"institutional"}]},"use":"claim","patient":{"reference":"Patient/a3dd602c-cd84-4e7a-aa37-eae4b15fdf4e"},"created":"2027-05-01","provider":{"reference":"Practitioner/659f6874-83e2-402c-b682-738ccb5cfa3c"},"priority":{"coding":[{"system":"http://terminology.hl7.org/CodeSystem/processpriority","code":"normal"}]},"diagnosis":[{"sequence":1,"diagnosisReference":{"reference":"Condition/bea6b2a1-c14c-44e2-8646-5433c5757eb5"},"type":[{"coding":[{"system":"http://terminology.hl7.org/CodeSystem/ex-diagnosistype","code":"principal"}]}]}],"insurance":[{"sequence":1,"focal":true,"coverage":{"reference":"Coverage/4d291a5d-8aa4-4486-90d2-f34e76c317b2"}}],"item":[{"sequence":1,"diagnosisSequence":[1],"productOrService":{"coding":[{"system":"http://terminology.hl7.org/CodeSystem/ex-USCLS","code":"99555"}]},"encounter":[{"reference":"Encounter/85ce274e-d159-43ea-8715-5b3ba9a5c8df"}]}]},"request":{"method":"PUT","url":"Claim/ClaimBehavior-NotSubsAbuse"}},{"fullUrl":"https://madie.cms.gov/Coverage/4d291a5d-8aa4-4486-90d2-f34e76c317b2","resource":{"resourceType":"Coverage","id":"4d291a5d-8aa4-4486-90d2-f34e76c317b2","meta":{"profile":["http://hl7.org/fhir/us/qicore/StructureDefinition/qicore-coverage"]},"identifier":[{"type":{"coding":[{"system":"http://terminology.hl7.org/CodeSystem/v2-0203","code":"MB"}]}}],"status":"active","beneficiary":{"reference":"Patient/a3dd602c-cd84-4e7a-aa37-eae4b15fdf4e"},"relationship":{"coding":[{"system":"http://terminology.hl7.org/CodeSystem/subscriber-relationship","code":"self"}]},"payor":[{"reference":"Organization/3b4a3828-eb20-4c4f-bded-cfa73de3ee47"}]},"request":{"method":"PUT","url":"Coverage/4d291a5d-8aa4-4486-90d2-f34e76c317b2"}},{"fullUrl":"https://madie.cms.gov/Organization/3b4a3828-eb20-4c4f-bded-cfa73de3ee47","resource":{"resourceType":"Organization","id":"3b4a3828-eb20-4c4f-bded-cfa73de3ee47","meta":{"profile":["http://hl7.org/fhir/us/qicore/StructureDefinition/qicore-organization"]},"identifier":[{"use":"temp","system":"urn:oid:2.16.840.1.113883.4.4","value":"21-3259825"}],"active":true,"type":[{"coding":[{"system":"http://terminology.hl7.org/CodeSystem/organization-type","code":"pay","display":"Payer"}]}],"name":"Blue Cross Blue Shield of Texas","telecom":[{"system":"phone","value":"(+1) 972-766-6900"}],"address":[{"use":"billing","type":"postal","line":["P.O. Box 660044"],"city":"Dallas","state":"TX","postalCode":"75266-0044","country":"USA"}]},"request":{"method":"PUT","url":"Organization/3b4a3828-eb20-4c4f-bded-cfa73de3ee47"}},{"fullUrl":"https://madie.cms.gov/Practitioner/659f6874-83e2-402c-b682-738ccb5cfa3c","resource":{"resourceType":"Practitioner","id":"659f6874-83e2-402c-b682-738ccb5cfa3c","meta":{"profile":["http://hl7.org/fhir/us/qicore/StructureDefinition/qicore-practitioner"]},"identifier":[{"system":"http://hl7.org/fhir/sid/us-npi","value":"9999999896"}],"name":[{"family":"Evil","prefix":["Dr"]}]},"request":{"method":"PUT","url":"Practitioner/659f6874-83e2-402c-b682-738ccb5cfa3c"}},{"fullUrl":"https://madie.cms.gov/MeasureReport/3eeb1a48-9ba6-4238-8e6f-c19b75966465","resource":{"resourceType":"MeasureReport","id":"3eeb1a48-9ba6-4238-8e6f-c19b75966465","meta":{"profile":["http://hl7.org/fhir/us/cqfmeasures/StructureDefinition/test-case-cqfm"]},"contained":[{"resourceType":"Parameters","id":"48ecdba2-62da-45f3-aa69-e6668836127c-parameters","parameter":[{"name":"subject","valueString":"a3dd602c-cd84-4e7a-aa37-eae4b15fdf4e"}]}],"extension":[{"url":"http://hl7.org/fhir/StructureDefinition/cqf-inputParameters","valueReference":{"reference":"#48ecdba2-62da-45f3-aa69-e6668836127c-parameters"}},{"url":"http://hl7.org/fhir/us/cqfmeasures/StructureDefinition/cqfm-testCaseDescription","valueMarkdown":"Adult, mental diagnosis, LOS 8+ hours, EM overlaps with Triage"}],"modifierExtension":[{"url":"http://hl7.org/fhir/us/cqfmeasures/StructureDefinition/cqfm-isTestCase","valueBoolean":true}],"status":"complete","type":"individual","measure":"https://madie.cms.gov/Measure/CMS1264FHIRECATREHQR","period":{"start":"2027-01-01","end":"2027-12-31"},"group":[{"id":"Group_1","population":[{"id":"InitialPopulation_1","code":{"coding":[{"system":"http://terminology.hl7.org/CodeSystem/measure-population","code":"initial-population","display":"Initial Population"}]},"count":1},{"id":"Denominator_1","code":{"coding":[{"system":"http://terminology.hl7.org/CodeSystem/measure-population","code":"denominator","display":"Denominator"}]},"count":1},{"id":"Numerator_1","code":{"coding":[{"system":"http://terminology.hl7.org/CodeSystem/measure-population","code":"numerator","display":"Numerator"}]},"count":1}],"measureScore":{"value":0.0},"stratifier":[{"id":"Stratification_1_1","code":[{"text":"Strata-1"}],"stratum":[{"value":{"text":"Strata-1"},"population":[{"id":"InitialPopulation_1","code":{"coding":[{"system":"http://terminology.hl7.org/CodeSystem/measure-population","code":"initial-population","display":"Initial Population"}]},"count":0},{"id":"Denominator_1","code":{"coding":[{"system":"http://terminology.hl7.org/CodeSystem/measure-population","code":"denominator","display":"Denominator"}]},"count":0},{"id":"Numerator_1","code":{"coding":[{"system":"http://terminology.hl7.org/CodeSystem/measure-population","code":"numerator","display":"Numerator"}]},"count":0}]}]},{"id":"Stratification_1_2","code":[{"text":"Strata-2"}],"stratum":[{"value":{"text":"Strata-2"},"population":[{"id":"InitialPopulation_1","code":{"coding":[{"system":"http://terminology.hl7.org/CodeSystem/measure-population","code":"initial-population","display":"Initial Population"}]},"count":0},{"id":"Denominator_1","code":{"coding":[{"system":"http://terminology.hl7.org/CodeSystem/measure-population","code":"denominator","display":"Denominator"}]},"count":0},{"id":"Numerator_1","code":{"coding":[{"system":"http://terminology.hl7.org/CodeSystem/measure-population","code":"numerator","display":"Numerator"}]},"count":0}]}]},{"id":"Stratification_1_3","code":[{"text":"Strata-3"}],"stratum":[{"value":{"text":"Strata-3"},"population":[{"id":"InitialPopulation_1","code":{"coding":[{"system":"http://terminology.hl7.org/CodeSystem/measure-population","code":"initial-population","display":"Initial Population"}]},"count":0},{"id":"Denominator_1","code":{"coding":[{"system":"http://terminology.hl7.org/CodeSystem/measure-population","code":"denominator","display":"Denominator"}]},"count":0},{"id":"Numerator_1","code":{"coding":[{"system":"http://terminology.hl7.org/CodeSystem/measure-population","code":"numerator","display":"Numerator"}]},"count":0}]}]},{"id":"Stratification_1_4","code":[{"text":"Strata-4"}],"stratum":[{"value":{"text":"Strata-4"},"population":[{"id":"InitialPopulation_1","code":{"coding":[{"system":"http://terminology.hl7.org/CodeSystem/measure-population","code":"initial-population","display":"Initial Population"}]},"count":1},{"id":"Denominator_1","code":{"coding":[{"system":"http://terminology.hl7.org/CodeSystem/measure-population","code":"denominator","display":"Denominator"}]},"count":1},{"id":"Numerator_1","code":{"coding":[{"system":"http://terminology.hl7.org/CodeSystem/measure-population","code":"numerator","display":"Numerator"}]},"count":1}]}]}]}],"evaluatedResource":[{"reference":"Patient/a3dd602c-cd84-4e7a-aa37-eae4b15fdf4e"},{"reference":"Encounter/01460acb-363e-49b8-aaae-b991d8268edc"},{"reference":"Encounter/85ce274e-d159-43ea-8715-5b3ba9a5c8df"},{"reference":"Location/5d6f9388-5efb-4c9c-a73c-2d5f9b114492"},{"reference":"Location/db01cffb-aa70-45f7-9289-4deef15c3b20"},{"reference":"Condition/bea6b2a1-c14c-44e2-8646-5433c5757eb5"},{"reference":"Location/ee7f89c4-eca6-470a-8c52-55e12b9873f4"},{"reference":"Location/616ecc40-2a8e-4f99-a8c7-9d75deb16a9e"},{"reference":"Claim/ClaimBehavior-NotSubsAbuse"},{"reference":"Coverage/4d291a5d-8aa4-4486-90d2-f34e76c317b2"},{"reference":"Organization/3b4a3828-eb20-4c4f-bded-cfa73de3ee47"},{"reference":"Practitioner/659f6874-83e2-402c-b682-738ccb5cfa3c"}]},"request":{"method":"PUT","url":"MeasureReport/3eeb1a48-9ba6-4238-8e6f-c19b75966465"}}]},"request":{"method":"PUT","url":"Bundle/661579e3db207d74c03b8a50"}},{"fullUrl":"Encounter/85ce274e-d159-43ea-8715-5b3ba9a5c8df","resource":{"resourceType":"Encounter","id":"85ce274e-d159-43ea-8715-5b3ba9a5c8df","meta":{"profile":["http://hl7.org/fhir/us/qicore/StructureDefinition/qicore-encounter"]},"status":"finished","class":{"system":"http://terminology.hl7.org/CodeSystem/v3-ActCode","code":"EMER","display":"emergency"},"type":[{"coding":[{"system":"http://snomed.info/sct","version":"2023-09","code":"4525004","display":"Emergency department patient visit (procedure)","userSelected":true}]}],"subject":{"reference":"Patient/a3dd602c-cd84-4e7a-aa37-eae4b15fdf4e"},"period":{"start":"2027-05-01T08:00:00.000+00:00","end":"2027-05-01T12:15:00.000+00:00"},"diagnosis":[{"condition":{"reference":"Condition/bea6b2a1-c14c-44e2-8646-5433c5757eb5"},"use":{"coding":[{"system":"http://terminology.hl7.org/CodeSystem/diagnosis-role","code":"billing"}]},"rank":1}],"location":[{"location":{"reference":"Location/5d6f9388-5efb-4c9c-a73c-2d5f9b114492"},"period":{"start":"2027-05-01T07:45:00.000+00:00","end":"2027-05-01T16:31:00.000+00:00"}},{"location":{"reference":"Location/db01cffb-aa70-45f7-9289-4deef15c3b20"},"period":{"start":"2027-05-01T09:31:00.000+00:00","end":"2027-05-01T12:15:00.000+00:00"}},{"location":{"reference":"Location/616ecc40-2a8e-4f99-a8c7-9d75deb16a9e"},"period":{"start":"2027-05-01T08:40:00.000+00:00","end":"2027-05-01T12:15:00.000+00:00"}},{"location":{"reference":"Location/ee7f89c4-eca6-470a-8c52-55e12b9873f4"},"period":{"start":"2027-05-01T08:30:00.000+00:00","end":"2027-05-01T15:46:00.000+00:00"}}]},"request":{"method":"PUT","url":"Encounter/85ce274e-d159-43ea-8715-5b3ba9a5c8df"}},{"fullUrl":"Organization/3b4a3828-eb20-4c4f-bded-cfa73de3ee47","resource":{"resourceType":"Organization","id":"3b4a3828-eb20-4c4f-bded-cfa73de3ee47","meta":{"profile":["http://hl7.org/fhir/us/qicore/StructureDefinition/qicore-organization"]},"identifier":[{"use":"temp","system":"urn:oid:2.16.840.1.113883.4.4","value":"21-3259825"}],"active":true,"type":[{"coding":[{"system":"http://terminology.hl7.org/CodeSystem/organization-type","code":"pay","display":"Payer"}]}],"name":"Blue Cross Blue Shield of Texas","telecom":[{"system":"phone","value":"(+1) 972-766-6900"}],"address":[{"use":"billing","type":"postal","line":["P.O. Box 660044"],"city":"Dallas","state":"TX","postalCode":"75266-0044","country":"USA"}]},"request":{"method":"PUT","url":"Organization/3b4a3828-eb20-4c4f-bded-cfa73de3ee47"}},{"fullUrl":"MeasureReport/3eeb1a48-9ba6-4238-8e6f-c19b75966465","resource":{"resourceType":"MeasureReport","id":"3eeb1a48-9ba6-4238-8e6f-c19b75966465","meta":{"profile":["http://hl7.org/fhir/us/cqfmeasures/StructureDefinition/test-case-cqfm"]},"contained":[{"resourceType":"Parameters","id":"48ecdba2-62da-45f3-aa69-e6668836127c-parameters","parameter":[{"name":"subject","valueString":"a3dd602c-cd84-4e7a-aa37-eae4b15fdf4e"}]}],"extension":[{"url":"http://hl7.org/fhir/StructureDefinition/cqf-inputParameters","valueReference":{"reference":"#48ecdba2-62da-45f3-aa69-e6668836127c-parameters"}},{"url":"http://hl7.org/fhir/us/cqfmeasures/StructureDefinition/cqfm-testCaseDescription","valueMarkdown":"Adult, mental diagnosis, LOS 8+ hours, EM overlaps with Triage"}],"modifierExtension":[{"url":"http://hl7.org/fhir/us/cqfmeasures/StructureDefinition/cqfm-isTestCase","valueBoolean":true}],"status":"complete","type":"individual","measure":"https://madie.cms.gov/Measure/CMS1264FHIRECATREHQR","period":{"start":"2027-01-01","end":"2027-12-31"},"group":[{"id":"Group_1","population":[{"id":"InitialPopulation_1","code":{"coding":[{"system":"http://terminology.hl7.org/CodeSystem/measure-population","code":"initial-population","display":"Initial Population"}]},"count":1},{"id":"Denominator_1","code":{"coding":[{"system":"http://terminology.hl7.org/CodeSystem/measure-population","code":"denominator","display":"Denominator"}]},"count":1},{"id":"Numerator_1","code":{"coding":[{"system":"http://terminology.hl7.org/CodeSystem/measure-population","code":"numerator","display":"Numerator"}]},"count":1}],"measureScore":{"value":0.0},"stratifier":[{"id":"Stratification_1_1","code":[{"text":"Strata-1"}],"stratum":[{"value":{"text":"Strata-1"},"population":[{"id":"InitialPopulation_1","code":{"coding":[{"system":"http://terminology.hl7.org/CodeSystem/measure-population","code":"initial-population","display":"Initial Population"}]},"count":0},{"id":"Denominator_1","code":{"coding":[{"system":"http://terminology.hl7.org/CodeSystem/measure-population","code":"denominator","display":"Denominator"}]},"count":0},{"id":"Numerator_1","code":{"coding":[{"system":"http://terminology.hl7.org/CodeSystem/measure-population","code":"numerator","display":"Numerator"}]},"count":0}]}]},{"id":"Stratification_1_2","code":[{"text":"Strata-2"}],"stratum":[{"value":{"text":"Strata-2"},"population":[{"id":"InitialPopulation_1","code":{"coding":[{"system":"http://terminology.hl7.org/CodeSystem/measure-population","code":"initial-population","display":"Initial Population"}]},"count":0},{"id":"Denominator_1","code":{"coding":[{"system":"http://terminology.hl7.org/CodeSystem/measure-population","code":"denominator","display":"Denominator"}]},"count":0},{"id":"Numerator_1","code":{"coding":[{"system":"http://terminology.hl7.org/CodeSystem/measure-population","code":"numerator","display":"Numerator"}]},"count":0}]}]},{"id":"Stratification_1_3","code":[{"text":"Strata-3"}],"stratum":[{"value":{"text":"Strata-3"},"population":[{"id":"InitialPopulation_1","code":{"coding":[{"system":"http://terminology.hl7.org/CodeSystem/measure-population","code":"initial-population","display":"Initial Population"}]},"count":0},{"id":"Denominator_1","code":{"coding":[{"system":"http://terminology.hl7.org/CodeSystem/measure-population","code":"denominator","display":"Denominator"}]},"count":0},{"id":"Numerator_1","code":{"coding":[{"system":"http://terminology.hl7.org/CodeSystem/measure-population","code":"numerator","display":"Numerator"}]},"count":0}]}]},{"id":"Stratification_1_4","code":[{"text":"Strata-4"}],"stratum":[{"value":{"text":"Strata-4"},"population":[{"id":"InitialPopulation_1","code":{"coding":[{"system":"http://terminology.hl7.org/CodeSystem/measure-population","code":"initial-population","display":"Initial Population"}]},"count":1},{"id":"Denominator_1","code":{"coding":[{"system":"http://terminology.hl7.org/CodeSystem/measure-population","code":"denominator","display":"Denominator"}]},"count":1},{"id":"Numerator_1","code":{"coding":[{"system":"http://terminology.hl7.org/CodeSystem/measure-population","code":"numerator","display":"Numerator"}]},"count":1}]}]}]}],"evaluatedResource":[{"reference":"Patient/a3dd602c-cd84-4e7a-aa37-eae4b15fdf4e"},{"reference":"Encounter/01460acb-363e-49b8-aaae-b991d8268edc"},{"reference":"Encounter/85ce274e-d159-43ea-8715-5b3ba9a5c8df"},{"reference":"Location/5d6f9388-5efb-4c9c-a73c-2d5f9b114492"},{"reference":"Location/db01cffb-aa70-45f7-9289-4deef15c3b20"},{"reference":"Condition/bea6b2a1-c14c-44e2-8646-5433c5757eb5"},{"reference":"Location/ee7f89c4-eca6-470a-8c52-55e12b9873f4"},{"reference":"Location/616ecc40-2a8e-4f99-a8c7-9d75deb16a9e"},{"reference":"Claim/ClaimBehavior-NotSubsAbuse"},{"reference":"Coverage/4d291a5d-8aa4-4486-90d2-f34e76c317b2"},{"reference":"Organization/3b4a3828-eb20-4c4f-bded-cfa73de3ee47"},{"reference":"Practitioner/659f6874-83e2-402c-b682-738ccb5cfa3c"}]},"request":{"method":"PUT","url":"MeasureReport/3eeb1a48-9ba6-4238-8e6f-c19b75966465"}},{"fullUrl":"Patient/a3dd602c-cd84-4e7a-aa37-eae4b15fdf4e","resource":{"resourceType":"Patient","id":"a3dd602c-cd84-4e7a-aa37-eae4b15fdf4e","meta":{"profile":["http://hl7.org/fhir/us/qicore/StructureDefinition/qicore-patient"]},"extension":[{"url":"http://hl7.org/fhir/us/core/StructureDefinition/us-core-race","extension":[{"url":"ombCategory","valueCoding":{"system":"urn:oid:2.16.840.1.113883.6.238","code":"2076-8","display":"Native Hawaiian or Other Pacific Islander","userSelected":true}},{"url":"text","valueString":"Native Hawaiian or Other Pacific Islander"}]},{"url":"http://hl7.org/fhir/us/core/StructureDefinition/us-core-ethnicity","extension":[{"url":"ombCategory","valueCoding":{"system":"urn:oid:2.16.840.1.113883.6.238","code":"2186-5","display":"Not Hispanic or Latino","userSelected":true}},{"url":"text","valueString":"Not Hispanic or Latino"}]},{"url":"http://hl7.org/fhir/us/core/StructureDefinition/us-core-sex","valueCode":"248152002"}],"identifier":[{"type":{"coding":[{"system":"http://terminology.hl7.org/CodeSystem/v2-0203","code":"MR"}]},"system":"https://bonnie-fhir.healthit.gov/","value":"661579e3db207d74c03b8a50"}],"name":[{"family":"NUMERStrat4Pass","given":["EMDuringTriage"]}],"gender":"female","birthDate":"2008-12-31"},"request":{"method":"PUT","url":"Patient/a3dd602c-cd84-4e7a-aa37-eae4b15fdf4e"}},{"fullUrl":"Location/616ecc40-2a8e-4f99-a8c7-9d75deb16a9e","resource":{"resourceType":"Location","id":"616ecc40-2a8e-4f99-a8c7-9d75deb16a9e","meta":{"profile":["http://hl7.org/fhir/us/qicore/StructureDefinition/qicore-location"]},"identifier":[{"use":"usual","system":"http://exampleoflocation.com","value":"B1-S.F2"}],"name":"Medical Surgical East, first floor","type":[{"coding":[{"system":"https://www.cdc.gov/nhsn/cdaportal/terminology/codesystem/hsloc.html","version":"2022","code":"1209-6","display":"Treatment Room"}]}]},"request":{"method":"PUT","url":"Location/616ecc40-2a8e-4f99-a8c7-9d75deb16a9e"}},{"fullUrl":"Encounter/01460acb-363e-49b8-aaae-b991d8268edc","resource":{"resourceType":"Encounter","id":"01460acb-363e-49b8-aaae-b991d8268edc","meta":{"profile":["http://hl7.org/fhir/us/qicore/StructureDefinition/qicore-encounter"]},"status":"finished","class":{"system":"http://terminology.hl7.org/CodeSystem/v3-ActCode","code":"EMER","display":"emergency"},"type":[{"coding":[{"system":"http://snomed.info/sct","version":"2023-09","code":"225390008","display":"Triage (procedure)","userSelected":true}]}],"subject":{"reference":"Patient/a3dd602c-cd84-4e7a-aa37-eae4b15fdf4e"},"period":{"start":"2027-05-01T08:00:00.000+00:00","end":"2027-05-01T13:15:00.000+00:00"}},"request":{"method":"PUT","url":"Encounter/01460acb-363e-49b8-aaae-b991d8268edc"}},{"fullUrl":"Location/5d6f9388-5efb-4c9c-a73c-2d5f9b114492","resource":{"resourceType":"Location","id":"5d6f9388-5efb-4c9c-a73c-2d5f9b114492","meta":{"profile":["http://hl7.org/fhir/us/qicore/StructureDefinition/qicore-location"]},"identifier":[{"use":"usual","system":"http://exampleoflocation.com","value":"B1-S.F1"}],"name":"Medical Surgical East, first floor","type":[{"coding":[{"system":"https://www.cdc.gov/nhsn/cdaportal/terminology/codesystem/hsloc.html","version":"2022","code":"1108-0","display":"Emergency Department","userSelected":true}]}]},"request":{"method":"PUT","url":"Location/5d6f9388-5efb-4c9c-a73c-2d5f9b114492"}},{"fullUrl":"Condition/bea6b2a1-c14c-44e2-8646-5433c5757eb5","resource":{"resourceType":"Condition","id":"bea6b2a1-c14c-44e2-8646-5433c5757eb5","meta":{"profile":["http://hl7.org/fhir/us/qicore/StructureDefinition/qicore-condition-encounter-diagnosis"]},"category":[{"coding":[{"system":"http://terminology.hl7.org/CodeSystem/condition-category","code":"encounter-diagnosis","display":"Encounter Diagnosis"}]}],"code":{"coding":[{"system":"http://snomed.info/sct","version":"2023-09","code":"10349009","display":"Multi-infarct dementia with delirium (disorder)","userSelected":true}]},"subject":{"reference":"Patient/a3dd602c-cd84-4e7a-aa37-eae4b15fdf4e"},"recordedDate":"2027-04-09T08:00:00.000+00:00"},"request":{"method":"PUT","url":"Condition/bea6b2a1-c14c-44e2-8646-5433c5757eb5"}},{"fullUrl":"Claim/ClaimBehavior-NotSubsAbuse","resource":{"resourceType":"Claim","id":"ClaimBehavior-NotSubsAbuse","meta":{"profile":["http://hl7.org/fhir/us/qicore/StructureDefinition/qicore-claim"]},"status":"active","type":{"coding":[{"system":"http://terminology.hl7.org/CodeSystem/claim-type","code":"institutional"}]},"use":"claim","patient":{"reference":"Patient/a3dd602c-cd84-4e7a-aa37-eae4b15fdf4e"},"created":"2027-05-01","provider":{"reference":"Practitioner/659f6874-83e2-402c-b682-738ccb5cfa3c"},"priority":{"coding":[{"system":"http://terminology.hl7.org/CodeSystem/processpriority","code":"normal"}]},"diagnosis":[{"sequence":1,"diagnosisReference":{"reference":"Condition/bea6b2a1-c14c-44e2-8646-5433c5757eb5"},"type":[{"coding":[{"system":"http://terminology.hl7.org/CodeSystem/ex-diagnosistype","code":"principal"}]}]}],"insurance":[{"sequence":1,"focal":true,"coverage":{"reference":"Coverage/4d291a5d-8aa4-4486-90d2-f34e76c317b2"}}],"item":[{"sequence":1,"diagnosisSequence":[1],"productOrService":{"coding":[{"system":"http://terminology.hl7.org/CodeSystem/ex-USCLS","code":"99555"}]},"encounter":[{"reference":"Encounter/85ce274e-d159-43ea-8715-5b3ba9a5c8df"}]}]},"request":{"method":"PUT","url":"Claim/ClaimBehavior-NotSubsAbuse"}},{"fullUrl":"Coverage/4d291a5d-8aa4-4486-90d2-f34e76c317b2","resource":{"resourceType":"Coverage","id":"4d291a5d-8aa4-4486-90d2-f34e76c317b2","meta":{"profile":["http://hl7.org/fhir/us/qicore/StructureDefinition/qicore-coverage"]},"identifier":[{"type":{"coding":[{"system":"http://terminology.hl7.org/CodeSystem/v2-0203","code":"MB"}]}}],"status":"active","beneficiary":{"reference":"Patient/a3dd602c-cd84-4e7a-aa37-eae4b15fdf4e"},"relationship":{"coding":[{"system":"http://terminology.hl7.org/CodeSystem/subscriber-relationship","code":"self"}]},"payor":[{"reference":"Organization/3b4a3828-eb20-4c4f-bded-cfa73de3ee47"}]},"request":{"method":"PUT","url":"Coverage/4d291a5d-8aa4-4486-90d2-f34e76c317b2"}},{"fullUrl":"Location/ee7f89c4-eca6-470a-8c52-55e12b9873f4","resource":{"resourceType":"Location","id":"ee7f89c4-eca6-470a-8c52-55e12b9873f4","meta":{"profile":["http://hl7.org/fhir/us/qicore/StructureDefinition/qicore-location"]},"identifier":[{"use":"usual","system":"http://exampleoflocation.com","value":"B1-S.F2"}],"name":"Medical Surgical East, first floor","type":[{"coding":[{"system":"https://www.cdc.gov/nhsn/cdaportal/terminology/codesystem/hsloc.html","version":"2022","code":"1108-0","display":"Emergency Department","userSelected":true}]}]},"request":{"method":"PUT","url":"Location/ee7f89c4-eca6-470a-8c52-55e12b9873f4"}}]}