{"resourceType":"Bundle","id":"tests-7dd19e80-23c6-4e31-86a9-bb833cfc676b-bundle","type":"transaction","entry":[{"fullUrl":"Condition/95522e44-1785-4151-a661-523979c07ef4","resource":{"resourceType":"Condition","id":"95522e44-1785-4151-a661-523979c07ef4","meta":{"profile":["http://hl7.org/fhir/us/qicore/StructureDefinition/qicore-condition-encounter-diagnosis"]},"category":[{"coding":[{"system":"http://terminology.hl7.org/CodeSystem/condition-category","code":"encounter-diagnosis","display":"Encounter Diagnosis"}]}],"code":{"coding":[{"system":"http://snomed.info/sct","version":"2023-09","code":"10660471000119109","display":"Ulcer of left foot due to type 2 diabetes mellitus (disorder)","userSelected":true}]},"subject":{"reference":"Patient/7dd19e80-23c6-4e31-86a9-bb833cfc676b"},"recordedDate":"2027-05-01T08:00:00.000+00:00"},"request":{"method":"PUT","url":"Condition/95522e44-1785-4151-a661-523979c07ef4"}},{"fullUrl":"MeasureReport/e42ee228-148f-49b9-8076-05d4f12e6c9d","resource":{"resourceType":"MeasureReport","id":"e42ee228-148f-49b9-8076-05d4f12e6c9d","meta":{"profile":["http://hl7.org/fhir/us/cqfmeasures/StructureDefinition/test-case-cqfm"]},"contained":[{"resourceType":"Parameters","id":"0b96f418-89f8-4e64-9985-2b466a5011b0-parameters","parameter":[{"name":"subject","valueString":"7dd19e80-23c6-4e31-86a9-bb833cfc676b"}]}],"extension":[{"url":"http://hl7.org/fhir/StructureDefinition/cqf-inputParameters","valueReference":{"reference":"#0b96f418-89f8-4e64-9985-2b466a5011b0-parameters"}},{"url":"http://hl7.org/fhir/us/cqfmeasures/StructureDefinition/cqfm-testCaseDescription","valueMarkdown":"ED enc first day of MP lasting 481 minutes (start to end) but ED LOS 480 (arrival to departure)"}],"modifierExtension":[{"url":"http://hl7.org/fhir/us/cqfmeasures/StructureDefinition/cqfm-isTestCase","valueBoolean":true}],"status":"complete","type":"individual","measure":"https://madie.cms.gov/Measure/CMS1264FHIRECATREHQR","period":{"start":"2027-01-01","end":"2027-12-31"},"group":[{"id":"Group_1","population":[{"id":"InitialPopulation_1","code":{"coding":[{"system":"http://terminology.hl7.org/CodeSystem/measure-population","code":"initial-population","display":"Initial Population"}]},"count":1},{"id":"Denominator_1","code":{"coding":[{"system":"http://terminology.hl7.org/CodeSystem/measure-population","code":"denominator","display":"Denominator"}]},"count":1},{"id":"Numerator_1","code":{"coding":[{"system":"http://terminology.hl7.org/CodeSystem/measure-population","code":"numerator","display":"Numerator"}]},"count":0}],"measureScore":{"value":0.0},"stratifier":[{"id":"Stratification_1_1","code":[{"text":"Strata-1"}],"stratum":[{"value":{"text":"Strata-1"},"population":[{"id":"InitialPopulation_1","code":{"coding":[{"system":"http://terminology.hl7.org/CodeSystem/measure-population","code":"initial-population","display":"Initial Population"}]},"count":0},{"id":"Denominator_1","code":{"coding":[{"system":"http://terminology.hl7.org/CodeSystem/measure-population","code":"denominator","display":"Denominator"}]},"count":0},{"id":"Numerator_1","code":{"coding":[{"system":"http://terminology.hl7.org/CodeSystem/measure-population","code":"numerator","display":"Numerator"}]},"count":0}]}]},{"id":"Stratification_1_2","code":[{"text":"Strata-2"}],"stratum":[{"value":{"text":"Strata-2"},"population":[{"id":"InitialPopulation_1","code":{"coding":[{"system":"http://terminology.hl7.org/CodeSystem/measure-population","code":"initial-population","display":"Initial Population"}]},"count":1},{"id":"Denominator_1","code":{"coding":[{"system":"http://terminology.hl7.org/CodeSystem/measure-population","code":"denominator","display":"Denominator"}]},"count":1},{"id":"Numerator_1","code":{"coding":[{"system":"http://terminology.hl7.org/CodeSystem/measure-population","code":"numerator","display":"Numerator"}]},"count":0}]}]},{"id":"Stratification_1_3","code":[{"text":"Strata-3"}],"stratum":[{"value":{"text":"Strata-3"},"population":[{"id":"InitialPopulation_1","code":{"coding":[{"system":"http://terminology.hl7.org/CodeSystem/measure-population","code":"initial-population","display":"Initial Population"}]},"count":0},{"id":"Denominator_1","code":{"coding":[{"system":"http://terminology.hl7.org/CodeSystem/measure-population","code":"denominator","display":"Denominator"}]},"count":0},{"id":"Numerator_1","code":{"coding":[{"system":"http://terminology.hl7.org/CodeSystem/measure-population","code":"numerator","display":"Numerator"}]},"count":0}]}]},{"id":"Stratification_1_4","code":[{"text":"Strata-4"}],"stratum":[{"value":{"text":"Strata-4"},"population":[{"id":"InitialPopulation_1","code":{"coding":[{"system":"http://terminology.hl7.org/CodeSystem/measure-population","code":"initial-population","display":"Initial Population"}]},"count":0},{"id":"Denominator_1","code":{"coding":[{"system":"http://terminology.hl7.org/CodeSystem/measure-population","code":"denominator","display":"Denominator"}]},"count":0},{"id":"Numerator_1","code":{"coding":[{"system":"http://terminology.hl7.org/CodeSystem/measure-population","code":"numerator","display":"Numerator"}]},"count":0}]}]}]}],"evaluatedResource":[{"reference":"Patient/7dd19e80-23c6-4e31-86a9-bb833cfc676b"},{"reference":"Encounter/0d4477a6-360e-40ee-810b-6ee1f07e34f2"},{"reference":"Location/d98f137f-a5d1-4397-86f3-f531b4f11137"},{"reference":"Condition/95522e44-1785-4151-a661-523979c07ef4"},{"reference":"Claim/ClaimBehavior-NotSubsAbuse"},{"reference":"Coverage/b47c6fee-5eab-4649-a9f1-4a764225d3d9"},{"reference":"Organization/75a976d0-1150-47e8-9d0b-45103d57a6ac"},{"reference":"Practitioner/2dd3f76c-b658-4de9-a145-fb83c68f6b98"}]},"request":{"method":"PUT","url":"MeasureReport/e42ee228-148f-49b9-8076-05d4f12e6c9d"}},{"fullUrl":"Organization/75a976d0-1150-47e8-9d0b-45103d57a6ac","resource":{"resourceType":"Organization","id":"75a976d0-1150-47e8-9d0b-45103d57a6ac","meta":{"profile":["http://hl7.org/fhir/us/qicore/StructureDefinition/qicore-organization"]},"identifier":[{"use":"temp","system":"urn:oid:2.16.840.1.113883.4.4","value":"21-3259825"}],"active":true,"type":[{"coding":[{"system":"http://terminology.hl7.org/CodeSystem/organization-type","code":"pay","display":"Payer"}]}],"name":"Blue Cross Blue Shield of Texas","telecom":[{"system":"phone","value":"(+1) 972-766-6900"}],"address":[{"use":"billing","type":"postal","line":["P.O. Box 660044"],"city":"Dallas","state":"TX","postalCode":"75266-0044","country":"USA"}]},"request":{"method":"PUT","url":"Organization/75a976d0-1150-47e8-9d0b-45103d57a6ac"}},{"fullUrl":"Location/d98f137f-a5d1-4397-86f3-f531b4f11137","resource":{"resourceType":"Location","id":"d98f137f-a5d1-4397-86f3-f531b4f11137","meta":{"profile":["http://hl7.org/fhir/us/qicore/StructureDefinition/qicore-location"]},"identifier":[{"use":"usual","system":"http://exampleoflocation.com","value":"B1-S.F2"}],"name":"Emergency Department","type":[{"coding":[{"system":"https://www.cdc.gov/nhsn/cdaportal/terminology/codesystem/hsloc.html","version":"2022","code":"1108-0","display":"Emergency Department","userSelected":true}]}]},"request":{"method":"PUT","url":"Location/d98f137f-a5d1-4397-86f3-f531b4f11137"}},{"fullUrl":"Patient/7dd19e80-23c6-4e31-86a9-bb833cfc676b","resource":{"resourceType":"Patient","id":"7dd19e80-23c6-4e31-86a9-bb833cfc676b","meta":{"profile":["http://hl7.org/fhir/us/qicore/StructureDefinition/qicore-patient"]},"extension":[{"url":"http://hl7.org/fhir/us/core/StructureDefinition/us-core-race","extension":[{"url":"ombCategory","valueCoding":{"system":"urn:oid:2.16.840.1.113883.6.238","code":"1002-5","display":"American Indian or Alaska Native","userSelected":true}},{"url":"text","valueString":"American Indian or Alaska Native"}]},{"url":"http://hl7.org/fhir/us/core/StructureDefinition/us-core-ethnicity","extension":[{"url":"ombCategory","valueCoding":{"system":"urn:oid:2.16.840.1.113883.6.238","code":"2135-2","display":"Hispanic or Latino","userSelected":true}},{"url":"text","valueString":"Hispanic or Latino"}]},{"url":"http://hl7.org/fhir/us/core/StructureDefinition/us-core-sex","valueCode":"248153007"}],"identifier":[{"type":{"coding":[{"system":"http://terminology.hl7.org/CodeSystem/v2-0203","code":"MR"}]},"system":"https://bonnie-fhir.healthit.gov/","value":"661476b015ed5841a5547ebf"}],"name":[{"family":"NUMERStrat2Fail","given":["EDLOS480Minutes"]}],"gender":"male","birthDate":"2009-01-01"},"request":{"method":"PUT","url":"Patient/7dd19e80-23c6-4e31-86a9-bb833cfc676b"}},{"fullUrl":"Encounter/0d4477a6-360e-40ee-810b-6ee1f07e34f2","resource":{"resourceType":"Encounter","id":"0d4477a6-360e-40ee-810b-6ee1f07e34f2","meta":{"profile":["http://hl7.org/fhir/us/qicore/StructureDefinition/qicore-encounter"]},"status":"finished","class":{"system":"http://terminology.hl7.org/CodeSystem/v3-ActCode","code":"EMER","display":"emergency department"},"type":[{"coding":[{"system":"http://snomed.info/sct","version":"2023-09","code":"4525004","display":"Emergency department patient visit (procedure)","userSelected":true}]}],"subject":{"reference":"Patient/7dd19e80-23c6-4e31-86a9-bb833cfc676b"},"period":{"start":"2027-05-01T06:00:00.000+00:00","end":"2027-05-01T14:01:00.000+00:00"},"diagnosis":[{"condition":{"reference":"Condition/95522e44-1785-4151-a661-523979c07ef4"},"use":{"coding":[{"system":"http://terminology.hl7.org/CodeSystem/diagnosis-role","code":"billing"}]},"rank":1}],"location":[{"location":{"reference":"Location/d98f137f-a5d1-4397-86f3-f531b4f11137"},"period":{"start":"2027-05-01T06:00:00.000+00:00","end":"2027-05-01T14:00:00.000+00:00"}}]},"request":{"method":"PUT","url":"Encounter/0d4477a6-360e-40ee-810b-6ee1f07e34f2"}},{"fullUrl":"Claim/ClaimBehavior-NotSubsAbuse","resource":{"resourceType":"Claim","id":"ClaimBehavior-NotSubsAbuse","meta":{"profile":["http://hl7.org/fhir/us/qicore/StructureDefinition/qicore-claim"]},"status":"active","type":{"coding":[{"system":"http://terminology.hl7.org/CodeSystem/claim-type","code":"institutional"}]},"use":"claim","patient":{"reference":"Patient/7dd19e80-23c6-4e31-86a9-bb833cfc676b"},"created":"2027-05-01","provider":{"reference":"Practitioner/practitioner-123456"},"priority":{"coding":[{"system":"http://terminology.hl7.org/CodeSystem/processpriority","code":"normal"}]},"diagnosis":[{"sequence":1,"diagnosisReference":{"reference":"Condition/95522e44-1785-4151-a661-523979c07ef4"},"type":[{"coding":[{"system":"http://terminology.hl7.org/CodeSystem/ex-diagnosistype","code":"principal"}]}]}],"insurance":[{"sequence":1,"focal":true,"coverage":{"reference":"Coverage/1"}}],"item":[{"sequence":1,"diagnosisSequence":[1],"productOrService":{"coding":[{"system":"http://terminology.hl7.org/CodeSystem/ex-USCLS","code":"99555"}]},"encounter":[{"reference":"Encounter/0d4477a6-360e-40ee-810b-6ee1f07e34f2"}]}]},"request":{"method":"PUT","url":"Claim/ClaimBehavior-NotSubsAbuse"}},{"fullUrl":"Practitioner/2dd3f76c-b658-4de9-a145-fb83c68f6b98","resource":{"resourceType":"Practitioner","id":"2dd3f76c-b658-4de9-a145-fb83c68f6b98","meta":{"profile":["http://hl7.org/fhir/us/qicore/StructureDefinition/qicore-practitioner"]},"identifier":[{"system":"http://hl7.org/fhir/sid/us-npi","value":"9999999896"}],"name":[{"family":"Evil","prefix":["Dr"]}]},"request":{"method":"PUT","url":"Practitioner/2dd3f76c-b658-4de9-a145-fb83c68f6b98"}},{"fullUrl":"Bundle/661476b015ed5841a5547ebf","resource":{"resourceType":"Bundle","id":"661476b015ed5841a5547ebf","type":"transaction","entry":[{"fullUrl":"https://madie.cms.gov/Patient/7dd19e80-23c6-4e31-86a9-bb833cfc676b","resource":{"resourceType":"Patient","id":"7dd19e80-23c6-4e31-86a9-bb833cfc676b","meta":{"profile":["http://hl7.org/fhir/us/qicore/StructureDefinition/qicore-patient"]},"extension":[{"url":"http://hl7.org/fhir/us/core/StructureDefinition/us-core-race","extension":[{"url":"ombCategory","valueCoding":{"system":"urn:oid:2.16.840.1.113883.6.238","code":"1002-5","display":"American Indian or Alaska Native","userSelected":true}},{"url":"text","valueString":"American Indian or Alaska Native"}]},{"url":"http://hl7.org/fhir/us/core/StructureDefinition/us-core-ethnicity","extension":[{"url":"ombCategory","valueCoding":{"system":"urn:oid:2.16.840.1.113883.6.238","code":"2135-2","display":"Hispanic or Latino","userSelected":true}},{"url":"text","valueString":"Hispanic or Latino"}]},{"url":"http://hl7.org/fhir/us/core/StructureDefinition/us-core-sex","valueCode":"248153007"}],"identifier":[{"type":{"coding":[{"system":"http://terminology.hl7.org/CodeSystem/v2-0203","code":"MR"}]},"system":"https://bonnie-fhir.healthit.gov/","value":"661476b015ed5841a5547ebf"}],"name":[{"family":"NUMERStrat2Fail","given":["EDLOS480Minutes"]}],"gender":"male","birthDate":"2009-01-01"},"request":{"method":"PUT","url":"Patient/7dd19e80-23c6-4e31-86a9-bb833cfc676b"}},{"fullUrl":"https://madie.cms.gov/Encounter/0d4477a6-360e-40ee-810b-6ee1f07e34f2","resource":{"resourceType":"Encounter","id":"0d4477a6-360e-40ee-810b-6ee1f07e34f2","meta":{"profile":["http://hl7.org/fhir/us/qicore/StructureDefinition/qicore-encounter"]},"status":"finished","class":{"system":"http://terminology.hl7.org/CodeSystem/v3-ActCode","code":"EMER","display":"emergency department"},"type":[{"coding":[{"system":"http://snomed.info/sct","version":"2023-09","code":"4525004","display":"Emergency department patient visit (procedure)","userSelected":true}]}],"subject":{"reference":"Patient/7dd19e80-23c6-4e31-86a9-bb833cfc676b"},"period":{"start":"2027-05-01T06:00:00.000+00:00","end":"2027-05-01T14:01:00.000+00:00"},"diagnosis":[{"condition":{"reference":"Condition/95522e44-1785-4151-a661-523979c07ef4"},"use":{"coding":[{"system":"http://terminology.hl7.org/CodeSystem/diagnosis-role","code":"billing"}]},"rank":1}],"location":[{"location":{"reference":"Location/d98f137f-a5d1-4397-86f3-f531b4f11137"},"period":{"start":"2027-05-01T06:00:00.000+00:00","end":"2027-05-01T14:00:00.000+00:00"}}]},"request":{"method":"PUT","url":"Encounter/0d4477a6-360e-40ee-810b-6ee1f07e34f2"}},{"fullUrl":"https://madie.cms.gov/Location/d98f137f-a5d1-4397-86f3-f531b4f11137","resource":{"resourceType":"Location","id":"d98f137f-a5d1-4397-86f3-f531b4f11137","meta":{"profile":["http://hl7.org/fhir/us/qicore/StructureDefinition/qicore-location"]},"identifier":[{"use":"usual","system":"http://exampleoflocation.com","value":"B1-S.F2"}],"name":"Emergency Department","type":[{"coding":[{"system":"https://www.cdc.gov/nhsn/cdaportal/terminology/codesystem/hsloc.html","version":"2022","code":"1108-0","display":"Emergency Department","userSelected":true}]}]},"request":{"method":"PUT","url":"Location/d98f137f-a5d1-4397-86f3-f531b4f11137"}},{"fullUrl":"https://madie.cms.gov/Condition/95522e44-1785-4151-a661-523979c07ef4","resource":{"resourceType":"Condition","id":"95522e44-1785-4151-a661-523979c07ef4","meta":{"profile":["http://hl7.org/fhir/us/qicore/StructureDefinition/qicore-condition-encounter-diagnosis"]},"category":[{"coding":[{"system":"http://terminology.hl7.org/CodeSystem/condition-category","code":"encounter-diagnosis","display":"Encounter Diagnosis"}]}],"code":{"coding":[{"system":"http://snomed.info/sct","version":"2023-09","code":"10660471000119109","display":"Ulcer of left foot due to type 2 diabetes mellitus (disorder)","userSelected":true}]},"subject":{"reference":"Patient/7dd19e80-23c6-4e31-86a9-bb833cfc676b"},"recordedDate":"2027-05-01T08:00:00.000+00:00"},"request":{"method":"PUT","url":"Condition/95522e44-1785-4151-a661-523979c07ef4"}},{"fullUrl":"https://madie.cms.gov/claim/ClaimBehavior-NotSubsAbuse","resource":{"resourceType":"Claim","id":"ClaimBehavior-NotSubsAbuse","meta":{"profile":["http://hl7.org/fhir/us/qicore/StructureDefinition/qicore-claim"]},"status":"active","type":{"coding":[{"system":"http://terminology.hl7.org/CodeSystem/claim-type","code":"institutional"}]},"use":"claim","patient":{"reference":"Patient/7dd19e80-23c6-4e31-86a9-bb833cfc676b"},"created":"2027-05-01","provider":{"reference":"Practitioner/practitioner-123456"},"priority":{"coding":[{"system":"http://terminology.hl7.org/CodeSystem/processpriority","code":"normal"}]},"diagnosis":[{"sequence":1,"diagnosisReference":{"reference":"Condition/95522e44-1785-4151-a661-523979c07ef4"},"type":[{"coding":[{"system":"http://terminology.hl7.org/CodeSystem/ex-diagnosistype","code":"principal"}]}]}],"insurance":[{"sequence":1,"focal":true,"coverage":{"reference":"Coverage/1"}}],"item":[{"sequence":1,"diagnosisSequence":[1],"productOrService":{"coding":[{"system":"http://terminology.hl7.org/CodeSystem/ex-USCLS","code":"99555"}]},"encounter":[{"reference":"Encounter/0d4477a6-360e-40ee-810b-6ee1f07e34f2"}]}]},"request":{"method":"PUT","url":"Claim/ClaimBehavior-NotSubsAbuse"}},{"fullUrl":"https://madie.cms.gov/Coverage/b47c6fee-5eab-4649-a9f1-4a764225d3d9","resource":{"resourceType":"Coverage","id":"b47c6fee-5eab-4649-a9f1-4a764225d3d9","meta":{"profile":["http://hl7.org/fhir/us/qicore/StructureDefinition/qicore-coverage"]},"identifier":[{"type":{"coding":[{"system":"http://terminology.hl7.org/CodeSystem/v2-0203","code":"MB"}]}}],"status":"active","beneficiary":{"reference":"Patient/7dd19e80-23c6-4e31-86a9-bb833cfc676b"},"relationship":{"coding":[{"system":"http://terminology.hl7.org/CodeSystem/subscriber-relationship","code":"self"}]},"payor":[{"reference":"Organization/75a976d0-1150-47e8-9d0b-45103d57a6ac"}]},"request":{"method":"PUT","url":"Coverage/b47c6fee-5eab-4649-a9f1-4a764225d3d9"}},{"fullUrl":"https://madie.cms.gov/Organization/75a976d0-1150-47e8-9d0b-45103d57a6ac","resource":{"resourceType":"Organization","id":"75a976d0-1150-47e8-9d0b-45103d57a6ac","meta":{"profile":["http://hl7.org/fhir/us/qicore/StructureDefinition/qicore-organization"]},"identifier":[{"use":"temp","system":"urn:oid:2.16.840.1.113883.4.4","value":"21-3259825"}],"active":true,"type":[{"coding":[{"system":"http://terminology.hl7.org/CodeSystem/organization-type","code":"pay","display":"Payer"}]}],"name":"Blue Cross Blue Shield of Texas","telecom":[{"system":"phone","value":"(+1) 972-766-6900"}],"address":[{"use":"billing","type":"postal","line":["P.O. Box 660044"],"city":"Dallas","state":"TX","postalCode":"75266-0044","country":"USA"}]},"request":{"method":"PUT","url":"Organization/75a976d0-1150-47e8-9d0b-45103d57a6ac"}},{"fullUrl":"https://madie.cms.gov/Practitioner/2dd3f76c-b658-4de9-a145-fb83c68f6b98","resource":{"resourceType":"Practitioner","id":"2dd3f76c-b658-4de9-a145-fb83c68f6b98","meta":{"profile":["http://hl7.org/fhir/us/qicore/StructureDefinition/qicore-practitioner"]},"identifier":[{"system":"http://hl7.org/fhir/sid/us-npi","value":"9999999896"}],"name":[{"family":"Evil","prefix":["Dr"]}]},"request":{"method":"PUT","url":"Practitioner/2dd3f76c-b658-4de9-a145-fb83c68f6b98"}},{"fullUrl":"https://madie.cms.gov/MeasureReport/e42ee228-148f-49b9-8076-05d4f12e6c9d","resource":{"resourceType":"MeasureReport","id":"e42ee228-148f-49b9-8076-05d4f12e6c9d","meta":{"profile":["http://hl7.org/fhir/us/cqfmeasures/StructureDefinition/test-case-cqfm"]},"contained":[{"resourceType":"Parameters","id":"0b96f418-89f8-4e64-9985-2b466a5011b0-parameters","parameter":[{"name":"subject","valueString":"7dd19e80-23c6-4e31-86a9-bb833cfc676b"}]}],"extension":[{"url":"http://hl7.org/fhir/StructureDefinition/cqf-inputParameters","valueReference":{"reference":"#0b96f418-89f8-4e64-9985-2b466a5011b0-parameters"}},{"url":"http://hl7.org/fhir/us/cqfmeasures/StructureDefinition/cqfm-testCaseDescription","valueMarkdown":"ED enc first day of MP lasting 481 minutes (start to end) but ED LOS 480 (arrival to departure)"}],"modifierExtension":[{"url":"http://hl7.org/fhir/us/cqfmeasures/StructureDefinition/cqfm-isTestCase","valueBoolean":true}],"status":"complete","type":"individual","measure":"https://madie.cms.gov/Measure/CMS1264FHIRECATREHQR","period":{"start":"2027-01-01","end":"2027-12-31"},"group":[{"id":"Group_1","population":[{"id":"InitialPopulation_1","code":{"coding":[{"system":"http://terminology.hl7.org/CodeSystem/measure-population","code":"initial-population","display":"Initial Population"}]},"count":1},{"id":"Denominator_1","code":{"coding":[{"system":"http://terminology.hl7.org/CodeSystem/measure-population","code":"denominator","display":"Denominator"}]},"count":1},{"id":"Numerator_1","code":{"coding":[{"system":"http://terminology.hl7.org/CodeSystem/measure-population","code":"numerator","display":"Numerator"}]},"count":0}],"measureScore":{"value":0.0},"stratifier":[{"id":"Stratification_1_1","code":[{"text":"Strata-1"}],"stratum":[{"value":{"text":"Strata-1"},"population":[{"id":"InitialPopulation_1","code":{"coding":[{"system":"http://terminology.hl7.org/CodeSystem/measure-population","code":"initial-population","display":"Initial Population"}]},"count":0},{"id":"Denominator_1","code":{"coding":[{"system":"http://terminology.hl7.org/CodeSystem/measure-population","code":"denominator","display":"Denominator"}]},"count":0},{"id":"Numerator_1","code":{"coding":[{"system":"http://terminology.hl7.org/CodeSystem/measure-population","code":"numerator","display":"Numerator"}]},"count":0}]}]},{"id":"Stratification_1_2","code":[{"text":"Strata-2"}],"stratum":[{"value":{"text":"Strata-2"},"population":[{"id":"InitialPopulation_1","code":{"coding":[{"system":"http://terminology.hl7.org/CodeSystem/measure-population","code":"initial-population","display":"Initial Population"}]},"count":1},{"id":"Denominator_1","code":{"coding":[{"system":"http://terminology.hl7.org/CodeSystem/measure-population","code":"denominator","display":"Denominator"}]},"count":1},{"id":"Numerator_1","code":{"coding":[{"system":"http://terminology.hl7.org/CodeSystem/measure-population","code":"numerator","display":"Numerator"}]},"count":0}]}]},{"id":"Stratification_1_3","code":[{"text":"Strata-3"}],"stratum":[{"value":{"text":"Strata-3"},"population":[{"id":"InitialPopulation_1","code":{"coding":[{"system":"http://terminology.hl7.org/CodeSystem/measure-population","code":"initial-population","display":"Initial Population"}]},"count":0},{"id":"Denominator_1","code":{"coding":[{"system":"http://terminology.hl7.org/CodeSystem/measure-population","code":"denominator","display":"Denominator"}]},"count":0},{"id":"Numerator_1","code":{"coding":[{"system":"http://terminology.hl7.org/CodeSystem/measure-population","code":"numerator","display":"Numerator"}]},"count":0}]}]},{"id":"Stratification_1_4","code":[{"text":"Strata-4"}],"stratum":[{"value":{"text":"Strata-4"},"population":[{"id":"InitialPopulation_1","code":{"coding":[{"system":"http://terminology.hl7.org/CodeSystem/measure-population","code":"initial-population","display":"Initial Population"}]},"count":0},{"id":"Denominator_1","code":{"coding":[{"system":"http://terminology.hl7.org/CodeSystem/measure-population","code":"denominator","display":"Denominator"}]},"count":0},{"id":"Numerator_1","code":{"coding":[{"system":"http://terminology.hl7.org/CodeSystem/measure-population","code":"numerator","display":"Numerator"}]},"count":0}]}]}]}],"evaluatedResource":[{"reference":"Patient/7dd19e80-23c6-4e31-86a9-bb833cfc676b"},{"reference":"Encounter/0d4477a6-360e-40ee-810b-6ee1f07e34f2"},{"reference":"Location/d98f137f-a5d1-4397-86f3-f531b4f11137"},{"reference":"Condition/95522e44-1785-4151-a661-523979c07ef4"},{"reference":"Claim/ClaimBehavior-NotSubsAbuse"},{"reference":"Coverage/b47c6fee-5eab-4649-a9f1-4a764225d3d9"},{"reference":"Organization/75a976d0-1150-47e8-9d0b-45103d57a6ac"},{"reference":"Practitioner/2dd3f76c-b658-4de9-a145-fb83c68f6b98"}]},"request":{"method":"PUT","url":"MeasureReport/e42ee228-148f-49b9-8076-05d4f12e6c9d"}}]},"request":{"method":"PUT","url":"Bundle/661476b015ed5841a5547ebf"}},{"fullUrl":"Coverage/b47c6fee-5eab-4649-a9f1-4a764225d3d9","resource":{"resourceType":"Coverage","id":"b47c6fee-5eab-4649-a9f1-4a764225d3d9","meta":{"profile":["http://hl7.org/fhir/us/qicore/StructureDefinition/qicore-coverage"]},"identifier":[{"type":{"coding":[{"system":"http://terminology.hl7.org/CodeSystem/v2-0203","code":"MB"}]}}],"status":"active","beneficiary":{"reference":"Patient/7dd19e80-23c6-4e31-86a9-bb833cfc676b"},"relationship":{"coding":[{"system":"http://terminology.hl7.org/CodeSystem/subscriber-relationship","code":"self"}]},"payor":[{"reference":"Organization/75a976d0-1150-47e8-9d0b-45103d57a6ac"}]},"request":{"method":"PUT","url":"Coverage/b47c6fee-5eab-4649-a9f1-4a764225d3d9"}}]}