{"resourceType":"Bundle","id":"tests-dac89c3d-536e-4dca-9871-570a0bcd8d16-bundle","type":"transaction","entry":[{"resource":{"resourceType":"Organization","id":"68bd8a03-6dc5-4191-bc40-7441daab5a22","meta":{"profile":["http://hl7.org/fhir/us/qicore/StructureDefinition/qicore-organization"]},"identifier":[{"use":"temp","system":"urn:oid:2.16.840.1.113883.4.4","value":"21-3259825"}],"active":true,"type":[{"coding":[{"system":"http://terminology.hl7.org/CodeSystem/organization-type","code":"pay","display":"Payer"}]}],"name":"Blue Cross Blue Shield of Texas","telecom":[{"system":"phone","value":"(+1) 972-766-6900"}],"address":[{"use":"billing","type":"postal","line":["P.O. Box 660044"],"city":"Dallas","state":"TX","postalCode":"75266-0044","country":"USA"}]},"request":{"method":"PUT","url":"Organization/68bd8a03-6dc5-4191-bc40-7441daab5a22"}},{"resource":{"resourceType":"Encounter","id":"e6c66ea7-b723-4617-a858-6a1f9b6a63ea","meta":{"profile":["http://hl7.org/fhir/us/qicore/StructureDefinition/qicore-encounter"]},"status":"finished","class":{"system":"http://terminology.hl7.org/CodeSystem/v3-ActCode","code":"EMER","display":"emergency department"},"type":[{"coding":[{"system":"http://snomed.info/sct","version":"2023-09","code":"4525004","display":"Emergency department patient visit (procedure)","userSelected":true}]}],"subject":{"reference":"Patient/dac89c3d-536e-4dca-9871-570a0bcd8d16"},"period":{"start":"2027-04-01T06:00:00.000+00:00","end":"2027-04-01T14:01:00.000+00:00"},"diagnosis":[{"condition":{"reference":"Condition/aac2617c-2324-44a9-8176-81fb59573687"},"use":{"coding":[{"system":"http://terminology.hl7.org/CodeSystem/diagnosis-role","code":"billing"}]},"rank":1}],"location":[{"location":{"reference":"Location/f97d2e2a-9608-4b02-91f4-3f67674f5f62"},"period":{"start":"2027-04-01T06:00:00.000+00:00","end":"2027-04-01T14:01:00.000+00:00"}}]},"request":{"method":"PUT","url":"Encounter/e6c66ea7-b723-4617-a858-6a1f9b6a63ea"}},{"resource":{"resourceType":"Claim","id":"ClaimBehavior-NotSubsAbuse2","meta":{"profile":["http://hl7.org/fhir/us/qicore/StructureDefinition/qicore-claim"]},"status":"active","type":{"coding":[{"system":"http://terminology.hl7.org/CodeSystem/claim-type","code":"institutional"}]},"use":"claim","patient":{"reference":"Patient/dac89c3d-536e-4dca-9871-570a0bcd8d16"},"created":"2027-04-01","provider":{"reference":"Practitioner/practitioner-123456"},"priority":{"coding":[{"system":"http://terminology.hl7.org/CodeSystem/processpriority","code":"normal"}]},"diagnosis":[{"sequence":1,"diagnosisReference":{"reference":"Condition/aac2617c-2324-44a9-8176-81fb59573687"},"type":[{"coding":[{"system":"http://terminology.hl7.org/CodeSystem/ex-diagnosistype","code":"principal"}]}]}],"insurance":[{"sequence":1,"focal":true,"coverage":{"reference":"Coverage/1"}}],"item":[{"sequence":1,"diagnosisSequence":[1],"productOrService":{"coding":[{"system":"http://terminology.hl7.org/CodeSystem/ex-USCLS","code":"99555"}]},"encounter":[{"reference":"Encounter/e6c66ea7-b723-4617-a858-6a1f9b6a63ea"}]}]},"request":{"method":"PUT","url":"Claim/ClaimBehavior-NotSubsAbuse2"}},{"resource":{"resourceType":"Condition","id":"aac2617c-2324-44a9-8176-81fb59573687","meta":{"profile":["http://hl7.org/fhir/us/qicore/StructureDefinition/qicore-condition-encounter-diagnosis"]},"category":[{"coding":[{"system":"http://terminology.hl7.org/CodeSystem/condition-category","code":"encounter-diagnosis","display":"Encounter Diagnosis"}]}],"code":{"coding":[{"system":"http://snomed.info/sct","version":"2023-09","code":"10660471000119109","display":"Ulcer of left foot due to type 2 diabetes mellitus (disorder)","userSelected":true}]},"subject":{"reference":"Patient/dac89c3d-536e-4dca-9871-570a0bcd8d16"},"recordedDate":"2027-05-01T08:00:00.000+00:00"},"request":{"method":"PUT","url":"Condition/aac2617c-2324-44a9-8176-81fb59573687"}},{"resource":{"resourceType":"Encounter","id":"d11f861d-c53b-4201-a7d7-20f7ce030c54","meta":{"profile":["http://hl7.org/fhir/us/qicore/StructureDefinition/qicore-encounter"]},"status":"finished","class":{"system":"http://terminology.hl7.org/CodeSystem/v3-ActCode","code":"EMER","display":"emergency department"},"type":[{"coding":[{"system":"http://snomed.info/sct","version":"2023-09","code":"4525004","display":"Emergency department patient visit (procedure)","userSelected":true}]}],"subject":{"reference":"Patient/dac89c3d-536e-4dca-9871-570a0bcd8d16"},"period":{"start":"2027-05-01T06:00:00.000+00:00","end":"2027-05-01T14:01:00.000+00:00"},"diagnosis":[{"condition":{"reference":"Condition/aac2617c-2324-44a9-8176-81fb59573687"},"use":{"coding":[{"system":"http://terminology.hl7.org/CodeSystem/diagnosis-role","code":"billing"}]},"rank":1}],"location":[{"location":{"reference":"Location/f97d2e2a-9608-4b02-91f4-3f67674f5f62"},"period":{"start":"2027-05-01T06:00:00.000+00:00","end":"2027-05-01T14:01:00.000+00:00"}}]},"request":{"method":"PUT","url":"Encounter/d11f861d-c53b-4201-a7d7-20f7ce030c54"}},{"resource":{"resourceType":"Patient","id":"dac89c3d-536e-4dca-9871-570a0bcd8d16","meta":{"profile":["http://hl7.org/fhir/us/qicore/StructureDefinition/qicore-patient"]},"extension":[{"url":"http://hl7.org/fhir/us/core/StructureDefinition/us-core-race","extension":[{"url":"ombCategory","valueCoding":{"system":"urn:oid:2.16.840.1.113883.6.238","code":"1002-5","display":"American Indian or Alaska Native","userSelected":true}},{"url":"text","valueString":"American Indian or Alaska Native"}]},{"url":"http://hl7.org/fhir/us/core/StructureDefinition/us-core-ethnicity","extension":[{"url":"ombCategory","valueCoding":{"system":"urn:oid:2.16.840.1.113883.6.238","code":"2135-2","display":"Hispanic or Latino","userSelected":true}},{"url":"text","valueString":"Hispanic or Latino"}]},{"url":"http://hl7.org/fhir/us/core/StructureDefinition/us-core-sex","valueCode":"248153007"}],"identifier":[{"type":{"coding":[{"system":"http://terminology.hl7.org/CodeSystem/v2-0203","code":"MR"}]},"system":"https://bonnie-fhir.healthit.gov/","value":"661476b015ed5841a5547ebf"}],"name":[{"family":"NUMERStrat1Pass","given":["MultipleEncGreaterThan480Min"]}],"gender":"male","birthDate":"2011-01-01"},"request":{"method":"PUT","url":"Patient/dac89c3d-536e-4dca-9871-570a0bcd8d16"}},{"resource":{"resourceType":"MeasureReport","id":"c957ff1d-e214-41d2-ae39-7f9bfd7b4206","meta":{"profile":["http://hl7.org/fhir/us/cqfmeasures/StructureDefinition/test-case-cqfm"]},"contained":[{"resourceType":"Parameters","id":"d4a4caaf-4191-4449-b655-1955882a08cc-parameters","parameter":[{"name":"subject","valueString":"dac89c3d-536e-4dca-9871-570a0bcd8d16"}]}],"extension":[{"url":"http://hl7.org/fhir/StructureDefinition/cqf-inputParameters","valueReference":{"reference":"#d4a4caaf-4191-4449-b655-1955882a08cc-parameters"}},{"url":"http://hl7.org/fhir/us/cqfmeasures/StructureDefinition/cqfm-testCaseDescription","valueMarkdown":"Encounter in May and Encounter in April, both greater than 480 minutes, both pass numerator. Adolescent, no mental health diagnosis."}],"modifierExtension":[{"url":"http://hl7.org/fhir/us/cqfmeasures/StructureDefinition/cqfm-isTestCase","valueBoolean":true}],"status":"complete","type":"individual","measure":"https://madie.cms.gov/Measure/CMS1264FHIRECATREHQR","period":{"start":"2027-01-01","end":"2027-12-31"},"group":[{"id":"Group_1","population":[{"id":"InitialPopulation_1","code":{"coding":[{"system":"http://terminology.hl7.org/CodeSystem/measure-population","code":"initial-population","display":"Initial Population"}]},"count":2},{"id":"Denominator_1","code":{"coding":[{"system":"http://terminology.hl7.org/CodeSystem/measure-population","code":"denominator","display":"Denominator"}]},"count":2},{"id":"Numerator_1","code":{"coding":[{"system":"http://terminology.hl7.org/CodeSystem/measure-population","code":"numerator","display":"Numerator"}]},"count":2}],"measureScore":{"value":0.0},"stratifier":[{"id":"Stratification_1_1","code":[{"text":"Strata-1"}],"stratum":[{"value":{"text":"Strata-1"},"population":[{"id":"InitialPopulation_1","code":{"coding":[{"system":"http://terminology.hl7.org/CodeSystem/measure-population","code":"initial-population","display":"Initial Population"}]},"count":2},{"id":"Denominator_1","code":{"coding":[{"system":"http://terminology.hl7.org/CodeSystem/measure-population","code":"denominator","display":"Denominator"}]},"count":2},{"id":"Numerator_1","code":{"coding":[{"system":"http://terminology.hl7.org/CodeSystem/measure-population","code":"numerator","display":"Numerator"}]},"count":2}]}]},{"id":"Stratification_1_2","code":[{"text":"Strata-2"}],"stratum":[{"value":{"text":"Strata-2"},"population":[{"id":"InitialPopulation_1","code":{"coding":[{"system":"http://terminology.hl7.org/CodeSystem/measure-population","code":"initial-population","display":"Initial Population"}]},"count":0},{"id":"Denominator_1","code":{"coding":[{"system":"http://terminology.hl7.org/CodeSystem/measure-population","code":"denominator","display":"Denominator"}]},"count":0},{"id":"Numerator_1","code":{"coding":[{"system":"http://terminology.hl7.org/CodeSystem/measure-population","code":"numerator","display":"Numerator"}]},"count":0}]}]},{"id":"Stratification_1_3","code":[{"text":"Strata-3"}],"stratum":[{"value":{"text":"Strata-3"},"population":[{"id":"InitialPopulation_1","code":{"coding":[{"system":"http://terminology.hl7.org/CodeSystem/measure-population","code":"initial-population","display":"Initial Population"}]},"count":0},{"id":"Denominator_1","code":{"coding":[{"system":"http://terminology.hl7.org/CodeSystem/measure-population","code":"denominator","display":"Denominator"}]},"count":0},{"id":"Numerator_1","code":{"coding":[{"system":"http://terminology.hl7.org/CodeSystem/measure-population","code":"numerator","display":"Numerator"}]},"count":0}]}]},{"id":"Stratification_1_4","code":[{"text":"Strata-4"}],"stratum":[{"value":{"text":"Strata-4"},"population":[{"id":"InitialPopulation_1","code":{"coding":[{"system":"http://terminology.hl7.org/CodeSystem/measure-population","code":"initial-population","display":"Initial Population"}]},"count":0},{"id":"Denominator_1","code":{"coding":[{"system":"http://terminology.hl7.org/CodeSystem/measure-population","code":"denominator","display":"Denominator"}]},"count":0},{"id":"Numerator_1","code":{"coding":[{"system":"http://terminology.hl7.org/CodeSystem/measure-population","code":"numerator","display":"Numerator"}]},"count":0}]}]}]}],"evaluatedResource":[{"reference":"Patient/dac89c3d-536e-4dca-9871-570a0bcd8d16"},{"reference":"Encounter/d11f861d-c53b-4201-a7d7-20f7ce030c54"},{"reference":"Encounter/e6c66ea7-b723-4617-a858-6a1f9b6a63ea"},{"reference":"Condition/aac2617c-2324-44a9-8176-81fb59573687"},{"reference":"Location/f97d2e2a-9608-4b02-91f4-3f67674f5f62"},{"reference":"Claim/ClaimBehavior-NotSubsAbuse"},{"reference":"Claim/ClaimBehavior-NotSubsAbuse2"},{"reference":"Coverage/4a7e9fe5-6548-4511-a0a1-f5e48a7ea093"},{"reference":"Organization/68bd8a03-6dc5-4191-bc40-7441daab5a22"},{"reference":"Practitioner/114a96b3-4f5a-4d11-99f6-6283d0ca101c"}]},"request":{"method":"PUT","url":"MeasureReport/c957ff1d-e214-41d2-ae39-7f9bfd7b4206"}},{"resource":{"resourceType":"Bundle","id":"661476b015ed5841a5547ebf","type":"transaction","entry":[{"fullUrl":"https://madie.cms.gov/Patient/dac89c3d-536e-4dca-9871-570a0bcd8d16","resource":{"resourceType":"Patient","id":"dac89c3d-536e-4dca-9871-570a0bcd8d16","meta":{"profile":["http://hl7.org/fhir/us/qicore/StructureDefinition/qicore-patient"]},"extension":[{"url":"http://hl7.org/fhir/us/core/StructureDefinition/us-core-race","extension":[{"url":"ombCategory","valueCoding":{"system":"urn:oid:2.16.840.1.113883.6.238","code":"1002-5","display":"American Indian or Alaska Native","userSelected":true}},{"url":"text","valueString":"American Indian or Alaska Native"}]},{"url":"http://hl7.org/fhir/us/core/StructureDefinition/us-core-ethnicity","extension":[{"url":"ombCategory","valueCoding":{"system":"urn:oid:2.16.840.1.113883.6.238","code":"2135-2","display":"Hispanic or Latino","userSelected":true}},{"url":"text","valueString":"Hispanic or Latino"}]},{"url":"http://hl7.org/fhir/us/core/StructureDefinition/us-core-sex","valueCode":"248153007"}],"identifier":[{"type":{"coding":[{"system":"http://terminology.hl7.org/CodeSystem/v2-0203","code":"MR"}]},"system":"https://bonnie-fhir.healthit.gov/","value":"661476b015ed5841a5547ebf"}],"name":[{"family":"NUMERStrat1Pass","given":["MultipleEncGreaterThan480Min"]}],"gender":"male","birthDate":"2011-01-01"},"request":{"method":"PUT","url":"Patient/dac89c3d-536e-4dca-9871-570a0bcd8d16"}},{"fullUrl":"https://madie.cms.gov/Encounter/d11f861d-c53b-4201-a7d7-20f7ce030c54","resource":{"resourceType":"Encounter","id":"d11f861d-c53b-4201-a7d7-20f7ce030c54","meta":{"profile":["http://hl7.org/fhir/us/qicore/StructureDefinition/qicore-encounter"]},"status":"finished","class":{"system":"http://terminology.hl7.org/CodeSystem/v3-ActCode","code":"EMER","display":"emergency department"},"type":[{"coding":[{"system":"http://snomed.info/sct","version":"2023-09","code":"4525004","display":"Emergency department patient visit (procedure)","userSelected":true}]}],"subject":{"reference":"Patient/dac89c3d-536e-4dca-9871-570a0bcd8d16"},"period":{"start":"2027-05-01T06:00:00.000+00:00","end":"2027-05-01T14:01:00.000+00:00"},"diagnosis":[{"condition":{"reference":"Condition/aac2617c-2324-44a9-8176-81fb59573687"},"use":{"coding":[{"system":"http://terminology.hl7.org/CodeSystem/diagnosis-role","code":"billing"}]},"rank":1}],"location":[{"location":{"reference":"Location/f97d2e2a-9608-4b02-91f4-3f67674f5f62"},"period":{"start":"2027-05-01T06:00:00.000+00:00","end":"2027-05-01T14:01:00.000+00:00"}}]},"request":{"method":"PUT","url":"Encounter/d11f861d-c53b-4201-a7d7-20f7ce030c54"}},{"fullUrl":"https://madie.cms.gov/Encounter/e6c66ea7-b723-4617-a858-6a1f9b6a63ea","resource":{"resourceType":"Encounter","id":"e6c66ea7-b723-4617-a858-6a1f9b6a63ea","meta":{"profile":["http://hl7.org/fhir/us/qicore/StructureDefinition/qicore-encounter"]},"status":"finished","class":{"system":"http://terminology.hl7.org/CodeSystem/v3-ActCode","code":"EMER","display":"emergency department"},"type":[{"coding":[{"system":"http://snomed.info/sct","version":"2023-09","code":"4525004","display":"Emergency department patient visit (procedure)","userSelected":true}]}],"subject":{"reference":"Patient/dac89c3d-536e-4dca-9871-570a0bcd8d16"},"period":{"start":"2027-04-01T06:00:00.000+00:00","end":"2027-04-01T14:01:00.000+00:00"},"diagnosis":[{"condition":{"reference":"Condition/aac2617c-2324-44a9-8176-81fb59573687"},"use":{"coding":[{"system":"http://terminology.hl7.org/CodeSystem/diagnosis-role","code":"billing"}]},"rank":1}],"location":[{"location":{"reference":"Location/f97d2e2a-9608-4b02-91f4-3f67674f5f62"},"period":{"start":"2027-04-01T06:00:00.000+00:00","end":"2027-04-01T14:01:00.000+00:00"}}]},"request":{"method":"PUT","url":"Encounter/e6c66ea7-b723-4617-a858-6a1f9b6a63ea"}},{"fullUrl":"https://madie.cms.gov/Condition/aac2617c-2324-44a9-8176-81fb59573687","resource":{"resourceType":"Condition","id":"aac2617c-2324-44a9-8176-81fb59573687","meta":{"profile":["http://hl7.org/fhir/us/qicore/StructureDefinition/qicore-condition-encounter-diagnosis"]},"category":[{"coding":[{"system":"http://terminology.hl7.org/CodeSystem/condition-category","code":"encounter-diagnosis","display":"Encounter Diagnosis"}]}],"code":{"coding":[{"system":"http://snomed.info/sct","version":"2023-09","code":"10660471000119109","display":"Ulcer of left foot due to type 2 diabetes mellitus (disorder)","userSelected":true}]},"subject":{"reference":"Patient/dac89c3d-536e-4dca-9871-570a0bcd8d16"},"recordedDate":"2027-05-01T08:00:00.000+00:00"},"request":{"method":"PUT","url":"Condition/aac2617c-2324-44a9-8176-81fb59573687"}},{"fullUrl":"https://madie.cms.gov/Location/f97d2e2a-9608-4b02-91f4-3f67674f5f62","resource":{"resourceType":"Location","id":"f97d2e2a-9608-4b02-91f4-3f67674f5f62","meta":{"profile":["http://hl7.org/fhir/us/qicore/StructureDefinition/qicore-location"]},"identifier":[{"use":"usual","system":"http://exampleoflocation.com","value":"B1-S.F2"}],"name":"Medical Surgical East, first floor","type":[{"coding":[{"system":"https://www.cdc.gov/nhsn/cdaportal/terminology/codesystem/hsloc.html","version":"2022","code":"1108-0","display":"Emergency Department","userSelected":true}]}]},"request":{"method":"PUT","url":"Location/f97d2e2a-9608-4b02-91f4-3f67674f5f62"}},{"fullUrl":"https://madie.cms.gov/claim/ClaimBehavior-NotSubsAbuse","resource":{"resourceType":"Claim","id":"ClaimBehavior-NotSubsAbuse","meta":{"profile":["http://hl7.org/fhir/us/qicore/StructureDefinition/qicore-claim"]},"status":"active","type":{"coding":[{"system":"http://terminology.hl7.org/CodeSystem/claim-type","code":"institutional"}]},"use":"claim","patient":{"reference":"Patient/dac89c3d-536e-4dca-9871-570a0bcd8d16"},"created":"2027-05-01","provider":{"reference":"Practitioner/practitioner-123456"},"priority":{"coding":[{"system":"http://terminology.hl7.org/CodeSystem/processpriority","code":"normal"}]},"diagnosis":[{"sequence":1,"diagnosisReference":{"reference":"Condition/aac2617c-2324-44a9-8176-81fb59573687"},"type":[{"coding":[{"system":"http://terminology.hl7.org/CodeSystem/ex-diagnosistype","code":"principal"}]}]}],"insurance":[{"sequence":1,"focal":true,"coverage":{"reference":"Coverage/1"}}],"item":[{"sequence":1,"diagnosisSequence":[1],"productOrService":{"coding":[{"system":"http://terminology.hl7.org/CodeSystem/ex-USCLS","code":"99555"}]},"encounter":[{"reference":"Encounter/d11f861d-c53b-4201-a7d7-20f7ce030c54"}]}]},"request":{"method":"PUT","url":"Claim/ClaimBehavior-NotSubsAbuse"}},{"fullUrl":"https://madie.cms.gov/claim/ClaimBehavior-NotSubsAbuse2","resource":{"resourceType":"Claim","id":"ClaimBehavior-NotSubsAbuse2","meta":{"profile":["http://hl7.org/fhir/us/qicore/StructureDefinition/qicore-claim"]},"status":"active","type":{"coding":[{"system":"http://terminology.hl7.org/CodeSystem/claim-type","code":"institutional"}]},"use":"claim","patient":{"reference":"Patient/dac89c3d-536e-4dca-9871-570a0bcd8d16"},"created":"2027-04-01","provider":{"reference":"Practitioner/practitioner-123456"},"priority":{"coding":[{"system":"http://terminology.hl7.org/CodeSystem/processpriority","code":"normal"}]},"diagnosis":[{"sequence":1,"diagnosisReference":{"reference":"Condition/aac2617c-2324-44a9-8176-81fb59573687"},"type":[{"coding":[{"system":"http://terminology.hl7.org/CodeSystem/ex-diagnosistype","code":"principal"}]}]}],"insurance":[{"sequence":1,"focal":true,"coverage":{"reference":"Coverage/1"}}],"item":[{"sequence":1,"diagnosisSequence":[1],"productOrService":{"coding":[{"system":"http://terminology.hl7.org/CodeSystem/ex-USCLS","code":"99555"}]},"encounter":[{"reference":"Encounter/e6c66ea7-b723-4617-a858-6a1f9b6a63ea"}]}]},"request":{"method":"PUT","url":"Claim/ClaimBehavior-NotSubsAbuse2"}},{"fullUrl":"https://madie.cms.gov/Coverage/4a7e9fe5-6548-4511-a0a1-f5e48a7ea093","resource":{"resourceType":"Coverage","id":"4a7e9fe5-6548-4511-a0a1-f5e48a7ea093","meta":{"profile":["http://hl7.org/fhir/us/qicore/StructureDefinition/qicore-coverage"]},"identifier":[{"type":{"coding":[{"system":"http://terminology.hl7.org/CodeSystem/v2-0203","code":"MB"}]}}],"status":"active","beneficiary":{"reference":"Patient/dac89c3d-536e-4dca-9871-570a0bcd8d16"},"relationship":{"coding":[{"system":"http://terminology.hl7.org/CodeSystem/subscriber-relationship","code":"self"}]},"payor":[{"reference":"Organization/68bd8a03-6dc5-4191-bc40-7441daab5a22"}]},"request":{"method":"PUT","url":"Coverage/4a7e9fe5-6548-4511-a0a1-f5e48a7ea093"}},{"fullUrl":"https://madie.cms.gov/Organization/68bd8a03-6dc5-4191-bc40-7441daab5a22","resource":{"resourceType":"Organization","id":"68bd8a03-6dc5-4191-bc40-7441daab5a22","meta":{"profile":["http://hl7.org/fhir/us/qicore/StructureDefinition/qicore-organization"]},"identifier":[{"use":"temp","system":"urn:oid:2.16.840.1.113883.4.4","value":"21-3259825"}],"active":true,"type":[{"coding":[{"system":"http://terminology.hl7.org/CodeSystem/organization-type","code":"pay","display":"Payer"}]}],"name":"Blue Cross Blue Shield of Texas","telecom":[{"system":"phone","value":"(+1) 972-766-6900"}],"address":[{"use":"billing","type":"postal","line":["P.O. Box 660044"],"city":"Dallas","state":"TX","postalCode":"75266-0044","country":"USA"}]},"request":{"method":"PUT","url":"Organization/68bd8a03-6dc5-4191-bc40-7441daab5a22"}},{"fullUrl":"https://madie.cms.gov/Practitioner/114a96b3-4f5a-4d11-99f6-6283d0ca101c","resource":{"resourceType":"Practitioner","id":"114a96b3-4f5a-4d11-99f6-6283d0ca101c","meta":{"profile":["http://hl7.org/fhir/us/qicore/StructureDefinition/qicore-practitioner"]},"identifier":[{"system":"http://hl7.org/fhir/sid/us-npi","value":"9999999896"}],"name":[{"family":"Evil","prefix":["Dr"]}]},"request":{"method":"PUT","url":"Practitioner/114a96b3-4f5a-4d11-99f6-6283d0ca101c"}},{"fullUrl":"https://madie.cms.gov/MeasureReport/c957ff1d-e214-41d2-ae39-7f9bfd7b4206","resource":{"resourceType":"MeasureReport","id":"c957ff1d-e214-41d2-ae39-7f9bfd7b4206","meta":{"profile":["http://hl7.org/fhir/us/cqfmeasures/StructureDefinition/test-case-cqfm"]},"contained":[{"resourceType":"Parameters","id":"d4a4caaf-4191-4449-b655-1955882a08cc-parameters","parameter":[{"name":"subject","valueString":"dac89c3d-536e-4dca-9871-570a0bcd8d16"}]}],"extension":[{"url":"http://hl7.org/fhir/StructureDefinition/cqf-inputParameters","valueReference":{"reference":"#d4a4caaf-4191-4449-b655-1955882a08cc-parameters"}},{"url":"http://hl7.org/fhir/us/cqfmeasures/StructureDefinition/cqfm-testCaseDescription","valueMarkdown":"Encounter in May and Encounter in April, both greater than 480 minutes, both pass numerator. Adolescent, no mental health diagnosis."}],"modifierExtension":[{"url":"http://hl7.org/fhir/us/cqfmeasures/StructureDefinition/cqfm-isTestCase","valueBoolean":true}],"status":"complete","type":"individual","measure":"https://madie.cms.gov/Measure/CMS1264FHIRECATREHQR","period":{"start":"2027-01-01","end":"2027-12-31"},"group":[{"id":"Group_1","population":[{"id":"InitialPopulation_1","code":{"coding":[{"system":"http://terminology.hl7.org/CodeSystem/measure-population","code":"initial-population","display":"Initial Population"}]},"count":2},{"id":"Denominator_1","code":{"coding":[{"system":"http://terminology.hl7.org/CodeSystem/measure-population","code":"denominator","display":"Denominator"}]},"count":2},{"id":"Numerator_1","code":{"coding":[{"system":"http://terminology.hl7.org/CodeSystem/measure-population","code":"numerator","display":"Numerator"}]},"count":2}],"measureScore":{"value":0.0},"stratifier":[{"id":"Stratification_1_1","code":[{"text":"Strata-1"}],"stratum":[{"value":{"text":"Strata-1"},"population":[{"id":"InitialPopulation_1","code":{"coding":[{"system":"http://terminology.hl7.org/CodeSystem/measure-population","code":"initial-population","display":"Initial Population"}]},"count":2},{"id":"Denominator_1","code":{"coding":[{"system":"http://terminology.hl7.org/CodeSystem/measure-population","code":"denominator","display":"Denominator"}]},"count":2},{"id":"Numerator_1","code":{"coding":[{"system":"http://terminology.hl7.org/CodeSystem/measure-population","code":"numerator","display":"Numerator"}]},"count":2}]}]},{"id":"Stratification_1_2","code":[{"text":"Strata-2"}],"stratum":[{"value":{"text":"Strata-2"},"population":[{"id":"InitialPopulation_1","code":{"coding":[{"system":"http://terminology.hl7.org/CodeSystem/measure-population","code":"initial-population","display":"Initial Population"}]},"count":0},{"id":"Denominator_1","code":{"coding":[{"system":"http://terminology.hl7.org/CodeSystem/measure-population","code":"denominator","display":"Denominator"}]},"count":0},{"id":"Numerator_1","code":{"coding":[{"system":"http://terminology.hl7.org/CodeSystem/measure-population","code":"numerator","display":"Numerator"}]},"count":0}]}]},{"id":"Stratification_1_3","code":[{"text":"Strata-3"}],"stratum":[{"value":{"text":"Strata-3"},"population":[{"id":"InitialPopulation_1","code":{"coding":[{"system":"http://terminology.hl7.org/CodeSystem/measure-population","code":"initial-population","display":"Initial Population"}]},"count":0},{"id":"Denominator_1","code":{"coding":[{"system":"http://terminology.hl7.org/CodeSystem/measure-population","code":"denominator","display":"Denominator"}]},"count":0},{"id":"Numerator_1","code":{"coding":[{"system":"http://terminology.hl7.org/CodeSystem/measure-population","code":"numerator","display":"Numerator"}]},"count":0}]}]},{"id":"Stratification_1_4","code":[{"text":"Strata-4"}],"stratum":[{"value":{"text":"Strata-4"},"population":[{"id":"InitialPopulation_1","code":{"coding":[{"system":"http://terminology.hl7.org/CodeSystem/measure-population","code":"initial-population","display":"Initial Population"}]},"count":0},{"id":"Denominator_1","code":{"coding":[{"system":"http://terminology.hl7.org/CodeSystem/measure-population","code":"denominator","display":"Denominator"}]},"count":0},{"id":"Numerator_1","code":{"coding":[{"system":"http://terminology.hl7.org/CodeSystem/measure-population","code":"numerator","display":"Numerator"}]},"count":0}]}]}]}],"evaluatedResource":[{"reference":"Patient/dac89c3d-536e-4dca-9871-570a0bcd8d16"},{"reference":"Encounter/d11f861d-c53b-4201-a7d7-20f7ce030c54"},{"reference":"Encounter/e6c66ea7-b723-4617-a858-6a1f9b6a63ea"},{"reference":"Condition/aac2617c-2324-44a9-8176-81fb59573687"},{"reference":"Location/f97d2e2a-9608-4b02-91f4-3f67674f5f62"},{"reference":"Claim/ClaimBehavior-NotSubsAbuse"},{"reference":"Claim/ClaimBehavior-NotSubsAbuse2"},{"reference":"Coverage/4a7e9fe5-6548-4511-a0a1-f5e48a7ea093"},{"reference":"Organization/68bd8a03-6dc5-4191-bc40-7441daab5a22"},{"reference":"Practitioner/114a96b3-4f5a-4d11-99f6-6283d0ca101c"}]},"request":{"method":"PUT","url":"MeasureReport/c957ff1d-e214-41d2-ae39-7f9bfd7b4206"}}]},"request":{"method":"PUT","url":"Bundle/661476b015ed5841a5547ebf"}},{"resource":{"resourceType":"Practitioner","id":"114a96b3-4f5a-4d11-99f6-6283d0ca101c","meta":{"profile":["http://hl7.org/fhir/us/qicore/StructureDefinition/qicore-practitioner"]},"identifier":[{"system":"http://hl7.org/fhir/sid/us-npi","value":"9999999896"}],"name":[{"family":"Evil","prefix":["Dr"]}]},"request":{"method":"PUT","url":"Practitioner/114a96b3-4f5a-4d11-99f6-6283d0ca101c"}},{"resource":{"resourceType":"Coverage","id":"4a7e9fe5-6548-4511-a0a1-f5e48a7ea093","meta":{"profile":["http://hl7.org/fhir/us/qicore/StructureDefinition/qicore-coverage"]},"identifier":[{"type":{"coding":[{"system":"http://terminology.hl7.org/CodeSystem/v2-0203","code":"MB"}]}}],"status":"active","beneficiary":{"reference":"Patient/dac89c3d-536e-4dca-9871-570a0bcd8d16"},"relationship":{"coding":[{"system":"http://terminology.hl7.org/CodeSystem/subscriber-relationship","code":"self"}]},"payor":[{"reference":"Organization/68bd8a03-6dc5-4191-bc40-7441daab5a22"}]},"request":{"method":"PUT","url":"Coverage/4a7e9fe5-6548-4511-a0a1-f5e48a7ea093"}},{"resource":{"resourceType":"Location","id":"f97d2e2a-9608-4b02-91f4-3f67674f5f62","meta":{"profile":["http://hl7.org/fhir/us/qicore/StructureDefinition/qicore-location"]},"identifier":[{"use":"usual","system":"http://exampleoflocation.com","value":"B1-S.F2"}],"name":"Medical Surgical East, first floor","type":[{"coding":[{"system":"https://www.cdc.gov/nhsn/cdaportal/terminology/codesystem/hsloc.html","version":"2022","code":"1108-0","display":"Emergency Department","userSelected":true}]}]},"request":{"method":"PUT","url":"Location/f97d2e2a-9608-4b02-91f4-3f67674f5f62"}},{"resource":{"resourceType":"Claim","id":"ClaimBehavior-NotSubsAbuse","meta":{"profile":["http://hl7.org/fhir/us/qicore/StructureDefinition/qicore-claim"]},"status":"active","type":{"coding":[{"system":"http://terminology.hl7.org/CodeSystem/claim-type","code":"institutional"}]},"use":"claim","patient":{"reference":"Patient/dac89c3d-536e-4dca-9871-570a0bcd8d16"},"created":"2027-05-01","provider":{"reference":"Practitioner/practitioner-123456"},"priority":{"coding":[{"system":"http://terminology.hl7.org/CodeSystem/processpriority","code":"normal"}]},"diagnosis":[{"sequence":1,"diagnosisReference":{"reference":"Condition/aac2617c-2324-44a9-8176-81fb59573687"},"type":[{"coding":[{"system":"http://terminology.hl7.org/CodeSystem/ex-diagnosistype","code":"principal"}]}]}],"insurance":[{"sequence":1,"focal":true,"coverage":{"reference":"Coverage/1"}}],"item":[{"sequence":1,"diagnosisSequence":[1],"productOrService":{"coding":[{"system":"http://terminology.hl7.org/CodeSystem/ex-USCLS","code":"99555"}]},"encounter":[{"reference":"Encounter/d11f861d-c53b-4201-a7d7-20f7ce030c54"}]}]},"request":{"method":"PUT","url":"Claim/ClaimBehavior-NotSubsAbuse"}}]}