{"resourceType":"Bundle","id":"tests-ee13a2d8-61d9-4d2f-8f13-1423bd271950-bundle","type":"transaction","entry":[{"resource":{"resourceType":"MeasureReport","id":"f60c35b3-3d72-4f57-84bc-0094a6d1b450","meta":{"profile":["http://hl7.org/fhir/us/cqfmeasures/StructureDefinition/test-case-cqfm"]},"contained":[{"resourceType":"Parameters","id":"78e14d21-fa08-4e17-9ef0-62cd6d08f540-parameters","parameter":[{"name":"subject","valueString":"ee13a2d8-61d9-4d2f-8f13-1423bd271950"}]}],"extension":[{"url":"http://hl7.org/fhir/StructureDefinition/cqf-inputParameters","valueReference":{"reference":"#78e14d21-fa08-4e17-9ef0-62cd6d08f540-parameters"}},{"url":"http://hl7.org/fhir/us/cqfmeasures/StructureDefinition/cqfm-testCaseDescription","valueMarkdown":"Enc first day of MP, ends 1 min before midnight, decision to transfer order, decision to transfer order status is revoked."}],"modifierExtension":[{"url":"http://hl7.org/fhir/us/cqfmeasures/StructureDefinition/cqfm-isTestCase","valueBoolean":true}],"status":"complete","type":"individual","measure":"https://madie.cms.gov/Measure/CMS1264FHIRECATREHQR","period":{"start":"2027-01-01","end":"2027-12-31"},"group":[{"id":"Group_1","population":[{"id":"InitialPopulation_1","code":{"coding":[{"system":"http://terminology.hl7.org/CodeSystem/measure-population","code":"initial-population","display":"Initial Population"}]},"count":1},{"id":"Denominator_1","code":{"coding":[{"system":"http://terminology.hl7.org/CodeSystem/measure-population","code":"denominator","display":"Denominator"}]},"count":1},{"id":"Numerator_1","code":{"coding":[{"system":"http://terminology.hl7.org/CodeSystem/measure-population","code":"numerator","display":"Numerator"}]},"count":0}],"measureScore":{"value":0.0},"stratifier":[{"id":"Stratification_1_1","code":[{"text":"Strata-1"}],"stratum":[{"value":{"text":"Strata-1"},"population":[{"id":"InitialPopulation_1","code":{"coding":[{"system":"http://terminology.hl7.org/CodeSystem/measure-population","code":"initial-population","display":"Initial Population"}]},"count":0},{"id":"Denominator_1","code":{"coding":[{"system":"http://terminology.hl7.org/CodeSystem/measure-population","code":"denominator","display":"Denominator"}]},"count":0},{"id":"Numerator_1","code":{"coding":[{"system":"http://terminology.hl7.org/CodeSystem/measure-population","code":"numerator","display":"Numerator"}]},"count":0}]}]},{"id":"Stratification_1_2","code":[{"text":"Strata-2"}],"stratum":[{"value":{"text":"Strata-2"},"population":[{"id":"InitialPopulation_1","code":{"coding":[{"system":"http://terminology.hl7.org/CodeSystem/measure-population","code":"initial-population","display":"Initial Population"}]},"count":0},{"id":"Denominator_1","code":{"coding":[{"system":"http://terminology.hl7.org/CodeSystem/measure-population","code":"denominator","display":"Denominator"}]},"count":0},{"id":"Numerator_1","code":{"coding":[{"system":"http://terminology.hl7.org/CodeSystem/measure-population","code":"numerator","display":"Numerator"}]},"count":0}]}]},{"id":"Stratification_1_3","code":[{"text":"Strata-3"}],"stratum":[{"value":{"text":"Strata-3"},"population":[{"id":"InitialPopulation_1","code":{"coding":[{"system":"http://terminology.hl7.org/CodeSystem/measure-population","code":"initial-population","display":"Initial Population"}]},"count":0},{"id":"Denominator_1","code":{"coding":[{"system":"http://terminology.hl7.org/CodeSystem/measure-population","code":"denominator","display":"Denominator"}]},"count":0},{"id":"Numerator_1","code":{"coding":[{"system":"http://terminology.hl7.org/CodeSystem/measure-population","code":"numerator","display":"Numerator"}]},"count":0}]}]},{"id":"Stratification_1_4","code":[{"text":"Strata-4"}],"stratum":[{"value":{"text":"Strata-4"},"population":[{"id":"InitialPopulation_1","code":{"coding":[{"system":"http://terminology.hl7.org/CodeSystem/measure-population","code":"initial-population","display":"Initial Population"}]},"count":1},{"id":"Denominator_1","code":{"coding":[{"system":"http://terminology.hl7.org/CodeSystem/measure-population","code":"denominator","display":"Denominator"}]},"count":1},{"id":"Numerator_1","code":{"coding":[{"system":"http://terminology.hl7.org/CodeSystem/measure-population","code":"numerator","display":"Numerator"}]},"count":0}]}]}]}],"evaluatedResource":[{"reference":"Patient/ee13a2d8-61d9-4d2f-8f13-1423bd271950"},{"reference":"Encounter/c144a26b-9ef3-47d6-b78b-2fe0b0b3b63d"},{"reference":"ServiceRequest/5e379f64-c228-42db-b283-24685e84177d"},{"reference":"Location/a0dc0bdf-8601-4efa-aa3b-3b9ce9239599"},{"reference":"Claim/ClaimBehavior-NotSubsAbuse"},{"reference":"Coverage/1418aac5-36d5-40f1-9fc5-06938d3a06af"},{"reference":"Condition/a4492168-1682-4f91-8958-abbe0e98132f"},{"reference":"Organization/9fd97935-1f02-4e5e-8687-0be3d927a9fa"},{"reference":"Practitioner/b6ee18a6-a40a-405a-9ca4-7f2e575efb41"}]},"request":{"method":"PUT","url":"MeasureReport/f60c35b3-3d72-4f57-84bc-0094a6d1b450"}},{"resource":{"resourceType":"ServiceRequest","id":"5e379f64-c228-42db-b283-24685e84177d","meta":{"profile":["http://hl7.org/fhir/us/qicore/StructureDefinition/qicore-servicerequest"]},"status":"revoked","intent":"order","code":{"coding":[{"system":"http://snomed.info/sct","version":"2023-09","code":"448551000124100","display":"Patient transfer to another hospital (procedure)","userSelected":true}]},"subject":{"reference":"Patient/ee13a2d8-61d9-4d2f-8f13-1423bd271950"},"authoredOn":"2027-05-01T19:58:00.000+00:00"},"request":{"method":"PUT","url":"ServiceRequest/5e379f64-c228-42db-b283-24685e84177d"}},{"resource":{"resourceType":"Practitioner","id":"b6ee18a6-a40a-405a-9ca4-7f2e575efb41","meta":{"profile":["http://hl7.org/fhir/us/qicore/StructureDefinition/qicore-practitioner"]},"identifier":[{"system":"http://hl7.org/fhir/sid/us-npi","value":"9999999896"}],"name":[{"family":"Evil","prefix":["Dr"]}]},"request":{"method":"PUT","url":"Practitioner/b6ee18a6-a40a-405a-9ca4-7f2e575efb41"}},{"resource":{"resourceType":"Condition","id":"a4492168-1682-4f91-8958-abbe0e98132f","meta":{"profile":["http://hl7.org/fhir/us/qicore/StructureDefinition/qicore-condition-encounter-diagnosis"]},"category":[{"coding":[{"system":"http://terminology.hl7.org/CodeSystem/condition-category","code":"encounter-diagnosis","display":"Encounter Diagnosis"}]}],"code":{"coding":[{"system":"http://snomed.info/sct","version":"2023-09","code":"10349009","display":"Multi-infarct dementia with delirium (disorder)","userSelected":true}]},"subject":{"reference":"Patient/ee13a2d8-61d9-4d2f-8f13-1423bd271950"},"recordedDate":"2027-04-09T08:00:00.000+00:00"},"request":{"method":"PUT","url":"Condition/a4492168-1682-4f91-8958-abbe0e98132f"}},{"resource":{"resourceType":"Location","id":"a0dc0bdf-8601-4efa-aa3b-3b9ce9239599","meta":{"profile":["http://hl7.org/fhir/us/qicore/StructureDefinition/qicore-location"]},"identifier":[{"use":"usual","system":"http://exampleoflocation.com","value":"B1-S.F2"}],"name":"Medical Surgical East, first floor","type":[{"coding":[{"system":"https://www.cdc.gov/nhsn/cdaportal/terminology/codesystem/hsloc.html","version":"2022","code":"1108-0","display":"Emergency Department","userSelected":true}]}]},"request":{"method":"PUT","url":"Location/a0dc0bdf-8601-4efa-aa3b-3b9ce9239599"}},{"resource":{"resourceType":"Bundle","id":"661476b015ed5841a5547ebf","type":"transaction","entry":[{"fullUrl":"https://madie.cms.gov/Patient/ee13a2d8-61d9-4d2f-8f13-1423bd271950","resource":{"resourceType":"Patient","id":"ee13a2d8-61d9-4d2f-8f13-1423bd271950","meta":{"profile":["http://hl7.org/fhir/us/qicore/StructureDefinition/qicore-patient"]},"extension":[{"url":"http://hl7.org/fhir/us/core/StructureDefinition/us-core-race","extension":[{"url":"ombCategory","valueCoding":{"system":"urn:oid:2.16.840.1.113883.6.238","code":"1002-5","display":"American Indian or Alaska Native","userSelected":true}},{"url":"text","valueString":"American Indian or Alaska Native"}]},{"url":"http://hl7.org/fhir/us/core/StructureDefinition/us-core-ethnicity","extension":[{"url":"ombCategory","valueCoding":{"system":"urn:oid:2.16.840.1.113883.6.238","code":"2135-2","display":"Hispanic or Latino","userSelected":true}},{"url":"text","valueString":"Hispanic or Latino"}]},{"url":"http://hl7.org/fhir/us/core/StructureDefinition/us-core-sex","valueCode":"248153007"}],"identifier":[{"type":{"coding":[{"system":"http://terminology.hl7.org/CodeSystem/v2-0203","code":"MR"}]},"system":"https://bonnie-fhir.healthit.gov/","value":"661476b015ed5841a5547ebf"}],"name":[{"family":"NUMERPop4Fail","given":["TransferOrderStatusRevoked"]}],"gender":"male","birthDate":"2008-01-01"},"request":{"method":"PUT","url":"Patient/ee13a2d8-61d9-4d2f-8f13-1423bd271950"}},{"fullUrl":"https://madie.cms.gov/Encounter/c144a26b-9ef3-47d6-b78b-2fe0b0b3b63d","resource":{"resourceType":"Encounter","id":"c144a26b-9ef3-47d6-b78b-2fe0b0b3b63d","meta":{"profile":["http://hl7.org/fhir/us/qicore/StructureDefinition/qicore-encounter"]},"status":"finished","class":{"system":"http://terminology.hl7.org/CodeSystem/v3-ActCode","code":"EMER","display":"emergency department"},"type":[{"coding":[{"system":"http://snomed.info/sct","version":"2023-09","code":"4525004","display":"Emergency department patient visit (procedure)","userSelected":true}]}],"subject":{"reference":"Patient/ee13a2d8-61d9-4d2f-8f13-1423bd271950"},"period":{"start":"2027-05-01T19:58:00.000+00:00","end":"2027-05-01T23:59:00.000+00:00"},"diagnosis":[{"condition":{"reference":"Condition/a4492168-1682-4f91-8958-abbe0e98132f"},"use":{"coding":[{"system":"http://terminology.hl7.org/CodeSystem/diagnosis-role","code":"billing"}]},"rank":1}],"location":[{"location":{"reference":"Location/a0dc0bdf-8601-4efa-aa3b-3b9ce9239599"},"period":{"start":"2027-05-01T19:58:00.000+00:00","end":"2027-05-01T23:59:00.000+00:00"}}]},"request":{"method":"PUT","url":"Encounter/c144a26b-9ef3-47d6-b78b-2fe0b0b3b63d"}},{"fullUrl":"https://madie.cms.gov/ServiceRequest/5e379f64-c228-42db-b283-24685e84177d","resource":{"resourceType":"ServiceRequest","id":"5e379f64-c228-42db-b283-24685e84177d","meta":{"profile":["http://hl7.org/fhir/us/qicore/StructureDefinition/qicore-servicerequest"]},"status":"revoked","intent":"order","code":{"coding":[{"system":"http://snomed.info/sct","version":"2023-09","code":"448551000124100","display":"Patient transfer to another hospital (procedure)","userSelected":true}]},"subject":{"reference":"Patient/ee13a2d8-61d9-4d2f-8f13-1423bd271950"},"authoredOn":"2027-05-01T19:58:00.000+00:00"},"request":{"method":"PUT","url":"ServiceRequest/5e379f64-c228-42db-b283-24685e84177d"}},{"fullUrl":"https://madie.cms.gov/Location/a0dc0bdf-8601-4efa-aa3b-3b9ce9239599","resource":{"resourceType":"Location","id":"a0dc0bdf-8601-4efa-aa3b-3b9ce9239599","meta":{"profile":["http://hl7.org/fhir/us/qicore/StructureDefinition/qicore-location"]},"identifier":[{"use":"usual","system":"http://exampleoflocation.com","value":"B1-S.F2"}],"name":"Medical Surgical East, first floor","type":[{"coding":[{"system":"https://www.cdc.gov/nhsn/cdaportal/terminology/codesystem/hsloc.html","version":"2022","code":"1108-0","display":"Emergency Department","userSelected":true}]}]},"request":{"method":"PUT","url":"Location/a0dc0bdf-8601-4efa-aa3b-3b9ce9239599"}},{"fullUrl":"https://madie.cms.gov/claim/ClaimBehavior-NotSubsAbuse","resource":{"resourceType":"Claim","id":"ClaimBehavior-NotSubsAbuse","meta":{"profile":["http://hl7.org/fhir/us/qicore/StructureDefinition/qicore-claim"]},"status":"active","type":{"coding":[{"system":"http://terminology.hl7.org/CodeSystem/claim-type","code":"institutional"}]},"use":"claim","patient":{"reference":"Patient/ee13a2d8-61d9-4d2f-8f13-1423bd271950"},"created":"2027-05-01","provider":{"reference":"Practitioner/practitioner-123456"},"priority":{"coding":[{"system":"http://terminology.hl7.org/CodeSystem/processpriority","code":"normal"}]},"diagnosis":[{"sequence":1,"diagnosisReference":{"reference":"Condition/a4492168-1682-4f91-8958-abbe0e98132f"},"type":[{"coding":[{"system":"http://terminology.hl7.org/CodeSystem/ex-diagnosistype","code":"principal"}]}]}],"insurance":[{"sequence":1,"focal":true,"coverage":{"reference":"Coverage/1"}}],"item":[{"sequence":1,"diagnosisSequence":[1],"productOrService":{"coding":[{"system":"http://terminology.hl7.org/CodeSystem/ex-USCLS","code":"99555"}]},"encounter":[{"reference":"Encounter/c144a26b-9ef3-47d6-b78b-2fe0b0b3b63d"}]}]},"request":{"method":"PUT","url":"Claim/ClaimBehavior-NotSubsAbuse"}},{"fullUrl":"https://madie.cms.gov/Coverage/1418aac5-36d5-40f1-9fc5-06938d3a06af","resource":{"resourceType":"Coverage","id":"1418aac5-36d5-40f1-9fc5-06938d3a06af","meta":{"profile":["http://hl7.org/fhir/us/qicore/StructureDefinition/qicore-coverage"]},"identifier":[{"type":{"coding":[{"system":"http://terminology.hl7.org/CodeSystem/v2-0203","code":"MB"}]}}],"status":"active","beneficiary":{"reference":"Patient/ee13a2d8-61d9-4d2f-8f13-1423bd271950"},"relationship":{"coding":[{"system":"http://terminology.hl7.org/CodeSystem/subscriber-relationship","code":"self"}]},"payor":[{"reference":"Organization/9fd97935-1f02-4e5e-8687-0be3d927a9fa"}]},"request":{"method":"PUT","url":"Coverage/1418aac5-36d5-40f1-9fc5-06938d3a06af"}},{"fullUrl":"https://madie.cms.gov/Condition/a4492168-1682-4f91-8958-abbe0e98132f","resource":{"resourceType":"Condition","id":"a4492168-1682-4f91-8958-abbe0e98132f","meta":{"profile":["http://hl7.org/fhir/us/qicore/StructureDefinition/qicore-condition-encounter-diagnosis"]},"category":[{"coding":[{"system":"http://terminology.hl7.org/CodeSystem/condition-category","code":"encounter-diagnosis","display":"Encounter Diagnosis"}]}],"code":{"coding":[{"system":"http://snomed.info/sct","version":"2023-09","code":"10349009","display":"Multi-infarct dementia with delirium (disorder)","userSelected":true}]},"subject":{"reference":"Patient/ee13a2d8-61d9-4d2f-8f13-1423bd271950"},"recordedDate":"2027-04-09T08:00:00.000+00:00"},"request":{"method":"PUT","url":"Condition/a4492168-1682-4f91-8958-abbe0e98132f"}},{"fullUrl":"https://madie.cms.gov/Organization/9fd97935-1f02-4e5e-8687-0be3d927a9fa","resource":{"resourceType":"Organization","id":"9fd97935-1f02-4e5e-8687-0be3d927a9fa","meta":{"profile":["http://hl7.org/fhir/us/qicore/StructureDefinition/qicore-organization"]},"identifier":[{"use":"temp","system":"urn:oid:2.16.840.1.113883.4.4","value":"21-3259825"}],"active":true,"type":[{"coding":[{"system":"http://terminology.hl7.org/CodeSystem/organization-type","code":"pay","display":"Payer"}]}],"name":"Blue Cross Blue Shield of Texas","telecom":[{"system":"phone","value":"(+1) 972-766-6900"}],"address":[{"use":"billing","type":"postal","line":["P.O. Box 660044"],"city":"Dallas","state":"TX","postalCode":"75266-0044","country":"USA"}]},"request":{"method":"PUT","url":"Organization/9fd97935-1f02-4e5e-8687-0be3d927a9fa"}},{"fullUrl":"https://madie.cms.gov/Practitioner/b6ee18a6-a40a-405a-9ca4-7f2e575efb41","resource":{"resourceType":"Practitioner","id":"b6ee18a6-a40a-405a-9ca4-7f2e575efb41","meta":{"profile":["http://hl7.org/fhir/us/qicore/StructureDefinition/qicore-practitioner"]},"identifier":[{"system":"http://hl7.org/fhir/sid/us-npi","value":"9999999896"}],"name":[{"family":"Evil","prefix":["Dr"]}]},"request":{"method":"PUT","url":"Practitioner/b6ee18a6-a40a-405a-9ca4-7f2e575efb41"}},{"fullUrl":"https://madie.cms.gov/MeasureReport/f60c35b3-3d72-4f57-84bc-0094a6d1b450","resource":{"resourceType":"MeasureReport","id":"f60c35b3-3d72-4f57-84bc-0094a6d1b450","meta":{"profile":["http://hl7.org/fhir/us/cqfmeasures/StructureDefinition/test-case-cqfm"]},"contained":[{"resourceType":"Parameters","id":"78e14d21-fa08-4e17-9ef0-62cd6d08f540-parameters","parameter":[{"name":"subject","valueString":"ee13a2d8-61d9-4d2f-8f13-1423bd271950"}]}],"extension":[{"url":"http://hl7.org/fhir/StructureDefinition/cqf-inputParameters","valueReference":{"reference":"#78e14d21-fa08-4e17-9ef0-62cd6d08f540-parameters"}},{"url":"http://hl7.org/fhir/us/cqfmeasures/StructureDefinition/cqfm-testCaseDescription","valueMarkdown":"Enc first day of MP, ends 1 min before midnight, decision to transfer order, decision to transfer order status is revoked."}],"modifierExtension":[{"url":"http://hl7.org/fhir/us/cqfmeasures/StructureDefinition/cqfm-isTestCase","valueBoolean":true}],"status":"complete","type":"individual","measure":"https://madie.cms.gov/Measure/CMS1264FHIRECATREHQR","period":{"start":"2027-01-01","end":"2027-12-31"},"group":[{"id":"Group_1","population":[{"id":"InitialPopulation_1","code":{"coding":[{"system":"http://terminology.hl7.org/CodeSystem/measure-population","code":"initial-population","display":"Initial Population"}]},"count":1},{"id":"Denominator_1","code":{"coding":[{"system":"http://terminology.hl7.org/CodeSystem/measure-population","code":"denominator","display":"Denominator"}]},"count":1},{"id":"Numerator_1","code":{"coding":[{"system":"http://terminology.hl7.org/CodeSystem/measure-population","code":"numerator","display":"Numerator"}]},"count":0}],"measureScore":{"value":0.0},"stratifier":[{"id":"Stratification_1_1","code":[{"text":"Strata-1"}],"stratum":[{"value":{"text":"Strata-1"},"population":[{"id":"InitialPopulation_1","code":{"coding":[{"system":"http://terminology.hl7.org/CodeSystem/measure-population","code":"initial-population","display":"Initial Population"}]},"count":0},{"id":"Denominator_1","code":{"coding":[{"system":"http://terminology.hl7.org/CodeSystem/measure-population","code":"denominator","display":"Denominator"}]},"count":0},{"id":"Numerator_1","code":{"coding":[{"system":"http://terminology.hl7.org/CodeSystem/measure-population","code":"numerator","display":"Numerator"}]},"count":0}]}]},{"id":"Stratification_1_2","code":[{"text":"Strata-2"}],"stratum":[{"value":{"text":"Strata-2"},"population":[{"id":"InitialPopulation_1","code":{"coding":[{"system":"http://terminology.hl7.org/CodeSystem/measure-population","code":"initial-population","display":"Initial Population"}]},"count":0},{"id":"Denominator_1","code":{"coding":[{"system":"http://terminology.hl7.org/CodeSystem/measure-population","code":"denominator","display":"Denominator"}]},"count":0},{"id":"Numerator_1","code":{"coding":[{"system":"http://terminology.hl7.org/CodeSystem/measure-population","code":"numerator","display":"Numerator"}]},"count":0}]}]},{"id":"Stratification_1_3","code":[{"text":"Strata-3"}],"stratum":[{"value":{"text":"Strata-3"},"population":[{"id":"InitialPopulation_1","code":{"coding":[{"system":"http://terminology.hl7.org/CodeSystem/measure-population","code":"initial-population","display":"Initial Population"}]},"count":0},{"id":"Denominator_1","code":{"coding":[{"system":"http://terminology.hl7.org/CodeSystem/measure-population","code":"denominator","display":"Denominator"}]},"count":0},{"id":"Numerator_1","code":{"coding":[{"system":"http://terminology.hl7.org/CodeSystem/measure-population","code":"numerator","display":"Numerator"}]},"count":0}]}]},{"id":"Stratification_1_4","code":[{"text":"Strata-4"}],"stratum":[{"value":{"text":"Strata-4"},"population":[{"id":"InitialPopulation_1","code":{"coding":[{"system":"http://terminology.hl7.org/CodeSystem/measure-population","code":"initial-population","display":"Initial Population"}]},"count":1},{"id":"Denominator_1","code":{"coding":[{"system":"http://terminology.hl7.org/CodeSystem/measure-population","code":"denominator","display":"Denominator"}]},"count":1},{"id":"Numerator_1","code":{"coding":[{"system":"http://terminology.hl7.org/CodeSystem/measure-population","code":"numerator","display":"Numerator"}]},"count":0}]}]}]}],"evaluatedResource":[{"reference":"Patient/ee13a2d8-61d9-4d2f-8f13-1423bd271950"},{"reference":"Encounter/c144a26b-9ef3-47d6-b78b-2fe0b0b3b63d"},{"reference":"ServiceRequest/5e379f64-c228-42db-b283-24685e84177d"},{"reference":"Location/a0dc0bdf-8601-4efa-aa3b-3b9ce9239599"},{"reference":"Claim/ClaimBehavior-NotSubsAbuse"},{"reference":"Coverage/1418aac5-36d5-40f1-9fc5-06938d3a06af"},{"reference":"Condition/a4492168-1682-4f91-8958-abbe0e98132f"},{"reference":"Organization/9fd97935-1f02-4e5e-8687-0be3d927a9fa"},{"reference":"Practitioner/b6ee18a6-a40a-405a-9ca4-7f2e575efb41"}]},"request":{"method":"PUT","url":"MeasureReport/f60c35b3-3d72-4f57-84bc-0094a6d1b450"}}]},"request":{"method":"PUT","url":"Bundle/661476b015ed5841a5547ebf"}},{"resource":{"resourceType":"Claim","id":"ClaimBehavior-NotSubsAbuse","meta":{"profile":["http://hl7.org/fhir/us/qicore/StructureDefinition/qicore-claim"]},"status":"active","type":{"coding":[{"system":"http://terminology.hl7.org/CodeSystem/claim-type","code":"institutional"}]},"use":"claim","patient":{"reference":"Patient/ee13a2d8-61d9-4d2f-8f13-1423bd271950"},"created":"2027-05-01","provider":{"reference":"Practitioner/practitioner-123456"},"priority":{"coding":[{"system":"http://terminology.hl7.org/CodeSystem/processpriority","code":"normal"}]},"diagnosis":[{"sequence":1,"diagnosisReference":{"reference":"Condition/a4492168-1682-4f91-8958-abbe0e98132f"},"type":[{"coding":[{"system":"http://terminology.hl7.org/CodeSystem/ex-diagnosistype","code":"principal"}]}]}],"insurance":[{"sequence":1,"focal":true,"coverage":{"reference":"Coverage/1"}}],"item":[{"sequence":1,"diagnosisSequence":[1],"productOrService":{"coding":[{"system":"http://terminology.hl7.org/CodeSystem/ex-USCLS","code":"99555"}]},"encounter":[{"reference":"Encounter/c144a26b-9ef3-47d6-b78b-2fe0b0b3b63d"}]}]},"request":{"method":"PUT","url":"Claim/ClaimBehavior-NotSubsAbuse"}},{"resource":{"resourceType":"Coverage","id":"1418aac5-36d5-40f1-9fc5-06938d3a06af","meta":{"profile":["http://hl7.org/fhir/us/qicore/StructureDefinition/qicore-coverage"]},"identifier":[{"type":{"coding":[{"system":"http://terminology.hl7.org/CodeSystem/v2-0203","code":"MB"}]}}],"status":"active","beneficiary":{"reference":"Patient/ee13a2d8-61d9-4d2f-8f13-1423bd271950"},"relationship":{"coding":[{"system":"http://terminology.hl7.org/CodeSystem/subscriber-relationship","code":"self"}]},"payor":[{"reference":"Organization/9fd97935-1f02-4e5e-8687-0be3d927a9fa"}]},"request":{"method":"PUT","url":"Coverage/1418aac5-36d5-40f1-9fc5-06938d3a06af"}},{"resource":{"resourceType":"Encounter","id":"c144a26b-9ef3-47d6-b78b-2fe0b0b3b63d","meta":{"profile":["http://hl7.org/fhir/us/qicore/StructureDefinition/qicore-encounter"]},"status":"finished","class":{"system":"http://terminology.hl7.org/CodeSystem/v3-ActCode","code":"EMER","display":"emergency department"},"type":[{"coding":[{"system":"http://snomed.info/sct","version":"2023-09","code":"4525004","display":"Emergency department patient visit (procedure)","userSelected":true}]}],"subject":{"reference":"Patient/ee13a2d8-61d9-4d2f-8f13-1423bd271950"},"period":{"start":"2027-05-01T19:58:00.000+00:00","end":"2027-05-01T23:59:00.000+00:00"},"diagnosis":[{"condition":{"reference":"Condition/a4492168-1682-4f91-8958-abbe0e98132f"},"use":{"coding":[{"system":"http://terminology.hl7.org/CodeSystem/diagnosis-role","code":"billing"}]},"rank":1}],"location":[{"location":{"reference":"Location/a0dc0bdf-8601-4efa-aa3b-3b9ce9239599"},"period":{"start":"2027-05-01T19:58:00.000+00:00","end":"2027-05-01T23:59:00.000+00:00"}}]},"request":{"method":"PUT","url":"Encounter/c144a26b-9ef3-47d6-b78b-2fe0b0b3b63d"}},{"resource":{"resourceType":"Organization","id":"9fd97935-1f02-4e5e-8687-0be3d927a9fa","meta":{"profile":["http://hl7.org/fhir/us/qicore/StructureDefinition/qicore-organization"]},"identifier":[{"use":"temp","system":"urn:oid:2.16.840.1.113883.4.4","value":"21-3259825"}],"active":true,"type":[{"coding":[{"system":"http://terminology.hl7.org/CodeSystem/organization-type","code":"pay","display":"Payer"}]}],"name":"Blue Cross Blue Shield of Texas","telecom":[{"system":"phone","value":"(+1) 972-766-6900"}],"address":[{"use":"billing","type":"postal","line":["P.O. Box 660044"],"city":"Dallas","state":"TX","postalCode":"75266-0044","country":"USA"}]},"request":{"method":"PUT","url":"Organization/9fd97935-1f02-4e5e-8687-0be3d927a9fa"}},{"resource":{"resourceType":"Patient","id":"ee13a2d8-61d9-4d2f-8f13-1423bd271950","meta":{"profile":["http://hl7.org/fhir/us/qicore/StructureDefinition/qicore-patient"]},"extension":[{"url":"http://hl7.org/fhir/us/core/StructureDefinition/us-core-race","extension":[{"url":"ombCategory","valueCoding":{"system":"urn:oid:2.16.840.1.113883.6.238","code":"1002-5","display":"American Indian or Alaska Native","userSelected":true}},{"url":"text","valueString":"American Indian or Alaska Native"}]},{"url":"http://hl7.org/fhir/us/core/StructureDefinition/us-core-ethnicity","extension":[{"url":"ombCategory","valueCoding":{"system":"urn:oid:2.16.840.1.113883.6.238","code":"2135-2","display":"Hispanic or Latino","userSelected":true}},{"url":"text","valueString":"Hispanic or Latino"}]},{"url":"http://hl7.org/fhir/us/core/StructureDefinition/us-core-sex","valueCode":"248153007"}],"identifier":[{"type":{"coding":[{"system":"http://terminology.hl7.org/CodeSystem/v2-0203","code":"MR"}]},"system":"https://bonnie-fhir.healthit.gov/","value":"661476b015ed5841a5547ebf"}],"name":[{"family":"NUMERPop4Fail","given":["TransferOrderStatusRevoked"]}],"gender":"male","birthDate":"2008-01-01"},"request":{"method":"PUT","url":"Patient/ee13a2d8-61d9-4d2f-8f13-1423bd271950"}}]}