{"resourceType":"Bundle","id":"tests-5fb0b78c-ffd3-47c3-91a3-252bc4a70177-bundle","type":"transaction","entry":[{"fullUrl":"Bundle/661476b015ed5841a5547ebf","resource":{"resourceType":"Bundle","id":"661476b015ed5841a5547ebf","type":"transaction","entry":[{"fullUrl":"https://madie.cms.gov/Patient/5fb0b78c-ffd3-47c3-91a3-252bc4a70177","resource":{"resourceType":"Patient","id":"5fb0b78c-ffd3-47c3-91a3-252bc4a70177","meta":{"profile":["http://hl7.org/fhir/us/qicore/StructureDefinition/qicore-patient"]},"extension":[{"url":"http://hl7.org/fhir/us/core/StructureDefinition/us-core-race","extension":[{"url":"ombCategory","valueCoding":{"system":"urn:oid:2.16.840.1.113883.6.238","code":"1002-5","display":"American Indian or Alaska Native","userSelected":true}},{"url":"text","valueString":"American Indian or Alaska Native"}]},{"url":"http://hl7.org/fhir/us/core/StructureDefinition/us-core-ethnicity","extension":[{"url":"ombCategory","valueCoding":{"system":"urn:oid:2.16.840.1.113883.6.238","code":"2135-2","display":"Hispanic or Latino","userSelected":true}},{"url":"text","valueString":"Hispanic or Latino"}]},{"url":"http://hl7.org/fhir/us/core/StructureDefinition/us-core-sex","valueCode":"248153007"}],"identifier":[{"type":{"coding":[{"system":"http://terminology.hl7.org/CodeSystem/v2-0203","code":"MR"}]},"system":"https://bonnie-fhir.healthit.gov/","value":"661476b015ed5841a5547ebf"}],"name":[{"family":"NUMEXStrat2Pass","given":["EDObsBoarded"]}],"gender":"male","birthDate":"2008-01-01"},"request":{"method":"PUT","url":"Patient/5fb0b78c-ffd3-47c3-91a3-252bc4a70177"}},{"fullUrl":"https://madie.cms.gov/Encounter/15f5af98-e1ae-423c-9903-68c7bca725ce","resource":{"resourceType":"Encounter","id":"15f5af98-e1ae-423c-9903-68c7bca725ce","meta":{"profile":["http://hl7.org/fhir/us/qicore/StructureDefinition/qicore-encounter"]},"status":"finished","class":{"system":"http://terminology.hl7.org/CodeSystem/v3-ActCode","code":"EMER","display":"emergency department"},"type":[{"coding":[{"system":"http://snomed.info/sct","version":"2023-09","code":"4525004","display":"Emergency department patient visit (procedure)","userSelected":true}]}],"subject":{"reference":"Patient/5fb0b78c-ffd3-47c3-91a3-252bc4a70177"},"period":{"start":"2027-05-01T00:00:00.000+00:00","end":"2027-05-01T06:00:00.000+00:00"},"diagnosis":[{"condition":{"reference":"Condition/2bb053a4-ac56-432f-bed2-3b53d955463a"},"use":{"coding":[{"system":"http://terminology.hl7.org/CodeSystem/diagnosis-role","code":"billing"}]},"rank":1}],"location":[{"location":{"reference":"Location/1d25a9f4-04d7-4e95-94e7-37e81e8ec09b"},"period":{"start":"2027-05-01T00:00:00.000+00:00","end":"2027-05-01T10:01:00.000+00:00"}}]},"request":{"method":"PUT","url":"Encounter/15f5af98-e1ae-423c-9903-68c7bca725ce"}},{"fullUrl":"https://madie.cms.gov/ServiceRequest/21c5083c-fcff-4832-b65f-be1b7bf3faf1","resource":{"resourceType":"ServiceRequest","id":"21c5083c-fcff-4832-b65f-be1b7bf3faf1","meta":{"profile":["http://hl7.org/fhir/us/qicore/StructureDefinition/qicore-servicerequest"]},"status":"active","intent":"order","code":{"coding":[{"system":"http://snomed.info/sct","code":"19712007","display":"Patient transfer, to another health care facility (procedure)","userSelected":true}]},"subject":{"reference":"Patient/5fb0b78c-ffd3-47c3-91a3-252bc4a70177"},"authoredOn":"2027-05-01T02:00:00.000+00:00"},"request":{"method":"PUT","url":"ServiceRequest/21c5083c-fcff-4832-b65f-be1b7bf3faf1"}},{"fullUrl":"https://madie.cms.gov/Location/1d25a9f4-04d7-4e95-94e7-37e81e8ec09b","resource":{"resourceType":"Location","id":"1d25a9f4-04d7-4e95-94e7-37e81e8ec09b","meta":{"profile":["http://hl7.org/fhir/us/qicore/StructureDefinition/qicore-location"]},"identifier":[{"use":"usual","system":"http://exampleoflocation.com","value":"B1-S.F2"}],"name":"MEmergency Department","type":[{"coding":[{"system":"https://www.cdc.gov/nhsn/cdaportal/terminology/codesystem/hsloc.html","version":"2022","code":"1108-0","display":"Emergency Department","userSelected":true}]}]},"request":{"method":"PUT","url":"Location/1d25a9f4-04d7-4e95-94e7-37e81e8ec09b"}},{"fullUrl":"https://madie.cms.gov/claim/ClaimBehavior-NotSubsAbuse","resource":{"resourceType":"Claim","id":"ClaimBehavior-NotSubsAbuse","meta":{"profile":["http://hl7.org/fhir/us/qicore/StructureDefinition/qicore-claim"]},"status":"active","type":{"coding":[{"system":"http://terminology.hl7.org/CodeSystem/claim-type","code":"institutional"}]},"use":"claim","patient":{"reference":"Patient/77bbd0e5-2a32-49f7-bddc-f079dfeadbb4"},"created":"2027-05-01","provider":{"reference":"Practitioner/practitioner-123456"},"priority":{"coding":[{"system":"http://terminology.hl7.org/CodeSystem/processpriority","code":"normal"}]},"diagnosis":[{"sequence":1,"diagnosisReference":{"reference":"Condition/2bb053a4-ac56-432f-bed2-3b53d955463a"},"type":[{"coding":[{"system":"http://terminology.hl7.org/CodeSystem/ex-diagnosistype","code":"principal"}]}]}],"insurance":[{"sequence":1,"focal":true,"coverage":{"reference":"Coverage/1"}}],"item":[{"sequence":1,"diagnosisSequence":[1],"productOrService":{"coding":[{"system":"http://terminology.hl7.org/CodeSystem/ex-USCLS","code":"99555"}]},"encounter":[{"reference":"Encounter/15f5af98-e1ae-423c-9903-68c7bca725ce"}]}]},"request":{"method":"PUT","url":"Claim/ClaimBehavior-NotSubsAbuse"}},{"fullUrl":"https://madie.cms.gov/Coverage/211b4a64-1987-4cb4-9beb-07dc7bce6acf","resource":{"resourceType":"Coverage","id":"211b4a64-1987-4cb4-9beb-07dc7bce6acf","meta":{"profile":["http://hl7.org/fhir/us/qicore/StructureDefinition/qicore-coverage"]},"identifier":[{"type":{"coding":[{"system":"http://terminology.hl7.org/CodeSystem/v2-0203","code":"MB"}]}}],"status":"active","beneficiary":{"reference":"Patient/5fb0b78c-ffd3-47c3-91a3-252bc4a70177"},"relationship":{"coding":[{"system":"http://terminology.hl7.org/CodeSystem/subscriber-relationship","code":"self"}]},"payor":[{"reference":"Organization/ece8ef58-c14c-4024-8cca-b099873445b8"}]},"request":{"method":"PUT","url":"Coverage/211b4a64-1987-4cb4-9beb-07dc7bce6acf"}},{"fullUrl":"https://madie.cms.gov/Condition/2bb053a4-ac56-432f-bed2-3b53d955463a","resource":{"resourceType":"Condition","id":"2bb053a4-ac56-432f-bed2-3b53d955463a","meta":{"profile":["http://hl7.org/fhir/us/qicore/StructureDefinition/qicore-condition-encounter-diagnosis"]},"category":[{"coding":[{"system":"http://terminology.hl7.org/CodeSystem/condition-category","code":"encounter-diagnosis","display":"Encounter Diagnosis"}]}],"code":{"coding":[{"system":"http://snomed.info/sct","version":"2023-09","code":"10674711000119105","display":"Acute severe exacerbation of asthma co-occurrent with allergic rhinitis (disorder)","userSelected":true}]},"subject":{"reference":"Patient/5fb0b78c-ffd3-47c3-91a3-252bc4a70177"},"recordedDate":"2027-05-01T08:00:00.000+00:00"},"request":{"method":"PUT","url":"Condition/2bb053a4-ac56-432f-bed2-3b53d955463a"}},{"fullUrl":"https://madie.cms.gov/Encounter/031f3066-af35-4e67-a642-99ea417600de","resource":{"resourceType":"Encounter","id":"031f3066-af35-4e67-a642-99ea417600de","meta":{"profile":["http://hl7.org/fhir/us/qicore/StructureDefinition/qicore-encounter"]},"status":"finished","class":{"system":"http://terminology.hl7.org/CodeSystem/v3-ActCode","code":"EMER","display":"emergency"},"type":[{"coding":[{"system":"http://snomed.info/sct","code":"448951000124107","display":"Admission to observation unit (procedure)","userSelected":true}]}],"subject":{"reference":"Patient/5fb0b78c-ffd3-47c3-91a3-252bc4a70177"},"period":{"start":"2027-05-01T01:01:00.000+00:00","end":"2027-05-01T05:59:00.000+00:00"}},"request":{"method":"PUT","url":"Encounter/031f3066-af35-4e67-a642-99ea417600de"}},{"fullUrl":"https://madie.cms.gov/Organization/ece8ef58-c14c-4024-8cca-b099873445b8","resource":{"resourceType":"Organization","id":"ece8ef58-c14c-4024-8cca-b099873445b8","meta":{"profile":["http://hl7.org/fhir/us/qicore/StructureDefinition/qicore-organization"]},"identifier":[{"use":"temp","system":"urn:oid:2.16.840.1.113883.4.4","value":"21-3259825"}],"active":true,"type":[{"coding":[{"system":"http://terminology.hl7.org/CodeSystem/organization-type","code":"pay","display":"Payer"}]}],"name":"Blue Cross Blue Shield of Texas","telecom":[{"system":"phone","value":"(+1) 972-766-6900"}],"address":[{"use":"billing","type":"postal","line":["P.O. Box 660044"],"city":"Dallas","state":"TX","postalCode":"75266-0044","country":"USA"}]},"request":{"method":"PUT","url":"Organization/ece8ef58-c14c-4024-8cca-b099873445b8"}},{"fullUrl":"https://madie.cms.gov/Practitioner/ef563a95-0f92-4b94-842a-fc2e397d0de5","resource":{"resourceType":"Practitioner","id":"ef563a95-0f92-4b94-842a-fc2e397d0de5","meta":{"profile":["http://hl7.org/fhir/us/qicore/StructureDefinition/qicore-practitioner"]},"identifier":[{"system":"http://hl7.org/fhir/sid/us-npi","value":"9999999896"}],"name":[{"family":"Evil","prefix":["Dr"]}]},"request":{"method":"PUT","url":"Practitioner/ef563a95-0f92-4b94-842a-fc2e397d0de5"}},{"fullUrl":"https://madie.cms.gov/MeasureReport/77156b80-f23b-4dd4-a69d-c9a402051cf8","resource":{"resourceType":"MeasureReport","id":"77156b80-f23b-4dd4-a69d-c9a402051cf8","meta":{"profile":["http://hl7.org/fhir/us/cqfmeasures/StructureDefinition/test-case-cqfm"]},"contained":[{"resourceType":"Parameters","id":"d70d87a4-3872-4dc6-904b-fbb0a19e8b18-parameters","parameter":[{"name":"subject","valueString":"5fb0b78c-ffd3-47c3-91a3-252bc4a70177"}]}],"extension":[{"url":"http://hl7.org/fhir/StructureDefinition/cqf-inputParameters","valueReference":{"reference":"#d70d87a4-3872-4dc6-904b-fbb0a19e8b18-parameters"}},{"url":"http://hl7.org/fhir/us/cqfmeasures/StructureDefinition/cqfm-testCaseDescription","valueMarkdown":"Adult, ED observation during ED enc where patient was boarded 6 hrs 1 min; Enc 8 hrs, enc departure 8 hrs 1 min, asthma"}],"modifierExtension":[{"url":"http://hl7.org/fhir/us/cqfmeasures/StructureDefinition/cqfm-isTestCase","valueBoolean":true}],"status":"complete","type":"individual","measure":"https://madie.cms.gov/Measure/CMS1264FHIRECATREHQR","period":{"start":"2027-01-01","end":"2027-12-31"},"group":[{"id":"Group_1","population":[{"id":"InitialPopulation_1","code":{"coding":[{"system":"http://terminology.hl7.org/CodeSystem/measure-population","code":"initial-population","display":"Initial Population"}]},"count":1},{"id":"Denominator_1","code":{"coding":[{"system":"http://terminology.hl7.org/CodeSystem/measure-population","code":"denominator","display":"Denominator"}]},"count":1},{"id":"Numerator_1","code":{"coding":[{"system":"http://terminology.hl7.org/CodeSystem/measure-population","code":"numerator","display":"Numerator"}]},"count":0}],"measureScore":{"value":0.0},"stratifier":[{"id":"Stratification_1_1","code":[{"text":"Strata-1"}],"stratum":[{"value":{"text":"Strata-1"},"population":[{"id":"InitialPopulation_1","code":{"coding":[{"system":"http://terminology.hl7.org/CodeSystem/measure-population","code":"initial-population","display":"Initial Population"}]},"count":0},{"id":"Denominator_1","code":{"coding":[{"system":"http://terminology.hl7.org/CodeSystem/measure-population","code":"denominator","display":"Denominator"}]},"count":0},{"id":"Numerator_1","code":{"coding":[{"system":"http://terminology.hl7.org/CodeSystem/measure-population","code":"numerator","display":"Numerator"}]},"count":0}]}]},{"id":"Stratification_1_2","code":[{"text":"Strata-2"}],"stratum":[{"value":{"text":"Strata-2"},"population":[{"id":"InitialPopulation_1","code":{"coding":[{"system":"http://terminology.hl7.org/CodeSystem/measure-population","code":"initial-population","display":"Initial Population"}]},"count":1},{"id":"Denominator_1","code":{"coding":[{"system":"http://terminology.hl7.org/CodeSystem/measure-population","code":"denominator","display":"Denominator"}]},"count":1},{"id":"Numerator_1","code":{"coding":[{"system":"http://terminology.hl7.org/CodeSystem/measure-population","code":"numerator","display":"Numerator"}]},"count":0}]}]},{"id":"Stratification_1_3","code":[{"text":"Strata-3"}],"stratum":[{"value":{"text":"Strata-3"},"population":[{"id":"InitialPopulation_1","code":{"coding":[{"system":"http://terminology.hl7.org/CodeSystem/measure-population","code":"initial-population","display":"Initial Population"}]},"count":0},{"id":"Denominator_1","code":{"coding":[{"system":"http://terminology.hl7.org/CodeSystem/measure-population","code":"denominator","display":"Denominator"}]},"count":0},{"id":"Numerator_1","code":{"coding":[{"system":"http://terminology.hl7.org/CodeSystem/measure-population","code":"numerator","display":"Numerator"}]},"count":0}]}]},{"id":"Stratification_1_4","code":[{"text":"Strata-4"}],"stratum":[{"value":{"text":"Strata-4"},"population":[{"id":"InitialPopulation_1","code":{"coding":[{"system":"http://terminology.hl7.org/CodeSystem/measure-population","code":"initial-population","display":"Initial Population"}]},"count":0},{"id":"Denominator_1","code":{"coding":[{"system":"http://terminology.hl7.org/CodeSystem/measure-population","code":"denominator","display":"Denominator"}]},"count":0},{"id":"Numerator_1","code":{"coding":[{"system":"http://terminology.hl7.org/CodeSystem/measure-population","code":"numerator","display":"Numerator"}]},"count":0}]}]}]}],"evaluatedResource":[{"reference":"Patient/5fb0b78c-ffd3-47c3-91a3-252bc4a70177"},{"reference":"Encounter/15f5af98-e1ae-423c-9903-68c7bca725ce"},{"reference":"ServiceRequest/21c5083c-fcff-4832-b65f-be1b7bf3faf1"},{"reference":"Location/1d25a9f4-04d7-4e95-94e7-37e81e8ec09b"},{"reference":"Claim/ClaimBehavior-NotSubsAbuse"},{"reference":"Coverage/211b4a64-1987-4cb4-9beb-07dc7bce6acf"},{"reference":"Condition/2bb053a4-ac56-432f-bed2-3b53d955463a"},{"reference":"Encounter/031f3066-af35-4e67-a642-99ea417600de"},{"reference":"Organization/ece8ef58-c14c-4024-8cca-b099873445b8"},{"reference":"Practitioner/ef563a95-0f92-4b94-842a-fc2e397d0de5"}]},"request":{"method":"PUT","url":"MeasureReport/77156b80-f23b-4dd4-a69d-c9a402051cf8"}}]},"request":{"method":"PUT","url":"Bundle/661476b015ed5841a5547ebf"}},{"fullUrl":"Practitioner/ef563a95-0f92-4b94-842a-fc2e397d0de5","resource":{"resourceType":"Practitioner","id":"ef563a95-0f92-4b94-842a-fc2e397d0de5","meta":{"profile":["http://hl7.org/fhir/us/qicore/StructureDefinition/qicore-practitioner"]},"identifier":[{"system":"http://hl7.org/fhir/sid/us-npi","value":"9999999896"}],"name":[{"family":"Evil","prefix":["Dr"]}]},"request":{"method":"PUT","url":"Practitioner/ef563a95-0f92-4b94-842a-fc2e397d0de5"}},{"fullUrl":"Coverage/211b4a64-1987-4cb4-9beb-07dc7bce6acf","resource":{"resourceType":"Coverage","id":"211b4a64-1987-4cb4-9beb-07dc7bce6acf","meta":{"profile":["http://hl7.org/fhir/us/qicore/StructureDefinition/qicore-coverage"]},"identifier":[{"type":{"coding":[{"system":"http://terminology.hl7.org/CodeSystem/v2-0203","code":"MB"}]}}],"status":"active","beneficiary":{"reference":"Patient/5fb0b78c-ffd3-47c3-91a3-252bc4a70177"},"relationship":{"coding":[{"system":"http://terminology.hl7.org/CodeSystem/subscriber-relationship","code":"self"}]},"payor":[{"reference":"Organization/ece8ef58-c14c-4024-8cca-b099873445b8"}]},"request":{"method":"PUT","url":"Coverage/211b4a64-1987-4cb4-9beb-07dc7bce6acf"}},{"fullUrl":"Encounter/15f5af98-e1ae-423c-9903-68c7bca725ce","resource":{"resourceType":"Encounter","id":"15f5af98-e1ae-423c-9903-68c7bca725ce","meta":{"profile":["http://hl7.org/fhir/us/qicore/StructureDefinition/qicore-encounter"]},"status":"finished","class":{"system":"http://terminology.hl7.org/CodeSystem/v3-ActCode","code":"EMER","display":"emergency department"},"type":[{"coding":[{"system":"http://snomed.info/sct","version":"2023-09","code":"4525004","display":"Emergency department patient visit (procedure)","userSelected":true}]}],"subject":{"reference":"Patient/5fb0b78c-ffd3-47c3-91a3-252bc4a70177"},"period":{"start":"2027-05-01T00:00:00.000+00:00","end":"2027-05-01T06:00:00.000+00:00"},"diagnosis":[{"condition":{"reference":"Condition/2bb053a4-ac56-432f-bed2-3b53d955463a"},"use":{"coding":[{"system":"http://terminology.hl7.org/CodeSystem/diagnosis-role","code":"billing"}]},"rank":1}],"location":[{"location":{"reference":"Location/1d25a9f4-04d7-4e95-94e7-37e81e8ec09b"},"period":{"start":"2027-05-01T00:00:00.000+00:00","end":"2027-05-01T10:01:00.000+00:00"}}]},"request":{"method":"PUT","url":"Encounter/15f5af98-e1ae-423c-9903-68c7bca725ce"}},{"fullUrl":"MeasureReport/77156b80-f23b-4dd4-a69d-c9a402051cf8","resource":{"resourceType":"MeasureReport","id":"77156b80-f23b-4dd4-a69d-c9a402051cf8","meta":{"profile":["http://hl7.org/fhir/us/cqfmeasures/StructureDefinition/test-case-cqfm"]},"contained":[{"resourceType":"Parameters","id":"d70d87a4-3872-4dc6-904b-fbb0a19e8b18-parameters","parameter":[{"name":"subject","valueString":"5fb0b78c-ffd3-47c3-91a3-252bc4a70177"}]}],"extension":[{"url":"http://hl7.org/fhir/StructureDefinition/cqf-inputParameters","valueReference":{"reference":"#d70d87a4-3872-4dc6-904b-fbb0a19e8b18-parameters"}},{"url":"http://hl7.org/fhir/us/cqfmeasures/StructureDefinition/cqfm-testCaseDescription","valueMarkdown":"Adult, ED observation during ED enc where patient was boarded 6 hrs 1 min; Enc 8 hrs, enc departure 8 hrs 1 min, asthma"}],"modifierExtension":[{"url":"http://hl7.org/fhir/us/cqfmeasures/StructureDefinition/cqfm-isTestCase","valueBoolean":true}],"status":"complete","type":"individual","measure":"https://madie.cms.gov/Measure/CMS1264FHIRECATREHQR","period":{"start":"2027-01-01","end":"2027-12-31"},"group":[{"id":"Group_1","population":[{"id":"InitialPopulation_1","code":{"coding":[{"system":"http://terminology.hl7.org/CodeSystem/measure-population","code":"initial-population","display":"Initial Population"}]},"count":1},{"id":"Denominator_1","code":{"coding":[{"system":"http://terminology.hl7.org/CodeSystem/measure-population","code":"denominator","display":"Denominator"}]},"count":1},{"id":"Numerator_1","code":{"coding":[{"system":"http://terminology.hl7.org/CodeSystem/measure-population","code":"numerator","display":"Numerator"}]},"count":0}],"measureScore":{"value":0.0},"stratifier":[{"id":"Stratification_1_1","code":[{"text":"Strata-1"}],"stratum":[{"value":{"text":"Strata-1"},"population":[{"id":"InitialPopulation_1","code":{"coding":[{"system":"http://terminology.hl7.org/CodeSystem/measure-population","code":"initial-population","display":"Initial Population"}]},"count":0},{"id":"Denominator_1","code":{"coding":[{"system":"http://terminology.hl7.org/CodeSystem/measure-population","code":"denominator","display":"Denominator"}]},"count":0},{"id":"Numerator_1","code":{"coding":[{"system":"http://terminology.hl7.org/CodeSystem/measure-population","code":"numerator","display":"Numerator"}]},"count":0}]}]},{"id":"Stratification_1_2","code":[{"text":"Strata-2"}],"stratum":[{"value":{"text":"Strata-2"},"population":[{"id":"InitialPopulation_1","code":{"coding":[{"system":"http://terminology.hl7.org/CodeSystem/measure-population","code":"initial-population","display":"Initial Population"}]},"count":1},{"id":"Denominator_1","code":{"coding":[{"system":"http://terminology.hl7.org/CodeSystem/measure-population","code":"denominator","display":"Denominator"}]},"count":1},{"id":"Numerator_1","code":{"coding":[{"system":"http://terminology.hl7.org/CodeSystem/measure-population","code":"numerator","display":"Numerator"}]},"count":0}]}]},{"id":"Stratification_1_3","code":[{"text":"Strata-3"}],"stratum":[{"value":{"text":"Strata-3"},"population":[{"id":"InitialPopulation_1","code":{"coding":[{"system":"http://terminology.hl7.org/CodeSystem/measure-population","code":"initial-population","display":"Initial Population"}]},"count":0},{"id":"Denominator_1","code":{"coding":[{"system":"http://terminology.hl7.org/CodeSystem/measure-population","code":"denominator","display":"Denominator"}]},"count":0},{"id":"Numerator_1","code":{"coding":[{"system":"http://terminology.hl7.org/CodeSystem/measure-population","code":"numerator","display":"Numerator"}]},"count":0}]}]},{"id":"Stratification_1_4","code":[{"text":"Strata-4"}],"stratum":[{"value":{"text":"Strata-4"},"population":[{"id":"InitialPopulation_1","code":{"coding":[{"system":"http://terminology.hl7.org/CodeSystem/measure-population","code":"initial-population","display":"Initial Population"}]},"count":0},{"id":"Denominator_1","code":{"coding":[{"system":"http://terminology.hl7.org/CodeSystem/measure-population","code":"denominator","display":"Denominator"}]},"count":0},{"id":"Numerator_1","code":{"coding":[{"system":"http://terminology.hl7.org/CodeSystem/measure-population","code":"numerator","display":"Numerator"}]},"count":0}]}]}]}],"evaluatedResource":[{"reference":"Patient/5fb0b78c-ffd3-47c3-91a3-252bc4a70177"},{"reference":"Encounter/15f5af98-e1ae-423c-9903-68c7bca725ce"},{"reference":"ServiceRequest/21c5083c-fcff-4832-b65f-be1b7bf3faf1"},{"reference":"Location/1d25a9f4-04d7-4e95-94e7-37e81e8ec09b"},{"reference":"Claim/ClaimBehavior-NotSubsAbuse"},{"reference":"Coverage/211b4a64-1987-4cb4-9beb-07dc7bce6acf"},{"reference":"Condition/2bb053a4-ac56-432f-bed2-3b53d955463a"},{"reference":"Encounter/031f3066-af35-4e67-a642-99ea417600de"},{"reference":"Organization/ece8ef58-c14c-4024-8cca-b099873445b8"},{"reference":"Practitioner/ef563a95-0f92-4b94-842a-fc2e397d0de5"}]},"request":{"method":"PUT","url":"MeasureReport/77156b80-f23b-4dd4-a69d-c9a402051cf8"}},{"fullUrl":"ServiceRequest/21c5083c-fcff-4832-b65f-be1b7bf3faf1","resource":{"resourceType":"ServiceRequest","id":"21c5083c-fcff-4832-b65f-be1b7bf3faf1","meta":{"profile":["http://hl7.org/fhir/us/qicore/StructureDefinition/qicore-servicerequest"]},"status":"active","intent":"order","code":{"coding":[{"system":"http://snomed.info/sct","code":"19712007","display":"Patient transfer, to another health care facility (procedure)","userSelected":true}]},"subject":{"reference":"Patient/5fb0b78c-ffd3-47c3-91a3-252bc4a70177"},"authoredOn":"2027-05-01T02:00:00.000+00:00"},"request":{"method":"PUT","url":"ServiceRequest/21c5083c-fcff-4832-b65f-be1b7bf3faf1"}},{"fullUrl":"Patient/5fb0b78c-ffd3-47c3-91a3-252bc4a70177","resource":{"resourceType":"Patient","id":"5fb0b78c-ffd3-47c3-91a3-252bc4a70177","meta":{"profile":["http://hl7.org/fhir/us/qicore/StructureDefinition/qicore-patient"]},"extension":[{"url":"http://hl7.org/fhir/us/core/StructureDefinition/us-core-race","extension":[{"url":"ombCategory","valueCoding":{"system":"urn:oid:2.16.840.1.113883.6.238","code":"1002-5","display":"American Indian or Alaska Native","userSelected":true}},{"url":"text","valueString":"American Indian or Alaska Native"}]},{"url":"http://hl7.org/fhir/us/core/StructureDefinition/us-core-ethnicity","extension":[{"url":"ombCategory","valueCoding":{"system":"urn:oid:2.16.840.1.113883.6.238","code":"2135-2","display":"Hispanic or Latino","userSelected":true}},{"url":"text","valueString":"Hispanic or Latino"}]},{"url":"http://hl7.org/fhir/us/core/StructureDefinition/us-core-sex","valueCode":"248153007"}],"identifier":[{"type":{"coding":[{"system":"http://terminology.hl7.org/CodeSystem/v2-0203","code":"MR"}]},"system":"https://bonnie-fhir.healthit.gov/","value":"661476b015ed5841a5547ebf"}],"name":[{"family":"NUMEXStrat2Pass","given":["EDObsBoarded"]}],"gender":"male","birthDate":"2008-01-01"},"request":{"method":"PUT","url":"Patient/5fb0b78c-ffd3-47c3-91a3-252bc4a70177"}},{"fullUrl":"Location/1d25a9f4-04d7-4e95-94e7-37e81e8ec09b","resource":{"resourceType":"Location","id":"1d25a9f4-04d7-4e95-94e7-37e81e8ec09b","meta":{"profile":["http://hl7.org/fhir/us/qicore/StructureDefinition/qicore-location"]},"identifier":[{"use":"usual","system":"http://exampleoflocation.com","value":"B1-S.F2"}],"name":"MEmergency Department","type":[{"coding":[{"system":"https://www.cdc.gov/nhsn/cdaportal/terminology/codesystem/hsloc.html","version":"2022","code":"1108-0","display":"Emergency Department","userSelected":true}]}]},"request":{"method":"PUT","url":"Location/1d25a9f4-04d7-4e95-94e7-37e81e8ec09b"}},{"fullUrl":"Organization/ece8ef58-c14c-4024-8cca-b099873445b8","resource":{"resourceType":"Organization","id":"ece8ef58-c14c-4024-8cca-b099873445b8","meta":{"profile":["http://hl7.org/fhir/us/qicore/StructureDefinition/qicore-organization"]},"identifier":[{"use":"temp","system":"urn:oid:2.16.840.1.113883.4.4","value":"21-3259825"}],"active":true,"type":[{"coding":[{"system":"http://terminology.hl7.org/CodeSystem/organization-type","code":"pay","display":"Payer"}]}],"name":"Blue Cross Blue Shield of Texas","telecom":[{"system":"phone","value":"(+1) 972-766-6900"}],"address":[{"use":"billing","type":"postal","line":["P.O. Box 660044"],"city":"Dallas","state":"TX","postalCode":"75266-0044","country":"USA"}]},"request":{"method":"PUT","url":"Organization/ece8ef58-c14c-4024-8cca-b099873445b8"}},{"fullUrl":"Claim/ClaimBehavior-NotSubsAbuse","resource":{"resourceType":"Claim","id":"ClaimBehavior-NotSubsAbuse","meta":{"profile":["http://hl7.org/fhir/us/qicore/StructureDefinition/qicore-claim"]},"status":"active","type":{"coding":[{"system":"http://terminology.hl7.org/CodeSystem/claim-type","code":"institutional"}]},"use":"claim","patient":{"reference":"Patient/77bbd0e5-2a32-49f7-bddc-f079dfeadbb4"},"created":"2027-05-01","provider":{"reference":"Practitioner/practitioner-123456"},"priority":{"coding":[{"system":"http://terminology.hl7.org/CodeSystem/processpriority","code":"normal"}]},"diagnosis":[{"sequence":1,"diagnosisReference":{"reference":"Condition/2bb053a4-ac56-432f-bed2-3b53d955463a"},"type":[{"coding":[{"system":"http://terminology.hl7.org/CodeSystem/ex-diagnosistype","code":"principal"}]}]}],"insurance":[{"sequence":1,"focal":true,"coverage":{"reference":"Coverage/1"}}],"item":[{"sequence":1,"diagnosisSequence":[1],"productOrService":{"coding":[{"system":"http://terminology.hl7.org/CodeSystem/ex-USCLS","code":"99555"}]},"encounter":[{"reference":"Encounter/15f5af98-e1ae-423c-9903-68c7bca725ce"}]}]},"request":{"method":"PUT","url":"Claim/ClaimBehavior-NotSubsAbuse"}},{"fullUrl":"Encounter/031f3066-af35-4e67-a642-99ea417600de","resource":{"resourceType":"Encounter","id":"031f3066-af35-4e67-a642-99ea417600de","meta":{"profile":["http://hl7.org/fhir/us/qicore/StructureDefinition/qicore-encounter"]},"status":"finished","class":{"system":"http://terminology.hl7.org/CodeSystem/v3-ActCode","code":"EMER","display":"emergency"},"type":[{"coding":[{"system":"http://snomed.info/sct","code":"448951000124107","display":"Admission to observation unit (procedure)","userSelected":true}]}],"subject":{"reference":"Patient/5fb0b78c-ffd3-47c3-91a3-252bc4a70177"},"period":{"start":"2027-05-01T01:01:00.000+00:00","end":"2027-05-01T05:59:00.000+00:00"}},"request":{"method":"PUT","url":"Encounter/031f3066-af35-4e67-a642-99ea417600de"}},{"fullUrl":"Condition/2bb053a4-ac56-432f-bed2-3b53d955463a","resource":{"resourceType":"Condition","id":"2bb053a4-ac56-432f-bed2-3b53d955463a","meta":{"profile":["http://hl7.org/fhir/us/qicore/StructureDefinition/qicore-condition-encounter-diagnosis"]},"category":[{"coding":[{"system":"http://terminology.hl7.org/CodeSystem/condition-category","code":"encounter-diagnosis","display":"Encounter Diagnosis"}]}],"code":{"coding":[{"system":"http://snomed.info/sct","version":"2023-09","code":"10674711000119105","display":"Acute severe exacerbation of asthma co-occurrent with allergic rhinitis (disorder)","userSelected":true}]},"subject":{"reference":"Patient/5fb0b78c-ffd3-47c3-91a3-252bc4a70177"},"recordedDate":"2027-05-01T08:00:00.000+00:00"},"request":{"method":"PUT","url":"Condition/2bb053a4-ac56-432f-bed2-3b53d955463a"}}]}