{"resourceType":"Bundle","id":"tests-dfd5dc6b-3299-4e4f-ae02-45f251e1f75b-bundle","type":"transaction","entry":[{"fullUrl":"Coverage/5bad90d7-bc94-4f37-b7d9-29a35a6b2038","resource":{"resourceType":"Coverage","id":"5bad90d7-bc94-4f37-b7d9-29a35a6b2038","meta":{"profile":["http://hl7.org/fhir/us/qicore/StructureDefinition/qicore-coverage"]},"identifier":[{"type":{"coding":[{"system":"http://terminology.hl7.org/CodeSystem/v2-0203","code":"MB"}]}}],"status":"active","beneficiary":{"reference":"Patient/dfd5dc6b-3299-4e4f-ae02-45f251e1f75b"},"relationship":{"coding":[{"system":"http://terminology.hl7.org/CodeSystem/subscriber-relationship","code":"self"}]},"payor":[{"reference":"Organization/163e0030-7d5b-4c7a-bd82-57b4fa38eb29"}]},"request":{"method":"PUT","url":"Coverage/5bad90d7-bc94-4f37-b7d9-29a35a6b2038"}},{"fullUrl":"Practitioner/a12d824b-24b8-4008-a1c4-c3d896555d58","resource":{"resourceType":"Practitioner","id":"a12d824b-24b8-4008-a1c4-c3d896555d58","meta":{"profile":["http://hl7.org/fhir/us/qicore/StructureDefinition/qicore-practitioner"]},"identifier":[{"system":"http://hl7.org/fhir/sid/us-npi","value":"9999999896"}],"name":[{"family":"Evil","prefix":["Dr"]}]},"request":{"method":"PUT","url":"Practitioner/a12d824b-24b8-4008-a1c4-c3d896555d58"}},{"fullUrl":"Location/a8ec8a0d-5f9d-47f2-a879-aaaf4cc98133","resource":{"resourceType":"Location","id":"a8ec8a0d-5f9d-47f2-a879-aaaf4cc98133","meta":{"profile":["http://hl7.org/fhir/us/qicore/StructureDefinition/qicore-location"]},"identifier":[{"use":"usual","system":"http://exampleoflocation.com","value":"B1-S.F2"}],"name":"Emergency Department","type":[{"coding":[{"system":"https://www.cdc.gov/nhsn/cdaportal/terminology/codesystem/hsloc.html","version":"2022","code":"1108-0","display":"Emergency Department","userSelected":true}]}]},"request":{"method":"PUT","url":"Location/a8ec8a0d-5f9d-47f2-a879-aaaf4cc98133"}},{"fullUrl":"Bundle/661476b015ed5841a5547ebf","resource":{"resourceType":"Bundle","id":"661476b015ed5841a5547ebf","type":"transaction","entry":[{"fullUrl":"https://madie.cms.gov/Patient/dfd5dc6b-3299-4e4f-ae02-45f251e1f75b","resource":{"resourceType":"Patient","id":"dfd5dc6b-3299-4e4f-ae02-45f251e1f75b","meta":{"profile":["http://hl7.org/fhir/us/qicore/StructureDefinition/qicore-patient"]},"extension":[{"url":"http://hl7.org/fhir/us/core/StructureDefinition/us-core-race","extension":[{"url":"ombCategory","valueCoding":{"system":"urn:oid:2.16.840.1.113883.6.238","code":"1002-5","display":"American Indian or Alaska Native","userSelected":true}},{"url":"text","valueString":"American Indian or Alaska Native"}]},{"url":"http://hl7.org/fhir/us/core/StructureDefinition/us-core-ethnicity","extension":[{"url":"ombCategory","valueCoding":{"system":"urn:oid:2.16.840.1.113883.6.238","code":"2135-2","display":"Hispanic or Latino","userSelected":true}},{"url":"text","valueString":"Hispanic or Latino"}]},{"url":"http://hl7.org/fhir/us/core/StructureDefinition/us-core-sex","valueCode":"248153007"}],"identifier":[{"type":{"coding":[{"system":"http://terminology.hl7.org/CodeSystem/v2-0203","code":"MR"}]},"system":"https://bonnie-fhir.healthit.gov/","value":"661476b015ed5841a5547ebf"}],"name":[{"family":"NUMEXStrat4Pass","given":["EDOBSOrderBoarded"]}],"gender":"male","birthDate":"2009-01-01"},"request":{"method":"PUT","url":"Patient/dfd5dc6b-3299-4e4f-ae02-45f251e1f75b"}},{"fullUrl":"https://madie.cms.gov/Encounter/f022a772-053b-45a8-9f5f-dfc9ecb23156","resource":{"resourceType":"Encounter","id":"f022a772-053b-45a8-9f5f-dfc9ecb23156","meta":{"profile":["http://hl7.org/fhir/us/qicore/StructureDefinition/qicore-encounter"]},"status":"finished","class":{"system":"http://terminology.hl7.org/CodeSystem/v3-ActCode","code":"EMER","display":"emergency department"},"type":[{"coding":[{"system":"http://snomed.info/sct","version":"2023-09","code":"4525004","display":"Emergency department patient visit (procedure)","userSelected":true}]}],"subject":{"reference":"Patient/dfd5dc6b-3299-4e4f-ae02-45f251e1f75b"},"period":{"start":"2027-05-01T00:00:00.000+00:00","end":"2027-05-01T06:00:00.000+00:00"},"diagnosis":[{"condition":{"reference":"Condition/73d3b12b-ccc9-49db-856b-16537d65e5df"},"use":{"coding":[{"system":"http://terminology.hl7.org/CodeSystem/diagnosis-role","code":"billing"}]},"rank":1}],"location":[{"location":{"reference":"Location/a8ec8a0d-5f9d-47f2-a879-aaaf4cc98133"},"period":{"start":"2027-05-01T00:00:00.000+00:00","end":"2027-05-01T06:01:00.000+00:00"}}]},"request":{"method":"PUT","url":"Encounter/f022a772-053b-45a8-9f5f-dfc9ecb23156"}},{"fullUrl":"https://madie.cms.gov/ServiceRequest/27b1ccd5-75cf-43d0-957f-bc36b3e5d23a","resource":{"resourceType":"ServiceRequest","id":"27b1ccd5-75cf-43d0-957f-bc36b3e5d23a","meta":{"profile":["http://hl7.org/fhir/us/qicore/StructureDefinition/qicore-servicerequest"]},"status":"completed","intent":"order","code":{"coding":[{"system":"http://snomed.info/sct","code":"19712007","display":"Patient transfer, to another health care facility (procedure)","userSelected":true}]},"subject":{"reference":"Patient/dfd5dc6b-3299-4e4f-ae02-45f251e1f75b"},"authoredOn":"2027-05-01T02:00:00.000+00:00"},"request":{"method":"PUT","url":"ServiceRequest/27b1ccd5-75cf-43d0-957f-bc36b3e5d23a"}},{"fullUrl":"https://madie.cms.gov/Location/a8ec8a0d-5f9d-47f2-a879-aaaf4cc98133","resource":{"resourceType":"Location","id":"a8ec8a0d-5f9d-47f2-a879-aaaf4cc98133","meta":{"profile":["http://hl7.org/fhir/us/qicore/StructureDefinition/qicore-location"]},"identifier":[{"use":"usual","system":"http://exampleoflocation.com","value":"B1-S.F2"}],"name":"Emergency Department","type":[{"coding":[{"system":"https://www.cdc.gov/nhsn/cdaportal/terminology/codesystem/hsloc.html","version":"2022","code":"1108-0","display":"Emergency Department","userSelected":true}]}]},"request":{"method":"PUT","url":"Location/a8ec8a0d-5f9d-47f2-a879-aaaf4cc98133"}},{"fullUrl":"https://madie.cms.gov/claim/ClaimBehavior-NotSubsAbuse","resource":{"resourceType":"Claim","id":"ClaimBehavior-NotSubsAbuse","meta":{"profile":["http://hl7.org/fhir/us/qicore/StructureDefinition/qicore-claim"]},"status":"active","type":{"coding":[{"system":"http://terminology.hl7.org/CodeSystem/claim-type","code":"institutional"}]},"use":"claim","patient":{"reference":"Patient/dfd5dc6b-3299-4e4f-ae02-45f251e1f75b"},"created":"2027-05-01","provider":{"reference":"Practitioner/practitioner-123456"},"priority":{"coding":[{"system":"http://terminology.hl7.org/CodeSystem/processpriority","code":"normal"}]},"diagnosis":[{"sequence":1,"diagnosisReference":{"reference":"Condition/73d3b12b-ccc9-49db-856b-16537d65e5df"},"type":[{"coding":[{"system":"http://terminology.hl7.org/CodeSystem/ex-diagnosistype","code":"principal"}]}]}],"insurance":[{"sequence":1,"focal":true,"coverage":{"reference":"Coverage/5bad90d7-bc94-4f37-b7d9-29a35a6b2038"}}],"item":[{"sequence":1,"diagnosisSequence":[1],"productOrService":{"coding":[{"system":"http://terminology.hl7.org/CodeSystem/ex-USCLS","code":"99555"}]},"encounter":[{"reference":"Encounter/f022a772-053b-45a8-9f5f-dfc9ecb23156"}]}]},"request":{"method":"PUT","url":"Claim/ClaimBehavior-NotSubsAbuse"}},{"fullUrl":"https://madie.cms.gov/Condition/73d3b12b-ccc9-49db-856b-16537d65e5df","resource":{"resourceType":"Condition","id":"73d3b12b-ccc9-49db-856b-16537d65e5df","meta":{"profile":["http://hl7.org/fhir/us/qicore/StructureDefinition/qicore-condition-encounter-diagnosis"]},"category":[{"coding":[{"system":"http://terminology.hl7.org/CodeSystem/condition-category","code":"encounter-diagnosis","display":"Encounter Diagnosis"}]}],"code":{"coding":[{"system":"http://snomed.info/sct","version":"2023-09","code":"66344007","display":"Recurrent major depression (disorder)","userSelected":true}]},"subject":{"reference":"Patient/dfd5dc6b-3299-4e4f-ae02-45f251e1f75b"},"recordedDate":"2026-04-18T08:00:00.000+00:00"},"request":{"method":"PUT","url":"Condition/73d3b12b-ccc9-49db-856b-16537d65e5df"}},{"fullUrl":"https://madie.cms.gov/Coverage/5bad90d7-bc94-4f37-b7d9-29a35a6b2038","resource":{"resourceType":"Coverage","id":"5bad90d7-bc94-4f37-b7d9-29a35a6b2038","meta":{"profile":["http://hl7.org/fhir/us/qicore/StructureDefinition/qicore-coverage"]},"identifier":[{"type":{"coding":[{"system":"http://terminology.hl7.org/CodeSystem/v2-0203","code":"MB"}]}}],"status":"active","beneficiary":{"reference":"Patient/dfd5dc6b-3299-4e4f-ae02-45f251e1f75b"},"relationship":{"coding":[{"system":"http://terminology.hl7.org/CodeSystem/subscriber-relationship","code":"self"}]},"payor":[{"reference":"Organization/163e0030-7d5b-4c7a-bd82-57b4fa38eb29"}]},"request":{"method":"PUT","url":"Coverage/5bad90d7-bc94-4f37-b7d9-29a35a6b2038"}},{"fullUrl":"https://madie.cms.gov/Encounter/e91bdb41-23e2-4d02-8fcc-496eac85a37f","resource":{"resourceType":"Encounter","id":"e91bdb41-23e2-4d02-8fcc-496eac85a37f","meta":{"profile":["http://hl7.org/fhir/us/qicore/StructureDefinition/qicore-encounter"]},"status":"finished","class":{"system":"http://terminology.hl7.org/CodeSystem/v3-ActCode","code":"EMER","display":"emergency"},"type":[{"coding":[{"system":"http://snomed.info/sct","code":"448951000124107","display":"Admission to observation unit (procedure)","userSelected":true}]}],"subject":{"reference":"Patient/dfd5dc6b-3299-4e4f-ae02-45f251e1f75b"},"period":{"start":"2027-05-01T02:01:00.000+00:00","end":"2027-05-01T05:59:00.000+00:00"}},"request":{"method":"PUT","url":"Encounter/e91bdb41-23e2-4d02-8fcc-496eac85a37f"}},{"fullUrl":"https://madie.cms.gov/Organization/163e0030-7d5b-4c7a-bd82-57b4fa38eb29","resource":{"resourceType":"Organization","id":"163e0030-7d5b-4c7a-bd82-57b4fa38eb29","meta":{"profile":["http://hl7.org/fhir/us/qicore/StructureDefinition/qicore-organization"]},"identifier":[{"use":"temp","system":"urn:oid:2.16.840.1.113883.4.4","value":"21-3259825"}],"active":true,"type":[{"coding":[{"system":"http://terminology.hl7.org/CodeSystem/organization-type","code":"pay","display":"Payer"}]}],"name":"Blue Cross Blue Shield of Texas","telecom":[{"system":"phone","value":"(+1) 972-766-6900"}],"address":[{"use":"billing","type":"postal","line":["P.O. Box 660044"],"city":"Dallas","state":"TX","postalCode":"75266-0044","country":"USA"}]},"request":{"method":"PUT","url":"Organization/163e0030-7d5b-4c7a-bd82-57b4fa38eb29"}},{"fullUrl":"https://madie.cms.gov/Practitioner/a12d824b-24b8-4008-a1c4-c3d896555d58","resource":{"resourceType":"Practitioner","id":"a12d824b-24b8-4008-a1c4-c3d896555d58","meta":{"profile":["http://hl7.org/fhir/us/qicore/StructureDefinition/qicore-practitioner"]},"identifier":[{"system":"http://hl7.org/fhir/sid/us-npi","value":"9999999896"}],"name":[{"family":"Evil","prefix":["Dr"]}]},"request":{"method":"PUT","url":"Practitioner/a12d824b-24b8-4008-a1c4-c3d896555d58"}},{"fullUrl":"https://madie.cms.gov/MeasureReport/9c6ea1ef-0072-4e38-8b74-621ad67af57c","resource":{"resourceType":"MeasureReport","id":"9c6ea1ef-0072-4e38-8b74-621ad67af57c","meta":{"profile":["http://hl7.org/fhir/us/cqfmeasures/StructureDefinition/test-case-cqfm"]},"contained":[{"resourceType":"Parameters","id":"330942de-2110-4778-a30a-a38c21842c17-parameters","parameter":[{"name":"subject","valueString":"dfd5dc6b-3299-4e4f-ae02-45f251e1f75b"}]}],"extension":[{"url":"http://hl7.org/fhir/StructureDefinition/cqf-inputParameters","valueReference":{"reference":"#330942de-2110-4778-a30a-a38c21842c17-parameters"}},{"url":"http://hl7.org/fhir/us/cqfmeasures/StructureDefinition/cqfm-testCaseDescription","valueMarkdown":"Adult, patient was boarded 6 hrs 1 min; Enc 8 hrs, enc departure 8 hrs 1 min. dx recurrent major depression"}],"modifierExtension":[{"url":"http://hl7.org/fhir/us/cqfmeasures/StructureDefinition/cqfm-isTestCase","valueBoolean":true}],"status":"complete","type":"individual","measure":"https://madie.cms.gov/Measure/CMS1264FHIRECATREHQR","period":{"start":"2027-01-01","end":"2027-12-31"},"group":[{"id":"Group_1","population":[{"id":"InitialPopulation_1","code":{"coding":[{"system":"http://terminology.hl7.org/CodeSystem/measure-population","code":"initial-population","display":"Initial Population"}]},"count":1},{"id":"Denominator_1","code":{"coding":[{"system":"http://terminology.hl7.org/CodeSystem/measure-population","code":"denominator","display":"Denominator"}]},"count":1},{"id":"Numerator_1","code":{"coding":[{"system":"http://terminology.hl7.org/CodeSystem/measure-population","code":"numerator","display":"Numerator"}]},"count":0}],"measureScore":{"value":0.0},"stratifier":[{"id":"Stratification_1_1","code":[{"text":"Strata-1"}],"stratum":[{"value":{"text":"Strata-1"},"population":[{"id":"InitialPopulation_1","code":{"coding":[{"system":"http://terminology.hl7.org/CodeSystem/measure-population","code":"initial-population","display":"Initial Population"}]},"count":0},{"id":"Denominator_1","code":{"coding":[{"system":"http://terminology.hl7.org/CodeSystem/measure-population","code":"denominator","display":"Denominator"}]},"count":0},{"id":"Numerator_1","code":{"coding":[{"system":"http://terminology.hl7.org/CodeSystem/measure-population","code":"numerator","display":"Numerator"}]},"count":0}]}]},{"id":"Stratification_1_2","code":[{"text":"Strata-2"}],"stratum":[{"value":{"text":"Strata-2"},"population":[{"id":"InitialPopulation_1","code":{"coding":[{"system":"http://terminology.hl7.org/CodeSystem/measure-population","code":"initial-population","display":"Initial Population"}]},"count":0},{"id":"Denominator_1","code":{"coding":[{"system":"http://terminology.hl7.org/CodeSystem/measure-population","code":"denominator","display":"Denominator"}]},"count":0},{"id":"Numerator_1","code":{"coding":[{"system":"http://terminology.hl7.org/CodeSystem/measure-population","code":"numerator","display":"Numerator"}]},"count":0}]}]},{"id":"Stratification_1_3","code":[{"text":"Strata-3"}],"stratum":[{"value":{"text":"Strata-3"},"population":[{"id":"InitialPopulation_1","code":{"coding":[{"system":"http://terminology.hl7.org/CodeSystem/measure-population","code":"initial-population","display":"Initial Population"}]},"count":0},{"id":"Denominator_1","code":{"coding":[{"system":"http://terminology.hl7.org/CodeSystem/measure-population","code":"denominator","display":"Denominator"}]},"count":0},{"id":"Numerator_1","code":{"coding":[{"system":"http://terminology.hl7.org/CodeSystem/measure-population","code":"numerator","display":"Numerator"}]},"count":0}]}]},{"id":"Stratification_1_4","code":[{"text":"Strata-4"}],"stratum":[{"value":{"text":"Strata-4"},"population":[{"id":"InitialPopulation_1","code":{"coding":[{"system":"http://terminology.hl7.org/CodeSystem/measure-population","code":"initial-population","display":"Initial Population"}]},"count":1},{"id":"Denominator_1","code":{"coding":[{"system":"http://terminology.hl7.org/CodeSystem/measure-population","code":"denominator","display":"Denominator"}]},"count":1},{"id":"Numerator_1","code":{"coding":[{"system":"http://terminology.hl7.org/CodeSystem/measure-population","code":"numerator","display":"Numerator"}]},"count":0}]}]}]}],"evaluatedResource":[{"reference":"Patient/dfd5dc6b-3299-4e4f-ae02-45f251e1f75b"},{"reference":"Encounter/f022a772-053b-45a8-9f5f-dfc9ecb23156"},{"reference":"ServiceRequest/27b1ccd5-75cf-43d0-957f-bc36b3e5d23a"},{"reference":"Location/a8ec8a0d-5f9d-47f2-a879-aaaf4cc98133"},{"reference":"Claim/ClaimBehavior-NotSubsAbuse"},{"reference":"Condition/73d3b12b-ccc9-49db-856b-16537d65e5df"},{"reference":"Coverage/5bad90d7-bc94-4f37-b7d9-29a35a6b2038"},{"reference":"Encounter/e91bdb41-23e2-4d02-8fcc-496eac85a37f"},{"reference":"Organization/163e0030-7d5b-4c7a-bd82-57b4fa38eb29"},{"reference":"Practitioner/a12d824b-24b8-4008-a1c4-c3d896555d58"}]},"request":{"method":"PUT","url":"MeasureReport/9c6ea1ef-0072-4e38-8b74-621ad67af57c"}}]},"request":{"method":"PUT","url":"Bundle/661476b015ed5841a5547ebf"}},{"fullUrl":"MeasureReport/9c6ea1ef-0072-4e38-8b74-621ad67af57c","resource":{"resourceType":"MeasureReport","id":"9c6ea1ef-0072-4e38-8b74-621ad67af57c","meta":{"profile":["http://hl7.org/fhir/us/cqfmeasures/StructureDefinition/test-case-cqfm"]},"contained":[{"resourceType":"Parameters","id":"330942de-2110-4778-a30a-a38c21842c17-parameters","parameter":[{"name":"subject","valueString":"dfd5dc6b-3299-4e4f-ae02-45f251e1f75b"}]}],"extension":[{"url":"http://hl7.org/fhir/StructureDefinition/cqf-inputParameters","valueReference":{"reference":"#330942de-2110-4778-a30a-a38c21842c17-parameters"}},{"url":"http://hl7.org/fhir/us/cqfmeasures/StructureDefinition/cqfm-testCaseDescription","valueMarkdown":"Adult, patient was boarded 6 hrs 1 min; Enc 8 hrs, enc departure 8 hrs 1 min. dx recurrent major depression"}],"modifierExtension":[{"url":"http://hl7.org/fhir/us/cqfmeasures/StructureDefinition/cqfm-isTestCase","valueBoolean":true}],"status":"complete","type":"individual","measure":"https://madie.cms.gov/Measure/CMS1264FHIRECATREHQR","period":{"start":"2027-01-01","end":"2027-12-31"},"group":[{"id":"Group_1","population":[{"id":"InitialPopulation_1","code":{"coding":[{"system":"http://terminology.hl7.org/CodeSystem/measure-population","code":"initial-population","display":"Initial Population"}]},"count":1},{"id":"Denominator_1","code":{"coding":[{"system":"http://terminology.hl7.org/CodeSystem/measure-population","code":"denominator","display":"Denominator"}]},"count":1},{"id":"Numerator_1","code":{"coding":[{"system":"http://terminology.hl7.org/CodeSystem/measure-population","code":"numerator","display":"Numerator"}]},"count":0}],"measureScore":{"value":0.0},"stratifier":[{"id":"Stratification_1_1","code":[{"text":"Strata-1"}],"stratum":[{"value":{"text":"Strata-1"},"population":[{"id":"InitialPopulation_1","code":{"coding":[{"system":"http://terminology.hl7.org/CodeSystem/measure-population","code":"initial-population","display":"Initial Population"}]},"count":0},{"id":"Denominator_1","code":{"coding":[{"system":"http://terminology.hl7.org/CodeSystem/measure-population","code":"denominator","display":"Denominator"}]},"count":0},{"id":"Numerator_1","code":{"coding":[{"system":"http://terminology.hl7.org/CodeSystem/measure-population","code":"numerator","display":"Numerator"}]},"count":0}]}]},{"id":"Stratification_1_2","code":[{"text":"Strata-2"}],"stratum":[{"value":{"text":"Strata-2"},"population":[{"id":"InitialPopulation_1","code":{"coding":[{"system":"http://terminology.hl7.org/CodeSystem/measure-population","code":"initial-population","display":"Initial Population"}]},"count":0},{"id":"Denominator_1","code":{"coding":[{"system":"http://terminology.hl7.org/CodeSystem/measure-population","code":"denominator","display":"Denominator"}]},"count":0},{"id":"Numerator_1","code":{"coding":[{"system":"http://terminology.hl7.org/CodeSystem/measure-population","code":"numerator","display":"Numerator"}]},"count":0}]}]},{"id":"Stratification_1_3","code":[{"text":"Strata-3"}],"stratum":[{"value":{"text":"Strata-3"},"population":[{"id":"InitialPopulation_1","code":{"coding":[{"system":"http://terminology.hl7.org/CodeSystem/measure-population","code":"initial-population","display":"Initial Population"}]},"count":0},{"id":"Denominator_1","code":{"coding":[{"system":"http://terminology.hl7.org/CodeSystem/measure-population","code":"denominator","display":"Denominator"}]},"count":0},{"id":"Numerator_1","code":{"coding":[{"system":"http://terminology.hl7.org/CodeSystem/measure-population","code":"numerator","display":"Numerator"}]},"count":0}]}]},{"id":"Stratification_1_4","code":[{"text":"Strata-4"}],"stratum":[{"value":{"text":"Strata-4"},"population":[{"id":"InitialPopulation_1","code":{"coding":[{"system":"http://terminology.hl7.org/CodeSystem/measure-population","code":"initial-population","display":"Initial Population"}]},"count":1},{"id":"Denominator_1","code":{"coding":[{"system":"http://terminology.hl7.org/CodeSystem/measure-population","code":"denominator","display":"Denominator"}]},"count":1},{"id":"Numerator_1","code":{"coding":[{"system":"http://terminology.hl7.org/CodeSystem/measure-population","code":"numerator","display":"Numerator"}]},"count":0}]}]}]}],"evaluatedResource":[{"reference":"Patient/dfd5dc6b-3299-4e4f-ae02-45f251e1f75b"},{"reference":"Encounter/f022a772-053b-45a8-9f5f-dfc9ecb23156"},{"reference":"ServiceRequest/27b1ccd5-75cf-43d0-957f-bc36b3e5d23a"},{"reference":"Location/a8ec8a0d-5f9d-47f2-a879-aaaf4cc98133"},{"reference":"Claim/ClaimBehavior-NotSubsAbuse"},{"reference":"Condition/73d3b12b-ccc9-49db-856b-16537d65e5df"},{"reference":"Coverage/5bad90d7-bc94-4f37-b7d9-29a35a6b2038"},{"reference":"Encounter/e91bdb41-23e2-4d02-8fcc-496eac85a37f"},{"reference":"Organization/163e0030-7d5b-4c7a-bd82-57b4fa38eb29"},{"reference":"Practitioner/a12d824b-24b8-4008-a1c4-c3d896555d58"}]},"request":{"method":"PUT","url":"MeasureReport/9c6ea1ef-0072-4e38-8b74-621ad67af57c"}},{"fullUrl":"Patient/dfd5dc6b-3299-4e4f-ae02-45f251e1f75b","resource":{"resourceType":"Patient","id":"dfd5dc6b-3299-4e4f-ae02-45f251e1f75b","meta":{"profile":["http://hl7.org/fhir/us/qicore/StructureDefinition/qicore-patient"]},"extension":[{"url":"http://hl7.org/fhir/us/core/StructureDefinition/us-core-race","extension":[{"url":"ombCategory","valueCoding":{"system":"urn:oid:2.16.840.1.113883.6.238","code":"1002-5","display":"American Indian or Alaska Native","userSelected":true}},{"url":"text","valueString":"American Indian or Alaska Native"}]},{"url":"http://hl7.org/fhir/us/core/StructureDefinition/us-core-ethnicity","extension":[{"url":"ombCategory","valueCoding":{"system":"urn:oid:2.16.840.1.113883.6.238","code":"2135-2","display":"Hispanic or Latino","userSelected":true}},{"url":"text","valueString":"Hispanic or Latino"}]},{"url":"http://hl7.org/fhir/us/core/StructureDefinition/us-core-sex","valueCode":"248153007"}],"identifier":[{"type":{"coding":[{"system":"http://terminology.hl7.org/CodeSystem/v2-0203","code":"MR"}]},"system":"https://bonnie-fhir.healthit.gov/","value":"661476b015ed5841a5547ebf"}],"name":[{"family":"NUMEXStrat4Pass","given":["EDOBSOrderBoarded"]}],"gender":"male","birthDate":"2009-01-01"},"request":{"method":"PUT","url":"Patient/dfd5dc6b-3299-4e4f-ae02-45f251e1f75b"}},{"fullUrl":"Condition/73d3b12b-ccc9-49db-856b-16537d65e5df","resource":{"resourceType":"Condition","id":"73d3b12b-ccc9-49db-856b-16537d65e5df","meta":{"profile":["http://hl7.org/fhir/us/qicore/StructureDefinition/qicore-condition-encounter-diagnosis"]},"category":[{"coding":[{"system":"http://terminology.hl7.org/CodeSystem/condition-category","code":"encounter-diagnosis","display":"Encounter Diagnosis"}]}],"code":{"coding":[{"system":"http://snomed.info/sct","version":"2023-09","code":"66344007","display":"Recurrent major depression (disorder)","userSelected":true}]},"subject":{"reference":"Patient/dfd5dc6b-3299-4e4f-ae02-45f251e1f75b"},"recordedDate":"2026-04-18T08:00:00.000+00:00"},"request":{"method":"PUT","url":"Condition/73d3b12b-ccc9-49db-856b-16537d65e5df"}},{"fullUrl":"Encounter/f022a772-053b-45a8-9f5f-dfc9ecb23156","resource":{"resourceType":"Encounter","id":"f022a772-053b-45a8-9f5f-dfc9ecb23156","meta":{"profile":["http://hl7.org/fhir/us/qicore/StructureDefinition/qicore-encounter"]},"status":"finished","class":{"system":"http://terminology.hl7.org/CodeSystem/v3-ActCode","code":"EMER","display":"emergency department"},"type":[{"coding":[{"system":"http://snomed.info/sct","version":"2023-09","code":"4525004","display":"Emergency department patient visit (procedure)","userSelected":true}]}],"subject":{"reference":"Patient/dfd5dc6b-3299-4e4f-ae02-45f251e1f75b"},"period":{"start":"2027-05-01T00:00:00.000+00:00","end":"2027-05-01T06:00:00.000+00:00"},"diagnosis":[{"condition":{"reference":"Condition/73d3b12b-ccc9-49db-856b-16537d65e5df"},"use":{"coding":[{"system":"http://terminology.hl7.org/CodeSystem/diagnosis-role","code":"billing"}]},"rank":1}],"location":[{"location":{"reference":"Location/a8ec8a0d-5f9d-47f2-a879-aaaf4cc98133"},"period":{"start":"2027-05-01T00:00:00.000+00:00","end":"2027-05-01T06:01:00.000+00:00"}}]},"request":{"method":"PUT","url":"Encounter/f022a772-053b-45a8-9f5f-dfc9ecb23156"}},{"fullUrl":"Organization/163e0030-7d5b-4c7a-bd82-57b4fa38eb29","resource":{"resourceType":"Organization","id":"163e0030-7d5b-4c7a-bd82-57b4fa38eb29","meta":{"profile":["http://hl7.org/fhir/us/qicore/StructureDefinition/qicore-organization"]},"identifier":[{"use":"temp","system":"urn:oid:2.16.840.1.113883.4.4","value":"21-3259825"}],"active":true,"type":[{"coding":[{"system":"http://terminology.hl7.org/CodeSystem/organization-type","code":"pay","display":"Payer"}]}],"name":"Blue Cross Blue Shield of Texas","telecom":[{"system":"phone","value":"(+1) 972-766-6900"}],"address":[{"use":"billing","type":"postal","line":["P.O. Box 660044"],"city":"Dallas","state":"TX","postalCode":"75266-0044","country":"USA"}]},"request":{"method":"PUT","url":"Organization/163e0030-7d5b-4c7a-bd82-57b4fa38eb29"}},{"fullUrl":"ServiceRequest/27b1ccd5-75cf-43d0-957f-bc36b3e5d23a","resource":{"resourceType":"ServiceRequest","id":"27b1ccd5-75cf-43d0-957f-bc36b3e5d23a","meta":{"profile":["http://hl7.org/fhir/us/qicore/StructureDefinition/qicore-servicerequest"]},"status":"completed","intent":"order","code":{"coding":[{"system":"http://snomed.info/sct","code":"19712007","display":"Patient transfer, to another health care facility (procedure)","userSelected":true}]},"subject":{"reference":"Patient/dfd5dc6b-3299-4e4f-ae02-45f251e1f75b"},"authoredOn":"2027-05-01T02:00:00.000+00:00"},"request":{"method":"PUT","url":"ServiceRequest/27b1ccd5-75cf-43d0-957f-bc36b3e5d23a"}},{"fullUrl":"Claim/ClaimBehavior-NotSubsAbuse","resource":{"resourceType":"Claim","id":"ClaimBehavior-NotSubsAbuse","meta":{"profile":["http://hl7.org/fhir/us/qicore/StructureDefinition/qicore-claim"]},"status":"active","type":{"coding":[{"system":"http://terminology.hl7.org/CodeSystem/claim-type","code":"institutional"}]},"use":"claim","patient":{"reference":"Patient/dfd5dc6b-3299-4e4f-ae02-45f251e1f75b"},"created":"2027-05-01","provider":{"reference":"Practitioner/practitioner-123456"},"priority":{"coding":[{"system":"http://terminology.hl7.org/CodeSystem/processpriority","code":"normal"}]},"diagnosis":[{"sequence":1,"diagnosisReference":{"reference":"Condition/73d3b12b-ccc9-49db-856b-16537d65e5df"},"type":[{"coding":[{"system":"http://terminology.hl7.org/CodeSystem/ex-diagnosistype","code":"principal"}]}]}],"insurance":[{"sequence":1,"focal":true,"coverage":{"reference":"Coverage/5bad90d7-bc94-4f37-b7d9-29a35a6b2038"}}],"item":[{"sequence":1,"diagnosisSequence":[1],"productOrService":{"coding":[{"system":"http://terminology.hl7.org/CodeSystem/ex-USCLS","code":"99555"}]},"encounter":[{"reference":"Encounter/f022a772-053b-45a8-9f5f-dfc9ecb23156"}]}]},"request":{"method":"PUT","url":"Claim/ClaimBehavior-NotSubsAbuse"}},{"fullUrl":"Encounter/e91bdb41-23e2-4d02-8fcc-496eac85a37f","resource":{"resourceType":"Encounter","id":"e91bdb41-23e2-4d02-8fcc-496eac85a37f","meta":{"profile":["http://hl7.org/fhir/us/qicore/StructureDefinition/qicore-encounter"]},"status":"finished","class":{"system":"http://terminology.hl7.org/CodeSystem/v3-ActCode","code":"EMER","display":"emergency"},"type":[{"coding":[{"system":"http://snomed.info/sct","code":"448951000124107","display":"Admission to observation unit (procedure)","userSelected":true}]}],"subject":{"reference":"Patient/dfd5dc6b-3299-4e4f-ae02-45f251e1f75b"},"period":{"start":"2027-05-01T02:01:00.000+00:00","end":"2027-05-01T05:59:00.000+00:00"}},"request":{"method":"PUT","url":"Encounter/e91bdb41-23e2-4d02-8fcc-496eac85a37f"}}]}