{"resourceType":"Bundle","id":"tests-9098f676-4f4e-402c-80e3-331aabb6d414-bundle","type":"transaction","entry":[{"resource":{"resourceType":"Practitioner","id":"04e38127-e4ca-4150-8fd8-df2d56f537e2","meta":{"profile":["http://hl7.org/fhir/us/qicore/StructureDefinition/qicore-practitioner"]},"identifier":[{"system":"http://hl7.org/fhir/sid/us-npi","value":"9999999896"}],"name":[{"family":"Evil","prefix":["Dr"]}]},"request":{"method":"PUT","url":"Practitioner/04e38127-e4ca-4150-8fd8-df2d56f537e2"}},{"resource":{"resourceType":"Location","id":"3e9b702a-2f9a-44bd-b163-cc78e2c9941d","meta":{"profile":["http://hl7.org/fhir/us/qicore/StructureDefinition/qicore-location"]},"identifier":[{"use":"usual","system":"http://exampleoflocation.com","value":"B1-S.F2"}],"name":"Medical Surgical East, first floor","type":[{"coding":[{"system":"https://www.cdc.gov/nhsn/cdaportal/terminology/codesystem/hsloc.html","version":"2022","code":"1108-0","display":"Emergency Department","userSelected":true}]}]},"request":{"method":"PUT","url":"Location/3e9b702a-2f9a-44bd-b163-cc78e2c9941d"}},{"resource":{"resourceType":"Encounter","id":"53f2d66c-620a-404f-a564-4474305e3d08","meta":{"profile":["http://hl7.org/fhir/us/qicore/StructureDefinition/qicore-encounter"]},"status":"finished","class":{"system":"http://terminology.hl7.org/CodeSystem/v3-ActCode","code":"EMER","display":"emergency"},"type":[{"coding":[{"system":"http://snomed.info/sct","version":"2023-09","code":"225390008","display":"Triage (procedure)","userSelected":true}]}],"subject":{"reference":"Patient/9098f676-4f4e-402c-80e3-331aabb6d414"},"period":{"start":"2027-05-01T06:00:00.000+00:00","end":"2027-05-01T06:15:00.000+00:00"}},"request":{"method":"PUT","url":"Encounter/53f2d66c-620a-404f-a564-4474305e3d08"}},{"resource":{"resourceType":"MeasureReport","id":"b3eaea13-fb18-4a01-ab35-84d49885e7dc","meta":{"profile":["http://hl7.org/fhir/us/cqfmeasures/StructureDefinition/test-case-cqfm"]},"contained":[{"resourceType":"Parameters","id":"aa63ccb6-29cd-4fef-be30-1522a09ad333-parameters","parameter":[{"name":"subject","valueString":"9098f676-4f4e-402c-80e3-331aabb6d414"}]}],"extension":[{"url":"http://hl7.org/fhir/StructureDefinition/cqf-inputParameters","valueReference":{"reference":"#aa63ccb6-29cd-4fef-be30-1522a09ad333-parameters"}},{"url":"http://hl7.org/fhir/us/cqfmeasures/StructureDefinition/cqfm-testCaseDescription","valueMarkdown":"Adult, mental diagnosis, LOS 8+ hours. Triage before EM start"}],"modifierExtension":[{"url":"http://hl7.org/fhir/us/cqfmeasures/StructureDefinition/cqfm-isTestCase","valueBoolean":true}],"status":"complete","type":"individual","measure":"https://madie.cms.gov/Measure/CMS1264FHIRECATREHQR","period":{"start":"2027-01-01","end":"2027-12-31"},"group":[{"id":"Group_1","population":[{"id":"InitialPopulation_1","code":{"coding":[{"system":"http://terminology.hl7.org/CodeSystem/measure-population","code":"initial-population","display":"Initial Population"}]},"count":1},{"id":"Denominator_1","code":{"coding":[{"system":"http://terminology.hl7.org/CodeSystem/measure-population","code":"denominator","display":"Denominator"}]},"count":1},{"id":"Numerator_1","code":{"coding":[{"system":"http://terminology.hl7.org/CodeSystem/measure-population","code":"numerator","display":"Numerator"}]},"count":1}],"measureScore":{"value":0.0},"stratifier":[{"id":"Stratification_1_1","code":[{"text":"Strata-1"}],"stratum":[{"value":{"text":"Strata-1"},"population":[{"id":"InitialPopulation_1","code":{"coding":[{"system":"http://terminology.hl7.org/CodeSystem/measure-population","code":"initial-population","display":"Initial Population"}]},"count":0},{"id":"Denominator_1","code":{"coding":[{"system":"http://terminology.hl7.org/CodeSystem/measure-population","code":"denominator","display":"Denominator"}]},"count":0},{"id":"Numerator_1","code":{"coding":[{"system":"http://terminology.hl7.org/CodeSystem/measure-population","code":"numerator","display":"Numerator"}]},"count":0}]}]},{"id":"Stratification_1_2","code":[{"text":"Strata-2"}],"stratum":[{"value":{"text":"Strata-2"},"population":[{"id":"InitialPopulation_1","code":{"coding":[{"system":"http://terminology.hl7.org/CodeSystem/measure-population","code":"initial-population","display":"Initial Population"}]},"count":0},{"id":"Denominator_1","code":{"coding":[{"system":"http://terminology.hl7.org/CodeSystem/measure-population","code":"denominator","display":"Denominator"}]},"count":0},{"id":"Numerator_1","code":{"coding":[{"system":"http://terminology.hl7.org/CodeSystem/measure-population","code":"numerator","display":"Numerator"}]},"count":0}]}]},{"id":"Stratification_1_3","code":[{"text":"Strata-3"}],"stratum":[{"value":{"text":"Strata-3"},"population":[{"id":"InitialPopulation_1","code":{"coding":[{"system":"http://terminology.hl7.org/CodeSystem/measure-population","code":"initial-population","display":"Initial Population"}]},"count":0},{"id":"Denominator_1","code":{"coding":[{"system":"http://terminology.hl7.org/CodeSystem/measure-population","code":"denominator","display":"Denominator"}]},"count":0},{"id":"Numerator_1","code":{"coding":[{"system":"http://terminology.hl7.org/CodeSystem/measure-population","code":"numerator","display":"Numerator"}]},"count":0}]}]},{"id":"Stratification_1_4","code":[{"text":"Strata-4"}],"stratum":[{"value":{"text":"Strata-4"},"population":[{"id":"InitialPopulation_1","code":{"coding":[{"system":"http://terminology.hl7.org/CodeSystem/measure-population","code":"initial-population","display":"Initial Population"}]},"count":1},{"id":"Denominator_1","code":{"coding":[{"system":"http://terminology.hl7.org/CodeSystem/measure-population","code":"denominator","display":"Denominator"}]},"count":1},{"id":"Numerator_1","code":{"coding":[{"system":"http://terminology.hl7.org/CodeSystem/measure-population","code":"numerator","display":"Numerator"}]},"count":1}]}]}]}],"evaluatedResource":[{"reference":"Patient/9098f676-4f4e-402c-80e3-331aabb6d414"},{"reference":"Encounter/53f2d66c-620a-404f-a564-4474305e3d08"},{"reference":"Encounter/508adf29-757d-4ee1-b858-47b7cfe2e55a"},{"reference":"Location/dbf0f236-615a-47ea-85fc-ecccbd34064e"},{"reference":"Location/da6ef534-87e8-4138-bd0e-0f9938007f9c"},{"reference":"Condition/ccd7852c-bbac-4008-a433-c093ec160d03"},{"reference":"Location/3e9b702a-2f9a-44bd-b163-cc78e2c9941d"},{"reference":"Location/f5872656-bc6c-430b-ad1f-42c33837fb1f"},{"reference":"Claim/ClaimBehavior-NotSubsAbuse"},{"reference":"Coverage/04683b0b-dcec-47b0-a011-b9422ea5eb77"},{"reference":"Organization/20c86f6e-2830-407d-9aba-bae8de0f50d7"},{"reference":"Practitioner/04e38127-e4ca-4150-8fd8-df2d56f537e2"}]},"request":{"method":"PUT","url":"MeasureReport/b3eaea13-fb18-4a01-ab35-84d49885e7dc"}},{"resource":{"resourceType":"Coverage","id":"04683b0b-dcec-47b0-a011-b9422ea5eb77","meta":{"profile":["http://hl7.org/fhir/us/qicore/StructureDefinition/qicore-coverage"]},"identifier":[{"type":{"coding":[{"system":"http://terminology.hl7.org/CodeSystem/v2-0203","code":"MB"}]}}],"status":"active","beneficiary":{"reference":"Patient/9098f676-4f4e-402c-80e3-331aabb6d414"},"relationship":{"coding":[{"system":"http://terminology.hl7.org/CodeSystem/subscriber-relationship","code":"self"}]},"payor":[{"reference":"Organization/20c86f6e-2830-407d-9aba-bae8de0f50d7"}]},"request":{"method":"PUT","url":"Coverage/04683b0b-dcec-47b0-a011-b9422ea5eb77"}},{"resource":{"resourceType":"Bundle","id":"661579e3db207d74c03b8a59","type":"transaction","entry":[{"fullUrl":"https://madie.cms.gov/Patient/9098f676-4f4e-402c-80e3-331aabb6d414","resource":{"resourceType":"Patient","id":"9098f676-4f4e-402c-80e3-331aabb6d414","meta":{"profile":["http://hl7.org/fhir/us/qicore/StructureDefinition/qicore-patient"]},"extension":[{"url":"http://hl7.org/fhir/us/core/StructureDefinition/us-core-race","extension":[{"url":"ombCategory","valueCoding":{"system":"urn:oid:2.16.840.1.113883.6.238","code":"2076-8","display":"Native Hawaiian or Other Pacific Islander","userSelected":true}},{"url":"text","valueString":"Native Hawaiian or Other Pacific Islander"}]},{"url":"http://hl7.org/fhir/us/core/StructureDefinition/us-core-ethnicity","extension":[{"url":"ombCategory","valueCoding":{"system":"urn:oid:2.16.840.1.113883.6.238","code":"2186-5","display":"Not Hispanic or Latino","userSelected":true}},{"url":"text","valueString":"Not Hispanic or Latino"}]},{"url":"http://hl7.org/fhir/us/core/StructureDefinition/us-core-sex","valueCode":"248152002"}],"identifier":[{"type":{"coding":[{"system":"http://terminology.hl7.org/CodeSystem/v2-0203","code":"MR"}]},"system":"https://bonnie-fhir.healthit.gov/","value":"661579e3db207d74c03b8a59"}],"name":[{"family":"NUMERStrat4Pass","given":["TimeToTx61Min"]}],"gender":"female","birthDate":"2008-12-31"},"request":{"method":"PUT","url":"Patient/9098f676-4f4e-402c-80e3-331aabb6d414"}},{"fullUrl":"https://madie.cms.gov/Encounter/53f2d66c-620a-404f-a564-4474305e3d08","resource":{"resourceType":"Encounter","id":"53f2d66c-620a-404f-a564-4474305e3d08","meta":{"profile":["http://hl7.org/fhir/us/qicore/StructureDefinition/qicore-encounter"]},"status":"finished","class":{"system":"http://terminology.hl7.org/CodeSystem/v3-ActCode","code":"EMER","display":"emergency"},"type":[{"coding":[{"system":"http://snomed.info/sct","version":"2023-09","code":"225390008","display":"Triage (procedure)","userSelected":true}]}],"subject":{"reference":"Patient/9098f676-4f4e-402c-80e3-331aabb6d414"},"period":{"start":"2027-05-01T06:00:00.000+00:00","end":"2027-05-01T06:15:00.000+00:00"}},"request":{"method":"PUT","url":"Encounter/53f2d66c-620a-404f-a564-4474305e3d08"}},{"fullUrl":"https://madie.cms.gov/Encounter/508adf29-757d-4ee1-b858-47b7cfe2e55a","resource":{"resourceType":"Encounter","id":"508adf29-757d-4ee1-b858-47b7cfe2e55a","meta":{"profile":["http://hl7.org/fhir/us/qicore/StructureDefinition/qicore-encounter"]},"status":"finished","class":{"system":"http://terminology.hl7.org/CodeSystem/v3-ActCode","code":"EMER","display":"emergency"},"type":[{"coding":[{"system":"http://snomed.info/sct","version":"2023-09","code":"4525004","display":"Emergency department patient visit (procedure)","userSelected":true}]}],"subject":{"reference":"Patient/9098f676-4f4e-402c-80e3-331aabb6d414"},"period":{"start":"2027-05-01T08:00:00.000+00:00","end":"2027-05-01T12:15:00.000+00:00"},"diagnosis":[{"condition":{"reference":"Condition/ccd7852c-bbac-4008-a433-c093ec160d03"},"use":{"coding":[{"system":"http://terminology.hl7.org/CodeSystem/diagnosis-role","code":"billing"}]},"rank":1}],"location":[{"location":{"reference":"Location/dbf0f236-615a-47ea-85fc-ecccbd34064e"},"period":{"start":"2027-05-01T07:45:00.000+00:00","end":"2027-05-01T16:31:00.000+00:00"}},{"location":{"reference":"Location/da6ef534-87e8-4138-bd0e-0f9938007f9c"},"period":{"start":"2027-05-01T09:31:00.000+00:00","end":"2027-05-01T12:15:00.000+00:00"}},{"location":{"reference":"Location/f5872656-bc6c-430b-ad1f-42c33837fb1f"},"period":{"start":"2027-05-01T08:40:00.000+00:00","end":"2027-05-01T12:15:00.000+00:00"}},{"location":{"reference":"Location/3e9b702a-2f9a-44bd-b163-cc78e2c9941d"},"period":{"start":"2027-05-01T08:30:00.000+00:00","end":"2027-05-01T15:46:00.000+00:00"}}]},"request":{"method":"PUT","url":"Encounter/508adf29-757d-4ee1-b858-47b7cfe2e55a"}},{"fullUrl":"https://madie.cms.gov/Location/dbf0f236-615a-47ea-85fc-ecccbd34064e","resource":{"resourceType":"Location","id":"dbf0f236-615a-47ea-85fc-ecccbd34064e","meta":{"profile":["http://hl7.org/fhir/us/qicore/StructureDefinition/qicore-location"]},"identifier":[{"use":"usual","system":"http://exampleoflocation.com","value":"B1-S.F1"}],"name":"Medical Surgical East, first floor","type":[{"coding":[{"system":"https://www.cdc.gov/nhsn/cdaportal/terminology/codesystem/hsloc.html","version":"2022","code":"1108-0","display":"Emergency Department","userSelected":true}]}]},"request":{"method":"PUT","url":"Location/dbf0f236-615a-47ea-85fc-ecccbd34064e"}},{"fullUrl":"https://madie.cms.gov/Location/da6ef534-87e8-4138-bd0e-0f9938007f9c","resource":{"resourceType":"Location","id":"da6ef534-87e8-4138-bd0e-0f9938007f9c","meta":{"profile":["http://hl7.org/fhir/us/qicore/StructureDefinition/qicore-location"]},"identifier":[{"use":"usual","system":"http://exampleoflocation.com","value":"B1-S.F2"}],"name":"Medical Surgical East, first floor","type":[{"coding":[{"system":"https://www.cdc.gov/nhsn/cdaportal/terminology/codesystem/hsloc.html","version":"2022","code":"1209-6","display":"Treatment Room","userSelected":true}]}]},"request":{"method":"PUT","url":"Location/da6ef534-87e8-4138-bd0e-0f9938007f9c"}},{"fullUrl":"https://madie.cms.gov/Condition/ccd7852c-bbac-4008-a433-c093ec160d03","resource":{"resourceType":"Condition","id":"ccd7852c-bbac-4008-a433-c093ec160d03","meta":{"profile":["http://hl7.org/fhir/us/qicore/StructureDefinition/qicore-condition-encounter-diagnosis"]},"category":[{"coding":[{"system":"http://terminology.hl7.org/CodeSystem/condition-category","code":"encounter-diagnosis","display":"Encounter Diagnosis"}]}],"code":{"coding":[{"system":"http://snomed.info/sct","version":"2023-09","code":"10349009","display":"Multi-infarct dementia with delirium (disorder)","userSelected":true}]},"subject":{"reference":"Patient/9098f676-4f4e-402c-80e3-331aabb6d414"},"recordedDate":"2027-04-09T08:00:00.000+00:00"},"request":{"method":"PUT","url":"Condition/ccd7852c-bbac-4008-a433-c093ec160d03"}},{"fullUrl":"https://madie.cms.gov/Location/3e9b702a-2f9a-44bd-b163-cc78e2c9941d","resource":{"resourceType":"Location","id":"3e9b702a-2f9a-44bd-b163-cc78e2c9941d","meta":{"profile":["http://hl7.org/fhir/us/qicore/StructureDefinition/qicore-location"]},"identifier":[{"use":"usual","system":"http://exampleoflocation.com","value":"B1-S.F2"}],"name":"Medical Surgical East, first floor","type":[{"coding":[{"system":"https://www.cdc.gov/nhsn/cdaportal/terminology/codesystem/hsloc.html","version":"2022","code":"1108-0","display":"Emergency Department","userSelected":true}]}]},"request":{"method":"PUT","url":"Location/3e9b702a-2f9a-44bd-b163-cc78e2c9941d"}},{"fullUrl":"https://madie.cms.gov/Location/f5872656-bc6c-430b-ad1f-42c33837fb1f","resource":{"resourceType":"Location","id":"f5872656-bc6c-430b-ad1f-42c33837fb1f","meta":{"profile":["http://hl7.org/fhir/us/qicore/StructureDefinition/qicore-location"]},"identifier":[{"use":"usual","system":"http://exampleoflocation.com","value":"B1-S.F2"}],"name":"Medical Surgical East, first floor","type":[{"coding":[{"system":"https://www.cdc.gov/nhsn/cdaportal/terminology/codesystem/hsloc.html","version":"2022","code":"1209-6","display":"Treatment Room"}]}]},"request":{"method":"PUT","url":"Location/f5872656-bc6c-430b-ad1f-42c33837fb1f"}},{"fullUrl":"https://madie.cms.gov/claim/ClaimBehavior-NotSubsAbuse","resource":{"resourceType":"Claim","id":"ClaimBehavior-NotSubsAbuse","meta":{"profile":["http://hl7.org/fhir/us/qicore/StructureDefinition/qicore-claim"]},"status":"active","type":{"coding":[{"system":"http://terminology.hl7.org/CodeSystem/claim-type","code":"institutional"}]},"use":"claim","patient":{"reference":"Patient/9098f676-4f4e-402c-80e3-331aabb6d414"},"created":"2027-05-01","provider":{"reference":"Practitioner/04e38127-e4ca-4150-8fd8-df2d56f537e2"},"priority":{"coding":[{"system":"http://terminology.hl7.org/CodeSystem/processpriority","code":"normal"}]},"diagnosis":[{"sequence":1,"diagnosisReference":{"reference":"Condition/ccd7852c-bbac-4008-a433-c093ec160d03"},"type":[{"coding":[{"system":"http://terminology.hl7.org/CodeSystem/ex-diagnosistype","code":"principal"}]}]}],"insurance":[{"sequence":1,"focal":true,"coverage":{"reference":"Coverage/04683b0b-dcec-47b0-a011-b9422ea5eb77"}}],"item":[{"sequence":1,"diagnosisSequence":[1],"productOrService":{"coding":[{"system":"http://terminology.hl7.org/CodeSystem/ex-USCLS","code":"99555"}]},"encounter":[{"reference":"Encounter/508adf29-757d-4ee1-b858-47b7cfe2e55a"}]}]},"request":{"method":"PUT","url":"Claim/ClaimBehavior-NotSubsAbuse"}},{"fullUrl":"https://madie.cms.gov/Coverage/04683b0b-dcec-47b0-a011-b9422ea5eb77","resource":{"resourceType":"Coverage","id":"04683b0b-dcec-47b0-a011-b9422ea5eb77","meta":{"profile":["http://hl7.org/fhir/us/qicore/StructureDefinition/qicore-coverage"]},"identifier":[{"type":{"coding":[{"system":"http://terminology.hl7.org/CodeSystem/v2-0203","code":"MB"}]}}],"status":"active","beneficiary":{"reference":"Patient/9098f676-4f4e-402c-80e3-331aabb6d414"},"relationship":{"coding":[{"system":"http://terminology.hl7.org/CodeSystem/subscriber-relationship","code":"self"}]},"payor":[{"reference":"Organization/20c86f6e-2830-407d-9aba-bae8de0f50d7"}]},"request":{"method":"PUT","url":"Coverage/04683b0b-dcec-47b0-a011-b9422ea5eb77"}},{"fullUrl":"https://madie.cms.gov/Organization/20c86f6e-2830-407d-9aba-bae8de0f50d7","resource":{"resourceType":"Organization","id":"20c86f6e-2830-407d-9aba-bae8de0f50d7","meta":{"profile":["http://hl7.org/fhir/us/qicore/StructureDefinition/qicore-organization"]},"identifier":[{"use":"temp","system":"urn:oid:2.16.840.1.113883.4.4","value":"21-3259825"}],"active":true,"type":[{"coding":[{"system":"http://terminology.hl7.org/CodeSystem/organization-type","code":"pay","display":"Payer"}]}],"name":"Blue Cross Blue Shield of Texas","telecom":[{"system":"phone","value":"(+1) 972-766-6900"}],"address":[{"use":"billing","type":"postal","line":["P.O. Box 660044"],"city":"Dallas","state":"TX","postalCode":"75266-0044","country":"USA"}]},"request":{"method":"PUT","url":"Organization/20c86f6e-2830-407d-9aba-bae8de0f50d7"}},{"fullUrl":"https://madie.cms.gov/Practitioner/04e38127-e4ca-4150-8fd8-df2d56f537e2","resource":{"resourceType":"Practitioner","id":"04e38127-e4ca-4150-8fd8-df2d56f537e2","meta":{"profile":["http://hl7.org/fhir/us/qicore/StructureDefinition/qicore-practitioner"]},"identifier":[{"system":"http://hl7.org/fhir/sid/us-npi","value":"9999999896"}],"name":[{"family":"Evil","prefix":["Dr"]}]},"request":{"method":"PUT","url":"Practitioner/04e38127-e4ca-4150-8fd8-df2d56f537e2"}},{"fullUrl":"https://madie.cms.gov/MeasureReport/b3eaea13-fb18-4a01-ab35-84d49885e7dc","resource":{"resourceType":"MeasureReport","id":"b3eaea13-fb18-4a01-ab35-84d49885e7dc","meta":{"profile":["http://hl7.org/fhir/us/cqfmeasures/StructureDefinition/test-case-cqfm"]},"contained":[{"resourceType":"Parameters","id":"aa63ccb6-29cd-4fef-be30-1522a09ad333-parameters","parameter":[{"name":"subject","valueString":"9098f676-4f4e-402c-80e3-331aabb6d414"}]}],"extension":[{"url":"http://hl7.org/fhir/StructureDefinition/cqf-inputParameters","valueReference":{"reference":"#aa63ccb6-29cd-4fef-be30-1522a09ad333-parameters"}},{"url":"http://hl7.org/fhir/us/cqfmeasures/StructureDefinition/cqfm-testCaseDescription","valueMarkdown":"Adult, mental diagnosis, LOS 8+ hours. Triage before EM start"}],"modifierExtension":[{"url":"http://hl7.org/fhir/us/cqfmeasures/StructureDefinition/cqfm-isTestCase","valueBoolean":true}],"status":"complete","type":"individual","measure":"https://madie.cms.gov/Measure/CMS1264FHIRECATREHQR","period":{"start":"2027-01-01","end":"2027-12-31"},"group":[{"id":"Group_1","population":[{"id":"InitialPopulation_1","code":{"coding":[{"system":"http://terminology.hl7.org/CodeSystem/measure-population","code":"initial-population","display":"Initial Population"}]},"count":1},{"id":"Denominator_1","code":{"coding":[{"system":"http://terminology.hl7.org/CodeSystem/measure-population","code":"denominator","display":"Denominator"}]},"count":1},{"id":"Numerator_1","code":{"coding":[{"system":"http://terminology.hl7.org/CodeSystem/measure-population","code":"numerator","display":"Numerator"}]},"count":1}],"measureScore":{"value":0.0},"stratifier":[{"id":"Stratification_1_1","code":[{"text":"Strata-1"}],"stratum":[{"value":{"text":"Strata-1"},"population":[{"id":"InitialPopulation_1","code":{"coding":[{"system":"http://terminology.hl7.org/CodeSystem/measure-population","code":"initial-population","display":"Initial Population"}]},"count":0},{"id":"Denominator_1","code":{"coding":[{"system":"http://terminology.hl7.org/CodeSystem/measure-population","code":"denominator","display":"Denominator"}]},"count":0},{"id":"Numerator_1","code":{"coding":[{"system":"http://terminology.hl7.org/CodeSystem/measure-population","code":"numerator","display":"Numerator"}]},"count":0}]}]},{"id":"Stratification_1_2","code":[{"text":"Strata-2"}],"stratum":[{"value":{"text":"Strata-2"},"population":[{"id":"InitialPopulation_1","code":{"coding":[{"system":"http://terminology.hl7.org/CodeSystem/measure-population","code":"initial-population","display":"Initial Population"}]},"count":0},{"id":"Denominator_1","code":{"coding":[{"system":"http://terminology.hl7.org/CodeSystem/measure-population","code":"denominator","display":"Denominator"}]},"count":0},{"id":"Numerator_1","code":{"coding":[{"system":"http://terminology.hl7.org/CodeSystem/measure-population","code":"numerator","display":"Numerator"}]},"count":0}]}]},{"id":"Stratification_1_3","code":[{"text":"Strata-3"}],"stratum":[{"value":{"text":"Strata-3"},"population":[{"id":"InitialPopulation_1","code":{"coding":[{"system":"http://terminology.hl7.org/CodeSystem/measure-population","code":"initial-population","display":"Initial Population"}]},"count":0},{"id":"Denominator_1","code":{"coding":[{"system":"http://terminology.hl7.org/CodeSystem/measure-population","code":"denominator","display":"Denominator"}]},"count":0},{"id":"Numerator_1","code":{"coding":[{"system":"http://terminology.hl7.org/CodeSystem/measure-population","code":"numerator","display":"Numerator"}]},"count":0}]}]},{"id":"Stratification_1_4","code":[{"text":"Strata-4"}],"stratum":[{"value":{"text":"Strata-4"},"population":[{"id":"InitialPopulation_1","code":{"coding":[{"system":"http://terminology.hl7.org/CodeSystem/measure-population","code":"initial-population","display":"Initial Population"}]},"count":1},{"id":"Denominator_1","code":{"coding":[{"system":"http://terminology.hl7.org/CodeSystem/measure-population","code":"denominator","display":"Denominator"}]},"count":1},{"id":"Numerator_1","code":{"coding":[{"system":"http://terminology.hl7.org/CodeSystem/measure-population","code":"numerator","display":"Numerator"}]},"count":1}]}]}]}],"evaluatedResource":[{"reference":"Patient/9098f676-4f4e-402c-80e3-331aabb6d414"},{"reference":"Encounter/53f2d66c-620a-404f-a564-4474305e3d08"},{"reference":"Encounter/508adf29-757d-4ee1-b858-47b7cfe2e55a"},{"reference":"Location/dbf0f236-615a-47ea-85fc-ecccbd34064e"},{"reference":"Location/da6ef534-87e8-4138-bd0e-0f9938007f9c"},{"reference":"Condition/ccd7852c-bbac-4008-a433-c093ec160d03"},{"reference":"Location/3e9b702a-2f9a-44bd-b163-cc78e2c9941d"},{"reference":"Location/f5872656-bc6c-430b-ad1f-42c33837fb1f"},{"reference":"Claim/ClaimBehavior-NotSubsAbuse"},{"reference":"Coverage/04683b0b-dcec-47b0-a011-b9422ea5eb77"},{"reference":"Organization/20c86f6e-2830-407d-9aba-bae8de0f50d7"},{"reference":"Practitioner/04e38127-e4ca-4150-8fd8-df2d56f537e2"}]},"request":{"method":"PUT","url":"MeasureReport/b3eaea13-fb18-4a01-ab35-84d49885e7dc"}}]},"request":{"method":"PUT","url":"Bundle/661579e3db207d74c03b8a59"}},{"resource":{"resourceType":"Location","id":"f5872656-bc6c-430b-ad1f-42c33837fb1f","meta":{"profile":["http://hl7.org/fhir/us/qicore/StructureDefinition/qicore-location"]},"identifier":[{"use":"usual","system":"http://exampleoflocation.com","value":"B1-S.F2"}],"name":"Medical Surgical East, first floor","type":[{"coding":[{"system":"https://www.cdc.gov/nhsn/cdaportal/terminology/codesystem/hsloc.html","version":"2022","code":"1209-6","display":"Treatment Room"}]}]},"request":{"method":"PUT","url":"Location/f5872656-bc6c-430b-ad1f-42c33837fb1f"}},{"resource":{"resourceType":"Condition","id":"ccd7852c-bbac-4008-a433-c093ec160d03","meta":{"profile":["http://hl7.org/fhir/us/qicore/StructureDefinition/qicore-condition-encounter-diagnosis"]},"category":[{"coding":[{"system":"http://terminology.hl7.org/CodeSystem/condition-category","code":"encounter-diagnosis","display":"Encounter Diagnosis"}]}],"code":{"coding":[{"system":"http://snomed.info/sct","version":"2023-09","code":"10349009","display":"Multi-infarct dementia with delirium (disorder)","userSelected":true}]},"subject":{"reference":"Patient/9098f676-4f4e-402c-80e3-331aabb6d414"},"recordedDate":"2027-04-09T08:00:00.000+00:00"},"request":{"method":"PUT","url":"Condition/ccd7852c-bbac-4008-a433-c093ec160d03"}},{"resource":{"resourceType":"Encounter","id":"508adf29-757d-4ee1-b858-47b7cfe2e55a","meta":{"profile":["http://hl7.org/fhir/us/qicore/StructureDefinition/qicore-encounter"]},"status":"finished","class":{"system":"http://terminology.hl7.org/CodeSystem/v3-ActCode","code":"EMER","display":"emergency"},"type":[{"coding":[{"system":"http://snomed.info/sct","version":"2023-09","code":"4525004","display":"Emergency department patient visit (procedure)","userSelected":true}]}],"subject":{"reference":"Patient/9098f676-4f4e-402c-80e3-331aabb6d414"},"period":{"start":"2027-05-01T08:00:00.000+00:00","end":"2027-05-01T12:15:00.000+00:00"},"diagnosis":[{"condition":{"reference":"Condition/ccd7852c-bbac-4008-a433-c093ec160d03"},"use":{"coding":[{"system":"http://terminology.hl7.org/CodeSystem/diagnosis-role","code":"billing"}]},"rank":1}],"location":[{"location":{"reference":"Location/dbf0f236-615a-47ea-85fc-ecccbd34064e"},"period":{"start":"2027-05-01T07:45:00.000+00:00","end":"2027-05-01T16:31:00.000+00:00"}},{"location":{"reference":"Location/da6ef534-87e8-4138-bd0e-0f9938007f9c"},"period":{"start":"2027-05-01T09:31:00.000+00:00","end":"2027-05-01T12:15:00.000+00:00"}},{"location":{"reference":"Location/f5872656-bc6c-430b-ad1f-42c33837fb1f"},"period":{"start":"2027-05-01T08:40:00.000+00:00","end":"2027-05-01T12:15:00.000+00:00"}},{"location":{"reference":"Location/3e9b702a-2f9a-44bd-b163-cc78e2c9941d"},"period":{"start":"2027-05-01T08:30:00.000+00:00","end":"2027-05-01T15:46:00.000+00:00"}}]},"request":{"method":"PUT","url":"Encounter/508adf29-757d-4ee1-b858-47b7cfe2e55a"}},{"resource":{"resourceType":"Location","id":"dbf0f236-615a-47ea-85fc-ecccbd34064e","meta":{"profile":["http://hl7.org/fhir/us/qicore/StructureDefinition/qicore-location"]},"identifier":[{"use":"usual","system":"http://exampleoflocation.com","value":"B1-S.F1"}],"name":"Medical Surgical East, first floor","type":[{"coding":[{"system":"https://www.cdc.gov/nhsn/cdaportal/terminology/codesystem/hsloc.html","version":"2022","code":"1108-0","display":"Emergency Department","userSelected":true}]}]},"request":{"method":"PUT","url":"Location/dbf0f236-615a-47ea-85fc-ecccbd34064e"}},{"resource":{"resourceType":"Location","id":"da6ef534-87e8-4138-bd0e-0f9938007f9c","meta":{"profile":["http://hl7.org/fhir/us/qicore/StructureDefinition/qicore-location"]},"identifier":[{"use":"usual","system":"http://exampleoflocation.com","value":"B1-S.F2"}],"name":"Medical Surgical East, first floor","type":[{"coding":[{"system":"https://www.cdc.gov/nhsn/cdaportal/terminology/codesystem/hsloc.html","version":"2022","code":"1209-6","display":"Treatment Room","userSelected":true}]}]},"request":{"method":"PUT","url":"Location/da6ef534-87e8-4138-bd0e-0f9938007f9c"}},{"resource":{"resourceType":"Organization","id":"20c86f6e-2830-407d-9aba-bae8de0f50d7","meta":{"profile":["http://hl7.org/fhir/us/qicore/StructureDefinition/qicore-organization"]},"identifier":[{"use":"temp","system":"urn:oid:2.16.840.1.113883.4.4","value":"21-3259825"}],"active":true,"type":[{"coding":[{"system":"http://terminology.hl7.org/CodeSystem/organization-type","code":"pay","display":"Payer"}]}],"name":"Blue Cross Blue Shield of Texas","telecom":[{"system":"phone","value":"(+1) 972-766-6900"}],"address":[{"use":"billing","type":"postal","line":["P.O. Box 660044"],"city":"Dallas","state":"TX","postalCode":"75266-0044","country":"USA"}]},"request":{"method":"PUT","url":"Organization/20c86f6e-2830-407d-9aba-bae8de0f50d7"}},{"resource":{"resourceType":"Claim","id":"ClaimBehavior-NotSubsAbuse","meta":{"profile":["http://hl7.org/fhir/us/qicore/StructureDefinition/qicore-claim"]},"status":"active","type":{"coding":[{"system":"http://terminology.hl7.org/CodeSystem/claim-type","code":"institutional"}]},"use":"claim","patient":{"reference":"Patient/9098f676-4f4e-402c-80e3-331aabb6d414"},"created":"2027-05-01","provider":{"reference":"Practitioner/04e38127-e4ca-4150-8fd8-df2d56f537e2"},"priority":{"coding":[{"system":"http://terminology.hl7.org/CodeSystem/processpriority","code":"normal"}]},"diagnosis":[{"sequence":1,"diagnosisReference":{"reference":"Condition/ccd7852c-bbac-4008-a433-c093ec160d03"},"type":[{"coding":[{"system":"http://terminology.hl7.org/CodeSystem/ex-diagnosistype","code":"principal"}]}]}],"insurance":[{"sequence":1,"focal":true,"coverage":{"reference":"Coverage/04683b0b-dcec-47b0-a011-b9422ea5eb77"}}],"item":[{"sequence":1,"diagnosisSequence":[1],"productOrService":{"coding":[{"system":"http://terminology.hl7.org/CodeSystem/ex-USCLS","code":"99555"}]},"encounter":[{"reference":"Encounter/508adf29-757d-4ee1-b858-47b7cfe2e55a"}]}]},"request":{"method":"PUT","url":"Claim/ClaimBehavior-NotSubsAbuse"}},{"resource":{"resourceType":"Patient","id":"9098f676-4f4e-402c-80e3-331aabb6d414","meta":{"profile":["http://hl7.org/fhir/us/qicore/StructureDefinition/qicore-patient"]},"extension":[{"url":"http://hl7.org/fhir/us/core/StructureDefinition/us-core-race","extension":[{"url":"ombCategory","valueCoding":{"system":"urn:oid:2.16.840.1.113883.6.238","code":"2076-8","display":"Native Hawaiian or Other Pacific Islander","userSelected":true}},{"url":"text","valueString":"Native Hawaiian or Other Pacific Islander"}]},{"url":"http://hl7.org/fhir/us/core/StructureDefinition/us-core-ethnicity","extension":[{"url":"ombCategory","valueCoding":{"system":"urn:oid:2.16.840.1.113883.6.238","code":"2186-5","display":"Not Hispanic or Latino","userSelected":true}},{"url":"text","valueString":"Not Hispanic or Latino"}]},{"url":"http://hl7.org/fhir/us/core/StructureDefinition/us-core-sex","valueCode":"248152002"}],"identifier":[{"type":{"coding":[{"system":"http://terminology.hl7.org/CodeSystem/v2-0203","code":"MR"}]},"system":"https://bonnie-fhir.healthit.gov/","value":"661579e3db207d74c03b8a59"}],"name":[{"family":"NUMERStrat4Pass","given":["TimeToTx61Min"]}],"gender":"female","birthDate":"2008-12-31"},"request":{"method":"PUT","url":"Patient/9098f676-4f4e-402c-80e3-331aabb6d414"}}]}