{"resourceType":"Bundle","id":"tests-50270eff-f1ed-4cb3-b22b-467d89937c3a-bundle","type":"transaction","entry":[{"resource":{"resourceType":"Bundle","id":"661476b015ed5841a5547ebf","type":"transaction","entry":[{"fullUrl":"https://madie.cms.gov/Patient/50270eff-f1ed-4cb3-b22b-467d89937c3a","resource":{"resourceType":"Patient","id":"50270eff-f1ed-4cb3-b22b-467d89937c3a","meta":{"profile":["http://hl7.org/fhir/us/qicore/StructureDefinition/qicore-patient"]},"extension":[{"url":"http://hl7.org/fhir/us/core/StructureDefinition/us-core-race","extension":[{"url":"ombCategory","valueCoding":{"system":"urn:oid:2.16.840.1.113883.6.238","code":"1002-5","display":"American Indian or Alaska Native","userSelected":true}},{"url":"text","valueString":"American Indian or Alaska Native"}]},{"url":"http://hl7.org/fhir/us/core/StructureDefinition/us-core-ethnicity","extension":[{"url":"ombCategory","valueCoding":{"system":"urn:oid:2.16.840.1.113883.6.238","code":"2135-2","display":"Hispanic or Latino","userSelected":true}},{"url":"text","valueString":"Hispanic or Latino"}]},{"url":"http://hl7.org/fhir/us/core/StructureDefinition/us-core-sex","valueCode":"248153007"}],"identifier":[{"type":{"coding":[{"system":"http://terminology.hl7.org/CodeSystem/v2-0203","code":"MR"}]},"system":"https://bonnie-fhir.healthit.gov/","value":"661476b015ed5841a5547ebf"}],"name":[{"family":"NUMERStrat1Fail","given":["PatientTransferOrder240Minutes"]}],"gender":"male","birthDate":"2010-01-01"},"request":{"method":"PUT","url":"Patient/50270eff-f1ed-4cb3-b22b-467d89937c3a"}},{"fullUrl":"https://madie.cms.gov/Encounter/a3be55c5-364d-43a2-b411-ce967adb8fb9","resource":{"resourceType":"Encounter","id":"a3be55c5-364d-43a2-b411-ce967adb8fb9","meta":{"profile":["http://hl7.org/fhir/us/qicore/StructureDefinition/qicore-encounter"]},"status":"finished","class":{"system":"http://terminology.hl7.org/CodeSystem/v3-ActCode","code":"EMER","display":"emergency department"},"type":[{"coding":[{"system":"http://snomed.info/sct","version":"2023-09","code":"4525004","display":"Emergency department patient visit (procedure)","userSelected":true}]}],"subject":{"reference":"Patient/50270eff-f1ed-4cb3-b22b-467d89937c3a"},"period":{"start":"2027-05-01T00:00:00.000+00:00","end":"2027-05-01T04:00:00.000+00:00"},"diagnosis":[{"condition":{"reference":"Condition/322cfd18-2c33-45ea-b54c-a7d1534cb8a8"},"use":{"coding":[{"system":"http://terminology.hl7.org/CodeSystem/diagnosis-role","code":"billing"}]},"rank":1}],"location":[{"location":{"reference":"Location/869ba312-1b01-479e-96cf-bdd6e23337e0"},"period":{"start":"2027-05-01T00:00:00.000+00:00","end":"2027-05-01T04:00:00.000+00:00"}}]},"request":{"method":"PUT","url":"Encounter/a3be55c5-364d-43a2-b411-ce967adb8fb9"}},{"fullUrl":"https://madie.cms.gov/ServiceRequest/2e0b869f-e9ce-4d4f-9dcd-be3df77effa7","resource":{"resourceType":"ServiceRequest","id":"2e0b869f-e9ce-4d4f-9dcd-be3df77effa7","meta":{"profile":["http://hl7.org/fhir/us/qicore/StructureDefinition/qicore-servicerequest"]},"status":"completed","intent":"order","code":{"coding":[{"system":"http://snomed.info/sct","code":"19712007","display":"Patient transfer, to another health care facility (procedure)","userSelected":true}]},"subject":{"reference":"Patient/50270eff-f1ed-4cb3-b22b-467d89937c3a"},"authoredOn":"2027-05-01T00:00:00.000+00:00"},"request":{"method":"PUT","url":"ServiceRequest/2e0b869f-e9ce-4d4f-9dcd-be3df77effa7"}},{"fullUrl":"https://madie.cms.gov/Location/869ba312-1b01-479e-96cf-bdd6e23337e0","resource":{"resourceType":"Location","id":"869ba312-1b01-479e-96cf-bdd6e23337e0","meta":{"profile":["http://hl7.org/fhir/us/qicore/StructureDefinition/qicore-location"]},"identifier":[{"use":"usual","system":"http://exampleoflocation.com","value":"B1-S.F2"}],"name":"Emergency Department","type":[{"coding":[{"system":"https://www.cdc.gov/nhsn/cdaportal/terminology/codesystem/hsloc.html","version":"2022","code":"1108-0","display":"Emergency Department","userSelected":true}]}]},"request":{"method":"PUT","url":"Location/869ba312-1b01-479e-96cf-bdd6e23337e0"}},{"fullUrl":"https://madie.cms.gov/claim/ClaimBehavior-NotSubsAbuse","resource":{"resourceType":"Claim","id":"ClaimBehavior-NotSubsAbuse","meta":{"profile":["http://hl7.org/fhir/us/qicore/StructureDefinition/qicore-claim"]},"status":"active","type":{"coding":[{"system":"http://terminology.hl7.org/CodeSystem/claim-type","code":"institutional"}]},"use":"claim","patient":{"reference":"Patient/50270eff-f1ed-4cb3-b22b-467d89937c3a"},"created":"2027-05-01","provider":{"reference":"Practitioner/practitioner-123456"},"priority":{"coding":[{"system":"http://terminology.hl7.org/CodeSystem/processpriority","code":"normal"}]},"diagnosis":[{"sequence":1,"diagnosisReference":{"reference":"Condition/322cfd18-2c33-45ea-b54c-a7d1534cb8a8"},"type":[{"coding":[{"system":"http://terminology.hl7.org/CodeSystem/ex-diagnosistype","code":"principal"}]}]}],"insurance":[{"sequence":1,"focal":true,"coverage":{"reference":"Coverage/1"}}],"item":[{"sequence":1,"diagnosisSequence":[1],"productOrService":{"coding":[{"system":"http://terminology.hl7.org/CodeSystem/ex-USCLS","code":"99555"}]},"encounter":[{"reference":"Encounter/a3be55c5-364d-43a2-b411-ce967adb8fb9"}]}]},"request":{"method":"PUT","url":"Claim/ClaimBehavior-NotSubsAbuse"}},{"fullUrl":"https://madie.cms.gov/Coverage/2e3f6197-e355-47ca-8f23-5ac14c25fa83","resource":{"resourceType":"Coverage","id":"2e3f6197-e355-47ca-8f23-5ac14c25fa83","meta":{"profile":["http://hl7.org/fhir/us/qicore/StructureDefinition/qicore-coverage"]},"identifier":[{"type":{"coding":[{"system":"http://terminology.hl7.org/CodeSystem/v2-0203","code":"MB"}]}}],"status":"active","beneficiary":{"reference":"Patient/50270eff-f1ed-4cb3-b22b-467d89937c3a"},"relationship":{"coding":[{"system":"http://terminology.hl7.org/CodeSystem/subscriber-relationship","code":"self"}]},"payor":[{"reference":"Organization/640809f1-72be-4376-86e3-312227bdb267"}]},"request":{"method":"PUT","url":"Coverage/2e3f6197-e355-47ca-8f23-5ac14c25fa83"}},{"fullUrl":"https://madie.cms.gov/Condition/322cfd18-2c33-45ea-b54c-a7d1534cb8a8","resource":{"resourceType":"Condition","id":"322cfd18-2c33-45ea-b54c-a7d1534cb8a8","meta":{"profile":["http://hl7.org/fhir/us/qicore/StructureDefinition/qicore-condition-encounter-diagnosis"]},"category":[{"coding":[{"system":"http://terminology.hl7.org/CodeSystem/condition-category","code":"encounter-diagnosis","display":"Encounter Diagnosis"}]}],"code":{"coding":[{"system":"http://snomed.info/sct","version":"2023-09","code":"10674711000119105","display":"Acute severe exacerbation of asthma co-occurrent with allergic rhinitis (disorder)","userSelected":true}]},"subject":{"reference":"Patient/50270eff-f1ed-4cb3-b22b-467d89937c3a"},"recordedDate":"2027-05-01T08:00:00.000+00:00"},"request":{"method":"PUT","url":"Condition/322cfd18-2c33-45ea-b54c-a7d1534cb8a8"}},{"fullUrl":"https://madie.cms.gov/Organization/640809f1-72be-4376-86e3-312227bdb267","resource":{"resourceType":"Organization","id":"640809f1-72be-4376-86e3-312227bdb267","meta":{"profile":["http://hl7.org/fhir/us/qicore/StructureDefinition/qicore-organization"]},"identifier":[{"use":"temp","system":"urn:oid:2.16.840.1.113883.4.4","value":"21-3259825"}],"active":true,"type":[{"coding":[{"system":"http://terminology.hl7.org/CodeSystem/organization-type","code":"pay","display":"Payer"}]}],"name":"Blue Cross Blue Shield of Texas","telecom":[{"system":"phone","value":"(+1) 972-766-6900"}],"address":[{"use":"billing","type":"postal","line":["P.O. Box 660044"],"city":"Dallas","state":"TX","postalCode":"75266-0044","country":"USA"}]},"request":{"method":"PUT","url":"Organization/640809f1-72be-4376-86e3-312227bdb267"}},{"fullUrl":"https://madie.cms.gov/Practitioner/8b82fdba-e853-435a-bfba-31d2d3ab5b47","resource":{"resourceType":"Practitioner","id":"8b82fdba-e853-435a-bfba-31d2d3ab5b47","meta":{"profile":["http://hl7.org/fhir/us/qicore/StructureDefinition/qicore-practitioner"]},"identifier":[{"system":"http://hl7.org/fhir/sid/us-npi","value":"9999999896"}],"name":[{"family":"Evil","prefix":["Dr"]}]},"request":{"method":"PUT","url":"Practitioner/8b82fdba-e853-435a-bfba-31d2d3ab5b47"}},{"fullUrl":"https://madie.cms.gov/MeasureReport/9323b430-9ad0-4078-8743-710386d2e534","resource":{"resourceType":"MeasureReport","id":"9323b430-9ad0-4078-8743-710386d2e534","meta":{"profile":["http://hl7.org/fhir/us/cqfmeasures/StructureDefinition/test-case-cqfm"]},"contained":[{"resourceType":"Parameters","id":"fc5daaee-bddb-46cd-9df6-ff9fed4bebfb-parameters","parameter":[{"name":"subject","valueString":"50270eff-f1ed-4cb3-b22b-467d89937c3a"}]}],"extension":[{"url":"http://hl7.org/fhir/StructureDefinition/cqf-inputParameters","valueReference":{"reference":"#fc5daaee-bddb-46cd-9df6-ff9fed4bebfb-parameters"}},{"url":"http://hl7.org/fhir/us/cqfmeasures/StructureDefinition/cqfm-testCaseDescription","valueMarkdown":"Enc first day of MP, has allergic rhinitis, pt transfer order at 240 minutes"}],"modifierExtension":[{"url":"http://hl7.org/fhir/us/cqfmeasures/StructureDefinition/cqfm-isTestCase","valueBoolean":true}],"status":"complete","type":"individual","measure":"https://madie.cms.gov/Measure/CMS1264FHIRECATREHQR","period":{"start":"2027-01-01","end":"2027-12-31"},"group":[{"id":"Group_1","population":[{"id":"InitialPopulation_1","code":{"coding":[{"system":"http://terminology.hl7.org/CodeSystem/measure-population","code":"initial-population","display":"Initial Population"}]},"count":1},{"id":"Denominator_1","code":{"coding":[{"system":"http://terminology.hl7.org/CodeSystem/measure-population","code":"denominator","display":"Denominator"}]},"count":1},{"id":"Numerator_1","code":{"coding":[{"system":"http://terminology.hl7.org/CodeSystem/measure-population","code":"numerator","display":"Numerator"}]},"count":0}],"measureScore":{"value":0.0},"stratifier":[{"id":"Stratification_1_1","code":[{"text":"Strata-1"}],"stratum":[{"value":{"text":"Strata-1"},"population":[{"id":"InitialPopulation_1","code":{"coding":[{"system":"http://terminology.hl7.org/CodeSystem/measure-population","code":"initial-population","display":"Initial Population"}]},"count":1},{"id":"Denominator_1","code":{"coding":[{"system":"http://terminology.hl7.org/CodeSystem/measure-population","code":"denominator","display":"Denominator"}]},"count":1},{"id":"Numerator_1","code":{"coding":[{"system":"http://terminology.hl7.org/CodeSystem/measure-population","code":"numerator","display":"Numerator"}]},"count":0}]}]},{"id":"Stratification_1_2","code":[{"text":"Strata-2"}],"stratum":[{"value":{"text":"Strata-2"},"population":[{"id":"InitialPopulation_1","code":{"coding":[{"system":"http://terminology.hl7.org/CodeSystem/measure-population","code":"initial-population","display":"Initial Population"}]},"count":0},{"id":"Denominator_1","code":{"coding":[{"system":"http://terminology.hl7.org/CodeSystem/measure-population","code":"denominator","display":"Denominator"}]},"count":0},{"id":"Numerator_1","code":{"coding":[{"system":"http://terminology.hl7.org/CodeSystem/measure-population","code":"numerator","display":"Numerator"}]},"count":0}]}]},{"id":"Stratification_1_3","code":[{"text":"Strata-3"}],"stratum":[{"value":{"text":"Strata-3"},"population":[{"id":"InitialPopulation_1","code":{"coding":[{"system":"http://terminology.hl7.org/CodeSystem/measure-population","code":"initial-population","display":"Initial Population"}]},"count":0},{"id":"Denominator_1","code":{"coding":[{"system":"http://terminology.hl7.org/CodeSystem/measure-population","code":"denominator","display":"Denominator"}]},"count":0},{"id":"Numerator_1","code":{"coding":[{"system":"http://terminology.hl7.org/CodeSystem/measure-population","code":"numerator","display":"Numerator"}]},"count":0}]}]},{"id":"Stratification_1_4","code":[{"text":"Strata-4"}],"stratum":[{"value":{"text":"Strata-4"},"population":[{"id":"InitialPopulation_1","code":{"coding":[{"system":"http://terminology.hl7.org/CodeSystem/measure-population","code":"initial-population","display":"Initial Population"}]},"count":0},{"id":"Denominator_1","code":{"coding":[{"system":"http://terminology.hl7.org/CodeSystem/measure-population","code":"denominator","display":"Denominator"}]},"count":0},{"id":"Numerator_1","code":{"coding":[{"system":"http://terminology.hl7.org/CodeSystem/measure-population","code":"numerator","display":"Numerator"}]},"count":0}]}]}]}],"evaluatedResource":[{"reference":"Patient/50270eff-f1ed-4cb3-b22b-467d89937c3a"},{"reference":"Encounter/a3be55c5-364d-43a2-b411-ce967adb8fb9"},{"reference":"ServiceRequest/2e0b869f-e9ce-4d4f-9dcd-be3df77effa7"},{"reference":"Location/869ba312-1b01-479e-96cf-bdd6e23337e0"},{"reference":"Claim/ClaimBehavior-NotSubsAbuse"},{"reference":"Coverage/2e3f6197-e355-47ca-8f23-5ac14c25fa83"},{"reference":"Condition/322cfd18-2c33-45ea-b54c-a7d1534cb8a8"},{"reference":"Organization/640809f1-72be-4376-86e3-312227bdb267"},{"reference":"Practitioner/8b82fdba-e853-435a-bfba-31d2d3ab5b47"}]},"request":{"method":"PUT","url":"MeasureReport/9323b430-9ad0-4078-8743-710386d2e534"}}]},"request":{"method":"PUT","url":"Bundle/661476b015ed5841a5547ebf"}},{"resource":{"resourceType":"MeasureReport","id":"9323b430-9ad0-4078-8743-710386d2e534","meta":{"profile":["http://hl7.org/fhir/us/cqfmeasures/StructureDefinition/test-case-cqfm"]},"contained":[{"resourceType":"Parameters","id":"fc5daaee-bddb-46cd-9df6-ff9fed4bebfb-parameters","parameter":[{"name":"subject","valueString":"50270eff-f1ed-4cb3-b22b-467d89937c3a"}]}],"extension":[{"url":"http://hl7.org/fhir/StructureDefinition/cqf-inputParameters","valueReference":{"reference":"#fc5daaee-bddb-46cd-9df6-ff9fed4bebfb-parameters"}},{"url":"http://hl7.org/fhir/us/cqfmeasures/StructureDefinition/cqfm-testCaseDescription","valueMarkdown":"Enc first day of MP, has allergic rhinitis, pt transfer order at 240 minutes"}],"modifierExtension":[{"url":"http://hl7.org/fhir/us/cqfmeasures/StructureDefinition/cqfm-isTestCase","valueBoolean":true}],"status":"complete","type":"individual","measure":"https://madie.cms.gov/Measure/CMS1264FHIRECATREHQR","period":{"start":"2027-01-01","end":"2027-12-31"},"group":[{"id":"Group_1","population":[{"id":"InitialPopulation_1","code":{"coding":[{"system":"http://terminology.hl7.org/CodeSystem/measure-population","code":"initial-population","display":"Initial Population"}]},"count":1},{"id":"Denominator_1","code":{"coding":[{"system":"http://terminology.hl7.org/CodeSystem/measure-population","code":"denominator","display":"Denominator"}]},"count":1},{"id":"Numerator_1","code":{"coding":[{"system":"http://terminology.hl7.org/CodeSystem/measure-population","code":"numerator","display":"Numerator"}]},"count":0}],"measureScore":{"value":0.0},"stratifier":[{"id":"Stratification_1_1","code":[{"text":"Strata-1"}],"stratum":[{"value":{"text":"Strata-1"},"population":[{"id":"InitialPopulation_1","code":{"coding":[{"system":"http://terminology.hl7.org/CodeSystem/measure-population","code":"initial-population","display":"Initial Population"}]},"count":1},{"id":"Denominator_1","code":{"coding":[{"system":"http://terminology.hl7.org/CodeSystem/measure-population","code":"denominator","display":"Denominator"}]},"count":1},{"id":"Numerator_1","code":{"coding":[{"system":"http://terminology.hl7.org/CodeSystem/measure-population","code":"numerator","display":"Numerator"}]},"count":0}]}]},{"id":"Stratification_1_2","code":[{"text":"Strata-2"}],"stratum":[{"value":{"text":"Strata-2"},"population":[{"id":"InitialPopulation_1","code":{"coding":[{"system":"http://terminology.hl7.org/CodeSystem/measure-population","code":"initial-population","display":"Initial Population"}]},"count":0},{"id":"Denominator_1","code":{"coding":[{"system":"http://terminology.hl7.org/CodeSystem/measure-population","code":"denominator","display":"Denominator"}]},"count":0},{"id":"Numerator_1","code":{"coding":[{"system":"http://terminology.hl7.org/CodeSystem/measure-population","code":"numerator","display":"Numerator"}]},"count":0}]}]},{"id":"Stratification_1_3","code":[{"text":"Strata-3"}],"stratum":[{"value":{"text":"Strata-3"},"population":[{"id":"InitialPopulation_1","code":{"coding":[{"system":"http://terminology.hl7.org/CodeSystem/measure-population","code":"initial-population","display":"Initial Population"}]},"count":0},{"id":"Denominator_1","code":{"coding":[{"system":"http://terminology.hl7.org/CodeSystem/measure-population","code":"denominator","display":"Denominator"}]},"count":0},{"id":"Numerator_1","code":{"coding":[{"system":"http://terminology.hl7.org/CodeSystem/measure-population","code":"numerator","display":"Numerator"}]},"count":0}]}]},{"id":"Stratification_1_4","code":[{"text":"Strata-4"}],"stratum":[{"value":{"text":"Strata-4"},"population":[{"id":"InitialPopulation_1","code":{"coding":[{"system":"http://terminology.hl7.org/CodeSystem/measure-population","code":"initial-population","display":"Initial Population"}]},"count":0},{"id":"Denominator_1","code":{"coding":[{"system":"http://terminology.hl7.org/CodeSystem/measure-population","code":"denominator","display":"Denominator"}]},"count":0},{"id":"Numerator_1","code":{"coding":[{"system":"http://terminology.hl7.org/CodeSystem/measure-population","code":"numerator","display":"Numerator"}]},"count":0}]}]}]}],"evaluatedResource":[{"reference":"Patient/50270eff-f1ed-4cb3-b22b-467d89937c3a"},{"reference":"Encounter/a3be55c5-364d-43a2-b411-ce967adb8fb9"},{"reference":"ServiceRequest/2e0b869f-e9ce-4d4f-9dcd-be3df77effa7"},{"reference":"Location/869ba312-1b01-479e-96cf-bdd6e23337e0"},{"reference":"Claim/ClaimBehavior-NotSubsAbuse"},{"reference":"Coverage/2e3f6197-e355-47ca-8f23-5ac14c25fa83"},{"reference":"Condition/322cfd18-2c33-45ea-b54c-a7d1534cb8a8"},{"reference":"Organization/640809f1-72be-4376-86e3-312227bdb267"},{"reference":"Practitioner/8b82fdba-e853-435a-bfba-31d2d3ab5b47"}]},"request":{"method":"PUT","url":"MeasureReport/9323b430-9ad0-4078-8743-710386d2e534"}},{"resource":{"resourceType":"Practitioner","id":"8b82fdba-e853-435a-bfba-31d2d3ab5b47","meta":{"profile":["http://hl7.org/fhir/us/qicore/StructureDefinition/qicore-practitioner"]},"identifier":[{"system":"http://hl7.org/fhir/sid/us-npi","value":"9999999896"}],"name":[{"family":"Evil","prefix":["Dr"]}]},"request":{"method":"PUT","url":"Practitioner/8b82fdba-e853-435a-bfba-31d2d3ab5b47"}},{"resource":{"resourceType":"Patient","id":"50270eff-f1ed-4cb3-b22b-467d89937c3a","meta":{"profile":["http://hl7.org/fhir/us/qicore/StructureDefinition/qicore-patient"]},"extension":[{"url":"http://hl7.org/fhir/us/core/StructureDefinition/us-core-race","extension":[{"url":"ombCategory","valueCoding":{"system":"urn:oid:2.16.840.1.113883.6.238","code":"1002-5","display":"American Indian or Alaska Native","userSelected":true}},{"url":"text","valueString":"American Indian or Alaska Native"}]},{"url":"http://hl7.org/fhir/us/core/StructureDefinition/us-core-ethnicity","extension":[{"url":"ombCategory","valueCoding":{"system":"urn:oid:2.16.840.1.113883.6.238","code":"2135-2","display":"Hispanic or Latino","userSelected":true}},{"url":"text","valueString":"Hispanic or Latino"}]},{"url":"http://hl7.org/fhir/us/core/StructureDefinition/us-core-sex","valueCode":"248153007"}],"identifier":[{"type":{"coding":[{"system":"http://terminology.hl7.org/CodeSystem/v2-0203","code":"MR"}]},"system":"https://bonnie-fhir.healthit.gov/","value":"661476b015ed5841a5547ebf"}],"name":[{"family":"NUMERStrat1Fail","given":["PatientTransferOrder240Minutes"]}],"gender":"male","birthDate":"2010-01-01"},"request":{"method":"PUT","url":"Patient/50270eff-f1ed-4cb3-b22b-467d89937c3a"}},{"resource":{"resourceType":"Location","id":"869ba312-1b01-479e-96cf-bdd6e23337e0","meta":{"profile":["http://hl7.org/fhir/us/qicore/StructureDefinition/qicore-location"]},"identifier":[{"use":"usual","system":"http://exampleoflocation.com","value":"B1-S.F2"}],"name":"Emergency Department","type":[{"coding":[{"system":"https://www.cdc.gov/nhsn/cdaportal/terminology/codesystem/hsloc.html","version":"2022","code":"1108-0","display":"Emergency Department","userSelected":true}]}]},"request":{"method":"PUT","url":"Location/869ba312-1b01-479e-96cf-bdd6e23337e0"}},{"resource":{"resourceType":"ServiceRequest","id":"2e0b869f-e9ce-4d4f-9dcd-be3df77effa7","meta":{"profile":["http://hl7.org/fhir/us/qicore/StructureDefinition/qicore-servicerequest"]},"status":"completed","intent":"order","code":{"coding":[{"system":"http://snomed.info/sct","code":"19712007","display":"Patient transfer, to another health care facility (procedure)","userSelected":true}]},"subject":{"reference":"Patient/50270eff-f1ed-4cb3-b22b-467d89937c3a"},"authoredOn":"2027-05-01T00:00:00.000+00:00"},"request":{"method":"PUT","url":"ServiceRequest/2e0b869f-e9ce-4d4f-9dcd-be3df77effa7"}},{"resource":{"resourceType":"Encounter","id":"a3be55c5-364d-43a2-b411-ce967adb8fb9","meta":{"profile":["http://hl7.org/fhir/us/qicore/StructureDefinition/qicore-encounter"]},"status":"finished","class":{"system":"http://terminology.hl7.org/CodeSystem/v3-ActCode","code":"EMER","display":"emergency department"},"type":[{"coding":[{"system":"http://snomed.info/sct","version":"2023-09","code":"4525004","display":"Emergency department patient visit (procedure)","userSelected":true}]}],"subject":{"reference":"Patient/50270eff-f1ed-4cb3-b22b-467d89937c3a"},"period":{"start":"2027-05-01T00:00:00.000+00:00","end":"2027-05-01T04:00:00.000+00:00"},"diagnosis":[{"condition":{"reference":"Condition/322cfd18-2c33-45ea-b54c-a7d1534cb8a8"},"use":{"coding":[{"system":"http://terminology.hl7.org/CodeSystem/diagnosis-role","code":"billing"}]},"rank":1}],"location":[{"location":{"reference":"Location/869ba312-1b01-479e-96cf-bdd6e23337e0"},"period":{"start":"2027-05-01T00:00:00.000+00:00","end":"2027-05-01T04:00:00.000+00:00"}}]},"request":{"method":"PUT","url":"Encounter/a3be55c5-364d-43a2-b411-ce967adb8fb9"}},{"resource":{"resourceType":"Condition","id":"322cfd18-2c33-45ea-b54c-a7d1534cb8a8","meta":{"profile":["http://hl7.org/fhir/us/qicore/StructureDefinition/qicore-condition-encounter-diagnosis"]},"category":[{"coding":[{"system":"http://terminology.hl7.org/CodeSystem/condition-category","code":"encounter-diagnosis","display":"Encounter Diagnosis"}]}],"code":{"coding":[{"system":"http://snomed.info/sct","version":"2023-09","code":"10674711000119105","display":"Acute severe exacerbation of asthma co-occurrent with allergic rhinitis (disorder)","userSelected":true}]},"subject":{"reference":"Patient/50270eff-f1ed-4cb3-b22b-467d89937c3a"},"recordedDate":"2027-05-01T08:00:00.000+00:00"},"request":{"method":"PUT","url":"Condition/322cfd18-2c33-45ea-b54c-a7d1534cb8a8"}},{"resource":{"resourceType":"Coverage","id":"2e3f6197-e355-47ca-8f23-5ac14c25fa83","meta":{"profile":["http://hl7.org/fhir/us/qicore/StructureDefinition/qicore-coverage"]},"identifier":[{"type":{"coding":[{"system":"http://terminology.hl7.org/CodeSystem/v2-0203","code":"MB"}]}}],"status":"active","beneficiary":{"reference":"Patient/50270eff-f1ed-4cb3-b22b-467d89937c3a"},"relationship":{"coding":[{"system":"http://terminology.hl7.org/CodeSystem/subscriber-relationship","code":"self"}]},"payor":[{"reference":"Organization/640809f1-72be-4376-86e3-312227bdb267"}]},"request":{"method":"PUT","url":"Coverage/2e3f6197-e355-47ca-8f23-5ac14c25fa83"}},{"resource":{"resourceType":"Claim","id":"ClaimBehavior-NotSubsAbuse","meta":{"profile":["http://hl7.org/fhir/us/qicore/StructureDefinition/qicore-claim"]},"status":"active","type":{"coding":[{"system":"http://terminology.hl7.org/CodeSystem/claim-type","code":"institutional"}]},"use":"claim","patient":{"reference":"Patient/50270eff-f1ed-4cb3-b22b-467d89937c3a"},"created":"2027-05-01","provider":{"reference":"Practitioner/practitioner-123456"},"priority":{"coding":[{"system":"http://terminology.hl7.org/CodeSystem/processpriority","code":"normal"}]},"diagnosis":[{"sequence":1,"diagnosisReference":{"reference":"Condition/322cfd18-2c33-45ea-b54c-a7d1534cb8a8"},"type":[{"coding":[{"system":"http://terminology.hl7.org/CodeSystem/ex-diagnosistype","code":"principal"}]}]}],"insurance":[{"sequence":1,"focal":true,"coverage":{"reference":"Coverage/1"}}],"item":[{"sequence":1,"diagnosisSequence":[1],"productOrService":{"coding":[{"system":"http://terminology.hl7.org/CodeSystem/ex-USCLS","code":"99555"}]},"encounter":[{"reference":"Encounter/a3be55c5-364d-43a2-b411-ce967adb8fb9"}]}]},"request":{"method":"PUT","url":"Claim/ClaimBehavior-NotSubsAbuse"}},{"resource":{"resourceType":"Organization","id":"640809f1-72be-4376-86e3-312227bdb267","meta":{"profile":["http://hl7.org/fhir/us/qicore/StructureDefinition/qicore-organization"]},"identifier":[{"use":"temp","system":"urn:oid:2.16.840.1.113883.4.4","value":"21-3259825"}],"active":true,"type":[{"coding":[{"system":"http://terminology.hl7.org/CodeSystem/organization-type","code":"pay","display":"Payer"}]}],"name":"Blue Cross Blue Shield of Texas","telecom":[{"system":"phone","value":"(+1) 972-766-6900"}],"address":[{"use":"billing","type":"postal","line":["P.O. Box 660044"],"city":"Dallas","state":"TX","postalCode":"75266-0044","country":"USA"}]},"request":{"method":"PUT","url":"Organization/640809f1-72be-4376-86e3-312227bdb267"}}]}