{"resourceType":"Bundle","id":"tests-2fc54731-4fd9-4884-aba5-9a8385111375-bundle","type":"transaction","entry":[{"fullUrl":"Bundle/661579e3db207d74c03b8a51","resource":{"resourceType":"Bundle","id":"661579e3db207d74c03b8a51","type":"transaction","entry":[{"fullUrl":"https://madie.cms.gov/Patient/2fc54731-4fd9-4884-aba5-9a8385111375","resource":{"resourceType":"Patient","id":"2fc54731-4fd9-4884-aba5-9a8385111375","meta":{"profile":["http://hl7.org/fhir/us/qicore/StructureDefinition/qicore-patient"]},"extension":[{"url":"http://hl7.org/fhir/us/core/StructureDefinition/us-core-race","extension":[{"url":"ombCategory","valueCoding":{"system":"urn:oid:2.16.840.1.113883.6.238","code":"2076-8","display":"Native Hawaiian or Other Pacific Islander","userSelected":true}},{"url":"text","valueString":"Native Hawaiian or Other Pacific Islander"}]},{"url":"http://hl7.org/fhir/us/core/StructureDefinition/us-core-ethnicity","extension":[{"url":"ombCategory","valueCoding":{"system":"urn:oid:2.16.840.1.113883.6.238","code":"2186-5","display":"Not Hispanic or Latino","userSelected":true}},{"url":"text","valueString":"Not Hispanic or Latino"}]},{"url":"http://hl7.org/fhir/us/core/StructureDefinition/us-core-sex","valueCode":"248152002"}],"identifier":[{"type":{"coding":[{"system":"http://terminology.hl7.org/CodeSystem/v2-0203","code":"MR"}]},"system":"https://bonnie-fhir.healthit.gov/","value":"661579e3db207d74c03b8a51"}],"name":[{"family":"NUMERStrat4Pass","given":["TriageOverlapBeforeEM"]}],"gender":"female","birthDate":"2008-12-31"},"request":{"method":"PUT","url":"Patient/2fc54731-4fd9-4884-aba5-9a8385111375"}},{"fullUrl":"https://madie.cms.gov/Encounter/62426e96-3928-45bb-9bdf-7c23ab7bbff0","resource":{"resourceType":"Encounter","id":"62426e96-3928-45bb-9bdf-7c23ab7bbff0","meta":{"profile":["http://hl7.org/fhir/us/qicore/StructureDefinition/qicore-encounter"]},"status":"finished","class":{"system":"http://terminology.hl7.org/CodeSystem/v3-ActCode","code":"EMER","display":"emergency"},"type":[{"coding":[{"system":"http://snomed.info/sct","version":"2023-09","code":"225390008","display":"Triage (procedure)","userSelected":true}]}],"subject":{"reference":"Patient/2fc54731-4fd9-4884-aba5-9a8385111375"},"period":{"start":"2027-05-01T07:00:00.000+00:00","end":"2027-05-01T08:15:00.000+00:00"}},"request":{"method":"PUT","url":"Encounter/62426e96-3928-45bb-9bdf-7c23ab7bbff0"}},{"fullUrl":"https://madie.cms.gov/Encounter/8cdaceae-947f-4e05-9062-d4255e182909","resource":{"resourceType":"Encounter","id":"8cdaceae-947f-4e05-9062-d4255e182909","meta":{"profile":["http://hl7.org/fhir/us/qicore/StructureDefinition/qicore-encounter"]},"status":"finished","class":{"system":"http://terminology.hl7.org/CodeSystem/v3-ActCode","code":"EMER","display":"emergency"},"type":[{"coding":[{"system":"http://snomed.info/sct","version":"2023-09","code":"4525004","display":"Emergency department patient visit (procedure)","userSelected":true}]}],"subject":{"reference":"Patient/2fc54731-4fd9-4884-aba5-9a8385111375"},"period":{"start":"2027-05-01T08:00:00.000+00:00","end":"2027-05-01T12:15:00.000+00:00"},"diagnosis":[{"condition":{"reference":"Condition/4a647ce8-ebf8-4b1b-a6f4-7f59fb96ad65"},"use":{"coding":[{"system":"http://terminology.hl7.org/CodeSystem/diagnosis-role","code":"billing"}]},"rank":1}],"location":[{"location":{"reference":"Location/cfd8d7cf-35cd-429f-aed7-9bb8bc6f83af"},"period":{"start":"2027-05-01T07:45:00.000+00:00","end":"2027-05-01T16:31:00.000+00:00"}},{"location":{"reference":"Location/39772293-cf80-42b7-a1a7-940a1a1edc32"},"period":{"start":"2027-05-01T09:31:00.000+00:00","end":"2027-05-01T12:15:00.000+00:00"}},{"location":{"reference":"Location/8beb6892-997e-4ccd-a456-cb4ee343312b"},"period":{"start":"2027-05-01T08:40:00.000+00:00","end":"2027-05-01T12:15:00.000+00:00"}},{"location":{"reference":"Location/61446342-b985-47a7-821c-aee4223538bc"},"period":{"start":"2027-05-01T08:30:00.000+00:00","end":"2027-05-01T15:46:00.000+00:00"}}]},"request":{"method":"PUT","url":"Encounter/8cdaceae-947f-4e05-9062-d4255e182909"}},{"fullUrl":"https://madie.cms.gov/Location/cfd8d7cf-35cd-429f-aed7-9bb8bc6f83af","resource":{"resourceType":"Location","id":"cfd8d7cf-35cd-429f-aed7-9bb8bc6f83af","meta":{"profile":["http://hl7.org/fhir/us/qicore/StructureDefinition/qicore-location"]},"identifier":[{"use":"usual","system":"http://exampleoflocation.com","value":"B1-S.F1"}],"name":"Medical Surgical East, first floor","type":[{"coding":[{"system":"https://www.cdc.gov/nhsn/cdaportal/terminology/codesystem/hsloc.html","version":"2022","code":"1108-0","display":"Emergency Department","userSelected":true}]}]},"request":{"method":"PUT","url":"Location/cfd8d7cf-35cd-429f-aed7-9bb8bc6f83af"}},{"fullUrl":"https://madie.cms.gov/Location/39772293-cf80-42b7-a1a7-940a1a1edc32","resource":{"resourceType":"Location","id":"39772293-cf80-42b7-a1a7-940a1a1edc32","meta":{"profile":["http://hl7.org/fhir/us/qicore/StructureDefinition/qicore-location"]},"identifier":[{"use":"usual","system":"http://exampleoflocation.com","value":"B1-S.F2"}],"name":"Medical Surgical East, first floor","type":[{"coding":[{"system":"https://www.cdc.gov/nhsn/cdaportal/terminology/codesystem/hsloc.html","version":"2022","code":"1209-6","display":"Treatment Room","userSelected":true}]}]},"request":{"method":"PUT","url":"Location/39772293-cf80-42b7-a1a7-940a1a1edc32"}},{"fullUrl":"https://madie.cms.gov/Condition/4a647ce8-ebf8-4b1b-a6f4-7f59fb96ad65","resource":{"resourceType":"Condition","id":"4a647ce8-ebf8-4b1b-a6f4-7f59fb96ad65","meta":{"profile":["http://hl7.org/fhir/us/qicore/StructureDefinition/qicore-condition-encounter-diagnosis"]},"category":[{"coding":[{"system":"http://terminology.hl7.org/CodeSystem/condition-category","code":"encounter-diagnosis","display":"Encounter Diagnosis"}]}],"code":{"coding":[{"system":"http://snomed.info/sct","version":"2023-09","code":"10349009","display":"Multi-infarct dementia with delirium (disorder)","userSelected":true}]},"subject":{"reference":"Patient/2fc54731-4fd9-4884-aba5-9a8385111375"},"recordedDate":"2027-04-09T08:00:00.000+00:00"},"request":{"method":"PUT","url":"Condition/4a647ce8-ebf8-4b1b-a6f4-7f59fb96ad65"}},{"fullUrl":"https://madie.cms.gov/Location/61446342-b985-47a7-821c-aee4223538bc","resource":{"resourceType":"Location","id":"61446342-b985-47a7-821c-aee4223538bc","meta":{"profile":["http://hl7.org/fhir/us/qicore/StructureDefinition/qicore-location"]},"identifier":[{"use":"usual","system":"http://exampleoflocation.com","value":"B1-S.F2"}],"name":"Medical Surgical East, first floor","type":[{"coding":[{"system":"https://www.cdc.gov/nhsn/cdaportal/terminology/codesystem/hsloc.html","version":"2022","code":"1108-0","display":"Emergency Department","userSelected":true}]}]},"request":{"method":"PUT","url":"Location/61446342-b985-47a7-821c-aee4223538bc"}},{"fullUrl":"https://madie.cms.gov/Location/8beb6892-997e-4ccd-a456-cb4ee343312b","resource":{"resourceType":"Location","id":"8beb6892-997e-4ccd-a456-cb4ee343312b","meta":{"profile":["http://hl7.org/fhir/us/qicore/StructureDefinition/qicore-location"]},"identifier":[{"use":"usual","system":"http://exampleoflocation.com","value":"B1-S.F2"}],"name":"Medical Surgical East, first floor","type":[{"coding":[{"system":"https://www.cdc.gov/nhsn/cdaportal/terminology/codesystem/hsloc.html","version":"2022","code":"1209-6","display":"Treatment Room"}]}]},"request":{"method":"PUT","url":"Location/8beb6892-997e-4ccd-a456-cb4ee343312b"}},{"fullUrl":"https://madie.cms.gov/claim/ClaimBehavior-NotSubsAbuse","resource":{"resourceType":"Claim","id":"ClaimBehavior-NotSubsAbuse","meta":{"profile":["http://hl7.org/fhir/us/qicore/StructureDefinition/qicore-claim"]},"status":"active","type":{"coding":[{"system":"http://terminology.hl7.org/CodeSystem/claim-type","code":"institutional"}]},"use":"claim","patient":{"reference":"Patient/2fc54731-4fd9-4884-aba5-9a8385111375"},"created":"2027-05-01","provider":{"reference":"Practitioner/a55901bc-3324-494b-b730-13dfac30386d"},"priority":{"coding":[{"system":"http://terminology.hl7.org/CodeSystem/processpriority","code":"normal"}]},"diagnosis":[{"sequence":1,"diagnosisReference":{"reference":"Condition/4a647ce8-ebf8-4b1b-a6f4-7f59fb96ad65"},"type":[{"coding":[{"system":"http://terminology.hl7.org/CodeSystem/ex-diagnosistype","code":"principal"}]}]}],"insurance":[{"sequence":1,"focal":true,"coverage":{"reference":"Coverage/b7db1975-a83e-439c-9478-3de2289fed0c"}}],"item":[{"sequence":1,"diagnosisSequence":[1],"productOrService":{"coding":[{"system":"http://terminology.hl7.org/CodeSystem/ex-USCLS","code":"99555"}]},"encounter":[{"reference":"Encounter/8cdaceae-947f-4e05-9062-d4255e182909"}]}]},"request":{"method":"PUT","url":"Claim/ClaimBehavior-NotSubsAbuse"}},{"fullUrl":"https://madie.cms.gov/Coverage/b7db1975-a83e-439c-9478-3de2289fed0c","resource":{"resourceType":"Coverage","id":"b7db1975-a83e-439c-9478-3de2289fed0c","meta":{"profile":["http://hl7.org/fhir/us/qicore/StructureDefinition/qicore-coverage"]},"identifier":[{"type":{"coding":[{"system":"http://terminology.hl7.org/CodeSystem/v2-0203","code":"MB"}]}}],"status":"active","beneficiary":{"reference":"Patient/2fc54731-4fd9-4884-aba5-9a8385111375"},"relationship":{"coding":[{"system":"http://terminology.hl7.org/CodeSystem/subscriber-relationship","code":"self"}]},"payor":[{"reference":"Organization/d92aaa7b-2d60-4c29-a72b-dfe129be1162"}]},"request":{"method":"PUT","url":"Coverage/b7db1975-a83e-439c-9478-3de2289fed0c"}},{"fullUrl":"https://madie.cms.gov/Organization/d92aaa7b-2d60-4c29-a72b-dfe129be1162","resource":{"resourceType":"Organization","id":"d92aaa7b-2d60-4c29-a72b-dfe129be1162","meta":{"profile":["http://hl7.org/fhir/us/qicore/StructureDefinition/qicore-organization"]},"identifier":[{"use":"temp","system":"urn:oid:2.16.840.1.113883.4.4","value":"21-3259825"}],"active":true,"type":[{"coding":[{"system":"http://terminology.hl7.org/CodeSystem/organization-type","code":"pay","display":"Payer"}]}],"name":"Blue Cross Blue Shield of Texas","telecom":[{"system":"phone","value":"(+1) 972-766-6900"}],"address":[{"use":"billing","type":"postal","line":["P.O. Box 660044"],"city":"Dallas","state":"TX","postalCode":"75266-0044","country":"USA"}]},"request":{"method":"PUT","url":"Organization/d92aaa7b-2d60-4c29-a72b-dfe129be1162"}},{"fullUrl":"https://madie.cms.gov/Practitioner/a55901bc-3324-494b-b730-13dfac30386d","resource":{"resourceType":"Practitioner","id":"a55901bc-3324-494b-b730-13dfac30386d","meta":{"profile":["http://hl7.org/fhir/us/qicore/StructureDefinition/qicore-practitioner"]},"identifier":[{"system":"http://hl7.org/fhir/sid/us-npi","value":"9999999896"}],"name":[{"family":"Evil","prefix":["Dr"]}]},"request":{"method":"PUT","url":"Practitioner/a55901bc-3324-494b-b730-13dfac30386d"}},{"fullUrl":"https://madie.cms.gov/MeasureReport/2b713688-91ee-435e-a65e-df801083a826","resource":{"resourceType":"MeasureReport","id":"2b713688-91ee-435e-a65e-df801083a826","meta":{"profile":["http://hl7.org/fhir/us/cqfmeasures/StructureDefinition/test-case-cqfm"]},"contained":[{"resourceType":"Parameters","id":"190d6d1a-3dea-4b60-8b56-6df017525623-parameters","parameter":[{"name":"subject","valueString":"2fc54731-4fd9-4884-aba5-9a8385111375"}]}],"extension":[{"url":"http://hl7.org/fhir/StructureDefinition/cqf-inputParameters","valueReference":{"reference":"#190d6d1a-3dea-4b60-8b56-6df017525623-parameters"}},{"url":"http://hl7.org/fhir/us/cqfmeasures/StructureDefinition/cqfm-testCaseDescription","valueMarkdown":"Adult, mental diagnosis, LOS 8+ hours. Triage overlap EM start"}],"modifierExtension":[{"url":"http://hl7.org/fhir/us/cqfmeasures/StructureDefinition/cqfm-isTestCase","valueBoolean":true}],"status":"complete","type":"individual","measure":"https://madie.cms.gov/Measure/CMS1264FHIRECATREHQR","period":{"start":"2027-01-01","end":"2027-12-31"},"group":[{"id":"Group_1","population":[{"id":"InitialPopulation_1","code":{"coding":[{"system":"http://terminology.hl7.org/CodeSystem/measure-population","code":"initial-population","display":"Initial Population"}]},"count":1},{"id":"Denominator_1","code":{"coding":[{"system":"http://terminology.hl7.org/CodeSystem/measure-population","code":"denominator","display":"Denominator"}]},"count":1},{"id":"Numerator_1","code":{"coding":[{"system":"http://terminology.hl7.org/CodeSystem/measure-population","code":"numerator","display":"Numerator"}]},"count":1}],"measureScore":{"value":0.0},"stratifier":[{"id":"Stratification_1_1","code":[{"text":"Strata-1"}],"stratum":[{"value":{"text":"Strata-1"},"population":[{"id":"InitialPopulation_1","code":{"coding":[{"system":"http://terminology.hl7.org/CodeSystem/measure-population","code":"initial-population","display":"Initial Population"}]},"count":0},{"id":"Denominator_1","code":{"coding":[{"system":"http://terminology.hl7.org/CodeSystem/measure-population","code":"denominator","display":"Denominator"}]},"count":0},{"id":"Numerator_1","code":{"coding":[{"system":"http://terminology.hl7.org/CodeSystem/measure-population","code":"numerator","display":"Numerator"}]},"count":0}]}]},{"id":"Stratification_1_2","code":[{"text":"Strata-2"}],"stratum":[{"value":{"text":"Strata-2"},"population":[{"id":"InitialPopulation_1","code":{"coding":[{"system":"http://terminology.hl7.org/CodeSystem/measure-population","code":"initial-population","display":"Initial Population"}]},"count":0},{"id":"Denominator_1","code":{"coding":[{"system":"http://terminology.hl7.org/CodeSystem/measure-population","code":"denominator","display":"Denominator"}]},"count":0},{"id":"Numerator_1","code":{"coding":[{"system":"http://terminology.hl7.org/CodeSystem/measure-population","code":"numerator","display":"Numerator"}]},"count":0}]}]},{"id":"Stratification_1_3","code":[{"text":"Strata-3"}],"stratum":[{"value":{"text":"Strata-3"},"population":[{"id":"InitialPopulation_1","code":{"coding":[{"system":"http://terminology.hl7.org/CodeSystem/measure-population","code":"initial-population","display":"Initial Population"}]},"count":0},{"id":"Denominator_1","code":{"coding":[{"system":"http://terminology.hl7.org/CodeSystem/measure-population","code":"denominator","display":"Denominator"}]},"count":0},{"id":"Numerator_1","code":{"coding":[{"system":"http://terminology.hl7.org/CodeSystem/measure-population","code":"numerator","display":"Numerator"}]},"count":0}]}]},{"id":"Stratification_1_4","code":[{"text":"Strata-4"}],"stratum":[{"value":{"text":"Strata-4"},"population":[{"id":"InitialPopulation_1","code":{"coding":[{"system":"http://terminology.hl7.org/CodeSystem/measure-population","code":"initial-population","display":"Initial Population"}]},"count":1},{"id":"Denominator_1","code":{"coding":[{"system":"http://terminology.hl7.org/CodeSystem/measure-population","code":"denominator","display":"Denominator"}]},"count":1},{"id":"Numerator_1","code":{"coding":[{"system":"http://terminology.hl7.org/CodeSystem/measure-population","code":"numerator","display":"Numerator"}]},"count":1}]}]}]}],"evaluatedResource":[{"reference":"Patient/2fc54731-4fd9-4884-aba5-9a8385111375"},{"reference":"Encounter/62426e96-3928-45bb-9bdf-7c23ab7bbff0"},{"reference":"Encounter/8cdaceae-947f-4e05-9062-d4255e182909"},{"reference":"Location/cfd8d7cf-35cd-429f-aed7-9bb8bc6f83af"},{"reference":"Location/39772293-cf80-42b7-a1a7-940a1a1edc32"},{"reference":"Condition/4a647ce8-ebf8-4b1b-a6f4-7f59fb96ad65"},{"reference":"Location/61446342-b985-47a7-821c-aee4223538bc"},{"reference":"Location/8beb6892-997e-4ccd-a456-cb4ee343312b"},{"reference":"Claim/ClaimBehavior-NotSubsAbuse"},{"reference":"Coverage/b7db1975-a83e-439c-9478-3de2289fed0c"},{"reference":"Organization/d92aaa7b-2d60-4c29-a72b-dfe129be1162"},{"reference":"Practitioner/a55901bc-3324-494b-b730-13dfac30386d"}]},"request":{"method":"PUT","url":"MeasureReport/2b713688-91ee-435e-a65e-df801083a826"}}]},"request":{"method":"PUT","url":"Bundle/661579e3db207d74c03b8a51"}},{"fullUrl":"Coverage/b7db1975-a83e-439c-9478-3de2289fed0c","resource":{"resourceType":"Coverage","id":"b7db1975-a83e-439c-9478-3de2289fed0c","meta":{"profile":["http://hl7.org/fhir/us/qicore/StructureDefinition/qicore-coverage"]},"identifier":[{"type":{"coding":[{"system":"http://terminology.hl7.org/CodeSystem/v2-0203","code":"MB"}]}}],"status":"active","beneficiary":{"reference":"Patient/2fc54731-4fd9-4884-aba5-9a8385111375"},"relationship":{"coding":[{"system":"http://terminology.hl7.org/CodeSystem/subscriber-relationship","code":"self"}]},"payor":[{"reference":"Organization/d92aaa7b-2d60-4c29-a72b-dfe129be1162"}]},"request":{"method":"PUT","url":"Coverage/b7db1975-a83e-439c-9478-3de2289fed0c"}},{"fullUrl":"Patient/2fc54731-4fd9-4884-aba5-9a8385111375","resource":{"resourceType":"Patient","id":"2fc54731-4fd9-4884-aba5-9a8385111375","meta":{"profile":["http://hl7.org/fhir/us/qicore/StructureDefinition/qicore-patient"]},"extension":[{"url":"http://hl7.org/fhir/us/core/StructureDefinition/us-core-race","extension":[{"url":"ombCategory","valueCoding":{"system":"urn:oid:2.16.840.1.113883.6.238","code":"2076-8","display":"Native Hawaiian or Other Pacific Islander","userSelected":true}},{"url":"text","valueString":"Native Hawaiian or Other Pacific Islander"}]},{"url":"http://hl7.org/fhir/us/core/StructureDefinition/us-core-ethnicity","extension":[{"url":"ombCategory","valueCoding":{"system":"urn:oid:2.16.840.1.113883.6.238","code":"2186-5","display":"Not Hispanic or Latino","userSelected":true}},{"url":"text","valueString":"Not Hispanic or Latino"}]},{"url":"http://hl7.org/fhir/us/core/StructureDefinition/us-core-sex","valueCode":"248152002"}],"identifier":[{"type":{"coding":[{"system":"http://terminology.hl7.org/CodeSystem/v2-0203","code":"MR"}]},"system":"https://bonnie-fhir.healthit.gov/","value":"661579e3db207d74c03b8a51"}],"name":[{"family":"NUMERStrat4Pass","given":["TriageOverlapBeforeEM"]}],"gender":"female","birthDate":"2008-12-31"},"request":{"method":"PUT","url":"Patient/2fc54731-4fd9-4884-aba5-9a8385111375"}},{"fullUrl":"Encounter/62426e96-3928-45bb-9bdf-7c23ab7bbff0","resource":{"resourceType":"Encounter","id":"62426e96-3928-45bb-9bdf-7c23ab7bbff0","meta":{"profile":["http://hl7.org/fhir/us/qicore/StructureDefinition/qicore-encounter"]},"status":"finished","class":{"system":"http://terminology.hl7.org/CodeSystem/v3-ActCode","code":"EMER","display":"emergency"},"type":[{"coding":[{"system":"http://snomed.info/sct","version":"2023-09","code":"225390008","display":"Triage (procedure)","userSelected":true}]}],"subject":{"reference":"Patient/2fc54731-4fd9-4884-aba5-9a8385111375"},"period":{"start":"2027-05-01T07:00:00.000+00:00","end":"2027-05-01T08:15:00.000+00:00"}},"request":{"method":"PUT","url":"Encounter/62426e96-3928-45bb-9bdf-7c23ab7bbff0"}},{"fullUrl":"Location/61446342-b985-47a7-821c-aee4223538bc","resource":{"resourceType":"Location","id":"61446342-b985-47a7-821c-aee4223538bc","meta":{"profile":["http://hl7.org/fhir/us/qicore/StructureDefinition/qicore-location"]},"identifier":[{"use":"usual","system":"http://exampleoflocation.com","value":"B1-S.F2"}],"name":"Medical Surgical East, first floor","type":[{"coding":[{"system":"https://www.cdc.gov/nhsn/cdaportal/terminology/codesystem/hsloc.html","version":"2022","code":"1108-0","display":"Emergency Department","userSelected":true}]}]},"request":{"method":"PUT","url":"Location/61446342-b985-47a7-821c-aee4223538bc"}},{"fullUrl":"Practitioner/a55901bc-3324-494b-b730-13dfac30386d","resource":{"resourceType":"Practitioner","id":"a55901bc-3324-494b-b730-13dfac30386d","meta":{"profile":["http://hl7.org/fhir/us/qicore/StructureDefinition/qicore-practitioner"]},"identifier":[{"system":"http://hl7.org/fhir/sid/us-npi","value":"9999999896"}],"name":[{"family":"Evil","prefix":["Dr"]}]},"request":{"method":"PUT","url":"Practitioner/a55901bc-3324-494b-b730-13dfac30386d"}},{"fullUrl":"Encounter/8cdaceae-947f-4e05-9062-d4255e182909","resource":{"resourceType":"Encounter","id":"8cdaceae-947f-4e05-9062-d4255e182909","meta":{"profile":["http://hl7.org/fhir/us/qicore/StructureDefinition/qicore-encounter"]},"status":"finished","class":{"system":"http://terminology.hl7.org/CodeSystem/v3-ActCode","code":"EMER","display":"emergency"},"type":[{"coding":[{"system":"http://snomed.info/sct","version":"2023-09","code":"4525004","display":"Emergency department patient visit (procedure)","userSelected":true}]}],"subject":{"reference":"Patient/2fc54731-4fd9-4884-aba5-9a8385111375"},"period":{"start":"2027-05-01T08:00:00.000+00:00","end":"2027-05-01T12:15:00.000+00:00"},"diagnosis":[{"condition":{"reference":"Condition/4a647ce8-ebf8-4b1b-a6f4-7f59fb96ad65"},"use":{"coding":[{"system":"http://terminology.hl7.org/CodeSystem/diagnosis-role","code":"billing"}]},"rank":1}],"location":[{"location":{"reference":"Location/cfd8d7cf-35cd-429f-aed7-9bb8bc6f83af"},"period":{"start":"2027-05-01T07:45:00.000+00:00","end":"2027-05-01T16:31:00.000+00:00"}},{"location":{"reference":"Location/39772293-cf80-42b7-a1a7-940a1a1edc32"},"period":{"start":"2027-05-01T09:31:00.000+00:00","end":"2027-05-01T12:15:00.000+00:00"}},{"location":{"reference":"Location/8beb6892-997e-4ccd-a456-cb4ee343312b"},"period":{"start":"2027-05-01T08:40:00.000+00:00","end":"2027-05-01T12:15:00.000+00:00"}},{"location":{"reference":"Location/61446342-b985-47a7-821c-aee4223538bc"},"period":{"start":"2027-05-01T08:30:00.000+00:00","end":"2027-05-01T15:46:00.000+00:00"}}]},"request":{"method":"PUT","url":"Encounter/8cdaceae-947f-4e05-9062-d4255e182909"}},{"fullUrl":"Location/cfd8d7cf-35cd-429f-aed7-9bb8bc6f83af","resource":{"resourceType":"Location","id":"cfd8d7cf-35cd-429f-aed7-9bb8bc6f83af","meta":{"profile":["http://hl7.org/fhir/us/qicore/StructureDefinition/qicore-location"]},"identifier":[{"use":"usual","system":"http://exampleoflocation.com","value":"B1-S.F1"}],"name":"Medical Surgical East, first floor","type":[{"coding":[{"system":"https://www.cdc.gov/nhsn/cdaportal/terminology/codesystem/hsloc.html","version":"2022","code":"1108-0","display":"Emergency Department","userSelected":true}]}]},"request":{"method":"PUT","url":"Location/cfd8d7cf-35cd-429f-aed7-9bb8bc6f83af"}},{"fullUrl":"MeasureReport/2b713688-91ee-435e-a65e-df801083a826","resource":{"resourceType":"MeasureReport","id":"2b713688-91ee-435e-a65e-df801083a826","meta":{"profile":["http://hl7.org/fhir/us/cqfmeasures/StructureDefinition/test-case-cqfm"]},"contained":[{"resourceType":"Parameters","id":"190d6d1a-3dea-4b60-8b56-6df017525623-parameters","parameter":[{"name":"subject","valueString":"2fc54731-4fd9-4884-aba5-9a8385111375"}]}],"extension":[{"url":"http://hl7.org/fhir/StructureDefinition/cqf-inputParameters","valueReference":{"reference":"#190d6d1a-3dea-4b60-8b56-6df017525623-parameters"}},{"url":"http://hl7.org/fhir/us/cqfmeasures/StructureDefinition/cqfm-testCaseDescription","valueMarkdown":"Adult, mental diagnosis, LOS 8+ hours. Triage overlap EM start"}],"modifierExtension":[{"url":"http://hl7.org/fhir/us/cqfmeasures/StructureDefinition/cqfm-isTestCase","valueBoolean":true}],"status":"complete","type":"individual","measure":"https://madie.cms.gov/Measure/CMS1264FHIRECATREHQR","period":{"start":"2027-01-01","end":"2027-12-31"},"group":[{"id":"Group_1","population":[{"id":"InitialPopulation_1","code":{"coding":[{"system":"http://terminology.hl7.org/CodeSystem/measure-population","code":"initial-population","display":"Initial Population"}]},"count":1},{"id":"Denominator_1","code":{"coding":[{"system":"http://terminology.hl7.org/CodeSystem/measure-population","code":"denominator","display":"Denominator"}]},"count":1},{"id":"Numerator_1","code":{"coding":[{"system":"http://terminology.hl7.org/CodeSystem/measure-population","code":"numerator","display":"Numerator"}]},"count":1}],"measureScore":{"value":0.0},"stratifier":[{"id":"Stratification_1_1","code":[{"text":"Strata-1"}],"stratum":[{"value":{"text":"Strata-1"},"population":[{"id":"InitialPopulation_1","code":{"coding":[{"system":"http://terminology.hl7.org/CodeSystem/measure-population","code":"initial-population","display":"Initial Population"}]},"count":0},{"id":"Denominator_1","code":{"coding":[{"system":"http://terminology.hl7.org/CodeSystem/measure-population","code":"denominator","display":"Denominator"}]},"count":0},{"id":"Numerator_1","code":{"coding":[{"system":"http://terminology.hl7.org/CodeSystem/measure-population","code":"numerator","display":"Numerator"}]},"count":0}]}]},{"id":"Stratification_1_2","code":[{"text":"Strata-2"}],"stratum":[{"value":{"text":"Strata-2"},"population":[{"id":"InitialPopulation_1","code":{"coding":[{"system":"http://terminology.hl7.org/CodeSystem/measure-population","code":"initial-population","display":"Initial Population"}]},"count":0},{"id":"Denominator_1","code":{"coding":[{"system":"http://terminology.hl7.org/CodeSystem/measure-population","code":"denominator","display":"Denominator"}]},"count":0},{"id":"Numerator_1","code":{"coding":[{"system":"http://terminology.hl7.org/CodeSystem/measure-population","code":"numerator","display":"Numerator"}]},"count":0}]}]},{"id":"Stratification_1_3","code":[{"text":"Strata-3"}],"stratum":[{"value":{"text":"Strata-3"},"population":[{"id":"InitialPopulation_1","code":{"coding":[{"system":"http://terminology.hl7.org/CodeSystem/measure-population","code":"initial-population","display":"Initial Population"}]},"count":0},{"id":"Denominator_1","code":{"coding":[{"system":"http://terminology.hl7.org/CodeSystem/measure-population","code":"denominator","display":"Denominator"}]},"count":0},{"id":"Numerator_1","code":{"coding":[{"system":"http://terminology.hl7.org/CodeSystem/measure-population","code":"numerator","display":"Numerator"}]},"count":0}]}]},{"id":"Stratification_1_4","code":[{"text":"Strata-4"}],"stratum":[{"value":{"text":"Strata-4"},"population":[{"id":"InitialPopulation_1","code":{"coding":[{"system":"http://terminology.hl7.org/CodeSystem/measure-population","code":"initial-population","display":"Initial Population"}]},"count":1},{"id":"Denominator_1","code":{"coding":[{"system":"http://terminology.hl7.org/CodeSystem/measure-population","code":"denominator","display":"Denominator"}]},"count":1},{"id":"Numerator_1","code":{"coding":[{"system":"http://terminology.hl7.org/CodeSystem/measure-population","code":"numerator","display":"Numerator"}]},"count":1}]}]}]}],"evaluatedResource":[{"reference":"Patient/2fc54731-4fd9-4884-aba5-9a8385111375"},{"reference":"Encounter/62426e96-3928-45bb-9bdf-7c23ab7bbff0"},{"reference":"Encounter/8cdaceae-947f-4e05-9062-d4255e182909"},{"reference":"Location/cfd8d7cf-35cd-429f-aed7-9bb8bc6f83af"},{"reference":"Location/39772293-cf80-42b7-a1a7-940a1a1edc32"},{"reference":"Condition/4a647ce8-ebf8-4b1b-a6f4-7f59fb96ad65"},{"reference":"Location/61446342-b985-47a7-821c-aee4223538bc"},{"reference":"Location/8beb6892-997e-4ccd-a456-cb4ee343312b"},{"reference":"Claim/ClaimBehavior-NotSubsAbuse"},{"reference":"Coverage/b7db1975-a83e-439c-9478-3de2289fed0c"},{"reference":"Organization/d92aaa7b-2d60-4c29-a72b-dfe129be1162"},{"reference":"Practitioner/a55901bc-3324-494b-b730-13dfac30386d"}]},"request":{"method":"PUT","url":"MeasureReport/2b713688-91ee-435e-a65e-df801083a826"}},{"fullUrl":"Organization/d92aaa7b-2d60-4c29-a72b-dfe129be1162","resource":{"resourceType":"Organization","id":"d92aaa7b-2d60-4c29-a72b-dfe129be1162","meta":{"profile":["http://hl7.org/fhir/us/qicore/StructureDefinition/qicore-organization"]},"identifier":[{"use":"temp","system":"urn:oid:2.16.840.1.113883.4.4","value":"21-3259825"}],"active":true,"type":[{"coding":[{"system":"http://terminology.hl7.org/CodeSystem/organization-type","code":"pay","display":"Payer"}]}],"name":"Blue Cross Blue Shield of Texas","telecom":[{"system":"phone","value":"(+1) 972-766-6900"}],"address":[{"use":"billing","type":"postal","line":["P.O. Box 660044"],"city":"Dallas","state":"TX","postalCode":"75266-0044","country":"USA"}]},"request":{"method":"PUT","url":"Organization/d92aaa7b-2d60-4c29-a72b-dfe129be1162"}},{"fullUrl":"Location/8beb6892-997e-4ccd-a456-cb4ee343312b","resource":{"resourceType":"Location","id":"8beb6892-997e-4ccd-a456-cb4ee343312b","meta":{"profile":["http://hl7.org/fhir/us/qicore/StructureDefinition/qicore-location"]},"identifier":[{"use":"usual","system":"http://exampleoflocation.com","value":"B1-S.F2"}],"name":"Medical Surgical East, first floor","type":[{"coding":[{"system":"https://www.cdc.gov/nhsn/cdaportal/terminology/codesystem/hsloc.html","version":"2022","code":"1209-6","display":"Treatment Room"}]}]},"request":{"method":"PUT","url":"Location/8beb6892-997e-4ccd-a456-cb4ee343312b"}},{"fullUrl":"Claim/ClaimBehavior-NotSubsAbuse","resource":{"resourceType":"Claim","id":"ClaimBehavior-NotSubsAbuse","meta":{"profile":["http://hl7.org/fhir/us/qicore/StructureDefinition/qicore-claim"]},"status":"active","type":{"coding":[{"system":"http://terminology.hl7.org/CodeSystem/claim-type","code":"institutional"}]},"use":"claim","patient":{"reference":"Patient/2fc54731-4fd9-4884-aba5-9a8385111375"},"created":"2027-05-01","provider":{"reference":"Practitioner/a55901bc-3324-494b-b730-13dfac30386d"},"priority":{"coding":[{"system":"http://terminology.hl7.org/CodeSystem/processpriority","code":"normal"}]},"diagnosis":[{"sequence":1,"diagnosisReference":{"reference":"Condition/4a647ce8-ebf8-4b1b-a6f4-7f59fb96ad65"},"type":[{"coding":[{"system":"http://terminology.hl7.org/CodeSystem/ex-diagnosistype","code":"principal"}]}]}],"insurance":[{"sequence":1,"focal":true,"coverage":{"reference":"Coverage/b7db1975-a83e-439c-9478-3de2289fed0c"}}],"item":[{"sequence":1,"diagnosisSequence":[1],"productOrService":{"coding":[{"system":"http://terminology.hl7.org/CodeSystem/ex-USCLS","code":"99555"}]},"encounter":[{"reference":"Encounter/8cdaceae-947f-4e05-9062-d4255e182909"}]}]},"request":{"method":"PUT","url":"Claim/ClaimBehavior-NotSubsAbuse"}},{"fullUrl":"Condition/4a647ce8-ebf8-4b1b-a6f4-7f59fb96ad65","resource":{"resourceType":"Condition","id":"4a647ce8-ebf8-4b1b-a6f4-7f59fb96ad65","meta":{"profile":["http://hl7.org/fhir/us/qicore/StructureDefinition/qicore-condition-encounter-diagnosis"]},"category":[{"coding":[{"system":"http://terminology.hl7.org/CodeSystem/condition-category","code":"encounter-diagnosis","display":"Encounter Diagnosis"}]}],"code":{"coding":[{"system":"http://snomed.info/sct","version":"2023-09","code":"10349009","display":"Multi-infarct dementia with delirium (disorder)","userSelected":true}]},"subject":{"reference":"Patient/2fc54731-4fd9-4884-aba5-9a8385111375"},"recordedDate":"2027-04-09T08:00:00.000+00:00"},"request":{"method":"PUT","url":"Condition/4a647ce8-ebf8-4b1b-a6f4-7f59fb96ad65"}},{"fullUrl":"Location/39772293-cf80-42b7-a1a7-940a1a1edc32","resource":{"resourceType":"Location","id":"39772293-cf80-42b7-a1a7-940a1a1edc32","meta":{"profile":["http://hl7.org/fhir/us/qicore/StructureDefinition/qicore-location"]},"identifier":[{"use":"usual","system":"http://exampleoflocation.com","value":"B1-S.F2"}],"name":"Medical Surgical East, first floor","type":[{"coding":[{"system":"https://www.cdc.gov/nhsn/cdaportal/terminology/codesystem/hsloc.html","version":"2022","code":"1209-6","display":"Treatment Room","userSelected":true}]}]},"request":{"method":"PUT","url":"Location/39772293-cf80-42b7-a1a7-940a1a1edc32"}}]}