{"resourceType":"Bundle","id":"tests-9b5e4d84-366b-4082-8409-b7e18e0a3c45-bundle","type":"transaction","entry":[{"fullUrl":"Location/604db125-17e6-4193-9615-15381cbeb548","resource":{"resourceType":"Location","id":"604db125-17e6-4193-9615-15381cbeb548","meta":{"profile":["http://hl7.org/fhir/us/qicore/StructureDefinition/qicore-location"]},"identifier":[{"use":"usual","system":"http://exampleoflocation.com","value":"B1-S.F2"}],"name":"Emergency Department","type":[{"coding":[{"system":"https://www.cdc.gov/nhsn/cdaportal/terminology/codesystem/hsloc.html","version":"2022","code":"1108-0","display":"Emergency Department","userSelected":true}]}]},"request":{"method":"PUT","url":"Location/604db125-17e6-4193-9615-15381cbeb548"}},{"fullUrl":"Coverage/80a7b461-31c6-4ea8-a589-3aa6c35f97d1","resource":{"resourceType":"Coverage","id":"80a7b461-31c6-4ea8-a589-3aa6c35f97d1","meta":{"profile":["http://hl7.org/fhir/us/qicore/StructureDefinition/qicore-coverage"]},"identifier":[{"type":{"coding":[{"system":"http://terminology.hl7.org/CodeSystem/v2-0203","code":"MB"}]}}],"status":"active","beneficiary":{"reference":"Patient/9b5e4d84-366b-4082-8409-b7e18e0a3c45"},"relationship":{"coding":[{"system":"http://terminology.hl7.org/CodeSystem/subscriber-relationship","code":"self"}]},"payor":[{"reference":"Organization/98e4b555-3e6f-4cf7-93c2-d9d5fdcadc44"}]},"request":{"method":"PUT","url":"Coverage/80a7b461-31c6-4ea8-a589-3aa6c35f97d1"}},{"fullUrl":"ServiceRequest/76f9463c-6f50-4227-b202-e0a01ad3b66d","resource":{"resourceType":"ServiceRequest","id":"76f9463c-6f50-4227-b202-e0a01ad3b66d","meta":{"profile":["http://hl7.org/fhir/us/qicore/StructureDefinition/qicore-servicerequest"]},"status":"completed","intent":"order","code":{"coding":[{"system":"http://snomed.info/sct","code":"19712007","display":"Patient transfer, to another health care facility (procedure)","userSelected":true}]},"subject":{"reference":"Patient/9b5e4d84-366b-4082-8409-b7e18e0a3c45"},"authoredOn":"2027-05-01T19:58:00.000+00:00"},"request":{"method":"PUT","url":"ServiceRequest/76f9463c-6f50-4227-b202-e0a01ad3b66d"}},{"fullUrl":"Encounter/a76f61e2-7dfa-44af-b17e-c81f03388d48","resource":{"resourceType":"Encounter","id":"a76f61e2-7dfa-44af-b17e-c81f03388d48","meta":{"profile":["http://hl7.org/fhir/us/qicore/StructureDefinition/qicore-encounter"]},"status":"finished","class":{"system":"http://terminology.hl7.org/CodeSystem/v3-ActCode","code":"EMER","display":"emergency department"},"type":[{"coding":[{"system":"http://snomed.info/sct","version":"2023-09","code":"4525004","display":"Emergency department patient visit (procedure)","userSelected":true}]}],"subject":{"reference":"Patient/9b5e4d84-366b-4082-8409-b7e18e0a3c45"},"period":{"start":"2027-05-01T19:58:00.000+00:00","end":"2027-05-01T23:58:00.000+00:00"},"diagnosis":[{"condition":{"reference":"Condition/78ab596b-5220-4a3f-92e8-631d22f991b2"},"use":{"coding":[{"system":"http://terminology.hl7.org/CodeSystem/diagnosis-role","code":"billing"}]},"rank":1}],"location":[{"location":{"reference":"Location/604db125-17e6-4193-9615-15381cbeb548"},"period":{"start":"2027-05-01T19:58:00.000+00:00","end":"2027-05-01T23:59:00.000+00:00"}}]},"request":{"method":"PUT","url":"Encounter/a76f61e2-7dfa-44af-b17e-c81f03388d48"}},{"fullUrl":"Practitioner/1dbbaa78-a1e8-4c2b-bb13-6218bc95a335","resource":{"resourceType":"Practitioner","id":"1dbbaa78-a1e8-4c2b-bb13-6218bc95a335","meta":{"profile":["http://hl7.org/fhir/us/qicore/StructureDefinition/qicore-practitioner"]},"identifier":[{"system":"http://hl7.org/fhir/sid/us-npi","value":"9999999896"}],"name":[{"family":"Evil","prefix":["Dr"]}]},"request":{"method":"PUT","url":"Practitioner/1dbbaa78-a1e8-4c2b-bb13-6218bc95a335"}},{"fullUrl":"Organization/98e4b555-3e6f-4cf7-93c2-d9d5fdcadc44","resource":{"resourceType":"Organization","id":"98e4b555-3e6f-4cf7-93c2-d9d5fdcadc44","meta":{"profile":["http://hl7.org/fhir/us/qicore/StructureDefinition/qicore-organization"]},"identifier":[{"use":"temp","system":"urn:oid:2.16.840.1.113883.4.4","value":"21-3259825"}],"active":true,"type":[{"coding":[{"system":"http://terminology.hl7.org/CodeSystem/organization-type","code":"pay","display":"Payer"}]}],"name":"Blue Cross Blue Shield of Texas","telecom":[{"system":"phone","value":"(+1) 972-766-6900"}],"address":[{"use":"billing","type":"postal","line":["P.O. Box 660044"],"city":"Dallas","state":"TX","postalCode":"75266-0044","country":"USA"}]},"request":{"method":"PUT","url":"Organization/98e4b555-3e6f-4cf7-93c2-d9d5fdcadc44"}},{"fullUrl":"Patient/9b5e4d84-366b-4082-8409-b7e18e0a3c45","resource":{"resourceType":"Patient","id":"9b5e4d84-366b-4082-8409-b7e18e0a3c45","meta":{"profile":["http://hl7.org/fhir/us/qicore/StructureDefinition/qicore-patient"]},"extension":[{"url":"http://hl7.org/fhir/us/core/StructureDefinition/us-core-race","extension":[{"url":"ombCategory","valueCoding":{"system":"urn:oid:2.16.840.1.113883.6.238","code":"1002-5","display":"American Indian or Alaska Native","userSelected":true}},{"url":"text","valueString":"American Indian or Alaska Native"}]},{"url":"http://hl7.org/fhir/us/core/StructureDefinition/us-core-ethnicity","extension":[{"url":"ombCategory","valueCoding":{"system":"urn:oid:2.16.840.1.113883.6.238","code":"2135-2","display":"Hispanic or Latino","userSelected":true}},{"url":"text","valueString":"Hispanic or Latino"}]},{"url":"http://hl7.org/fhir/us/core/StructureDefinition/us-core-sex","valueCode":"248153007"}],"identifier":[{"type":{"coding":[{"system":"http://terminology.hl7.org/CodeSystem/v2-0203","code":"MR"}]},"system":"https://bonnie-fhir.healthit.gov/","value":"661476b015ed5841a5547ebf"}],"name":[{"family":"NUMERStrat4Pass","given":["Boarded241MinOrderTransfer"]}],"gender":"male","birthDate":"2008-01-01"},"request":{"method":"PUT","url":"Patient/9b5e4d84-366b-4082-8409-b7e18e0a3c45"}},{"fullUrl":"MeasureReport/b945617a-dd1b-4224-953b-c5805b594591","resource":{"resourceType":"MeasureReport","id":"b945617a-dd1b-4224-953b-c5805b594591","meta":{"profile":["http://hl7.org/fhir/us/cqfmeasures/StructureDefinition/test-case-cqfm"]},"contained":[{"resourceType":"Parameters","id":"894fb6ee-7b4b-4e40-9701-1c4823544042-parameters","parameter":[{"name":"subject","valueString":"9b5e4d84-366b-4082-8409-b7e18e0a3c45"}]}],"extension":[{"url":"http://hl7.org/fhir/StructureDefinition/cqf-inputParameters","valueReference":{"reference":"#894fb6ee-7b4b-4e40-9701-1c4823544042-parameters"}},{"url":"http://hl7.org/fhir/us/cqfmeasures/StructureDefinition/cqfm-testCaseDescription","valueMarkdown":"Adult, age 18, ED enc, order to transfer, boarded 241 minutes (time from decision to transfer to departure) , mental illness"}],"modifierExtension":[{"url":"http://hl7.org/fhir/us/cqfmeasures/StructureDefinition/cqfm-isTestCase","valueBoolean":true}],"status":"complete","type":"individual","measure":"https://madie.cms.gov/Measure/CMS1264FHIRECATREHQR","period":{"start":"2027-01-01","end":"2027-12-31"},"group":[{"id":"Group_1","population":[{"id":"InitialPopulation_1","code":{"coding":[{"system":"http://terminology.hl7.org/CodeSystem/measure-population","code":"initial-population","display":"Initial Population"}]},"count":1},{"id":"Denominator_1","code":{"coding":[{"system":"http://terminology.hl7.org/CodeSystem/measure-population","code":"denominator","display":"Denominator"}]},"count":1},{"id":"Numerator_1","code":{"coding":[{"system":"http://terminology.hl7.org/CodeSystem/measure-population","code":"numerator","display":"Numerator"}]},"count":1}],"measureScore":{"value":0.0},"stratifier":[{"id":"Stratification_1_1","code":[{"text":"Strata-1"}],"stratum":[{"value":{"text":"Strata-1"},"population":[{"id":"InitialPopulation_1","code":{"coding":[{"system":"http://terminology.hl7.org/CodeSystem/measure-population","code":"initial-population","display":"Initial Population"}]},"count":0},{"id":"Denominator_1","code":{"coding":[{"system":"http://terminology.hl7.org/CodeSystem/measure-population","code":"denominator","display":"Denominator"}]},"count":0},{"id":"Numerator_1","code":{"coding":[{"system":"http://terminology.hl7.org/CodeSystem/measure-population","code":"numerator","display":"Numerator"}]},"count":0}]}]},{"id":"Stratification_1_2","code":[{"text":"Strata-2"}],"stratum":[{"value":{"text":"Strata-2"},"population":[{"id":"InitialPopulation_1","code":{"coding":[{"system":"http://terminology.hl7.org/CodeSystem/measure-population","code":"initial-population","display":"Initial Population"}]},"count":0},{"id":"Denominator_1","code":{"coding":[{"system":"http://terminology.hl7.org/CodeSystem/measure-population","code":"denominator","display":"Denominator"}]},"count":0},{"id":"Numerator_1","code":{"coding":[{"system":"http://terminology.hl7.org/CodeSystem/measure-population","code":"numerator","display":"Numerator"}]},"count":0}]}]},{"id":"Stratification_1_3","code":[{"text":"Strata-3"}],"stratum":[{"value":{"text":"Strata-3"},"population":[{"id":"InitialPopulation_1","code":{"coding":[{"system":"http://terminology.hl7.org/CodeSystem/measure-population","code":"initial-population","display":"Initial Population"}]},"count":0},{"id":"Denominator_1","code":{"coding":[{"system":"http://terminology.hl7.org/CodeSystem/measure-population","code":"denominator","display":"Denominator"}]},"count":0},{"id":"Numerator_1","code":{"coding":[{"system":"http://terminology.hl7.org/CodeSystem/measure-population","code":"numerator","display":"Numerator"}]},"count":0}]}]},{"id":"Stratification_1_4","code":[{"text":"Strata-4"}],"stratum":[{"value":{"text":"Strata-4"},"population":[{"id":"InitialPopulation_1","code":{"coding":[{"system":"http://terminology.hl7.org/CodeSystem/measure-population","code":"initial-population","display":"Initial Population"}]},"count":1},{"id":"Denominator_1","code":{"coding":[{"system":"http://terminology.hl7.org/CodeSystem/measure-population","code":"denominator","display":"Denominator"}]},"count":1},{"id":"Numerator_1","code":{"coding":[{"system":"http://terminology.hl7.org/CodeSystem/measure-population","code":"numerator","display":"Numerator"}]},"count":1}]}]}]}],"evaluatedResource":[{"reference":"Patient/9b5e4d84-366b-4082-8409-b7e18e0a3c45"},{"reference":"Encounter/a76f61e2-7dfa-44af-b17e-c81f03388d48"},{"reference":"ServiceRequest/76f9463c-6f50-4227-b202-e0a01ad3b66d"},{"reference":"Location/604db125-17e6-4193-9615-15381cbeb548"},{"reference":"Claim/ClaimBehavior-NotSubsAbuse"},{"reference":"Coverage/80a7b461-31c6-4ea8-a589-3aa6c35f97d1"},{"reference":"Condition/78ab596b-5220-4a3f-92e8-631d22f991b2"},{"reference":"Organization/98e4b555-3e6f-4cf7-93c2-d9d5fdcadc44"},{"reference":"Practitioner/1dbbaa78-a1e8-4c2b-bb13-6218bc95a335"}]},"request":{"method":"PUT","url":"MeasureReport/b945617a-dd1b-4224-953b-c5805b594591"}},{"fullUrl":"Claim/ClaimBehavior-NotSubsAbuse","resource":{"resourceType":"Claim","id":"ClaimBehavior-NotSubsAbuse","meta":{"profile":["http://hl7.org/fhir/us/qicore/StructureDefinition/qicore-claim"]},"status":"active","type":{"coding":[{"system":"http://terminology.hl7.org/CodeSystem/claim-type","code":"institutional"}]},"use":"claim","patient":{"reference":"Patient/9b5e4d84-366b-4082-8409-b7e18e0a3c45"},"created":"2027-05-01","provider":{"reference":"Practitioner/practitioner-123456"},"priority":{"coding":[{"system":"http://terminology.hl7.org/CodeSystem/processpriority","code":"normal"}]},"diagnosis":[{"sequence":1,"diagnosisReference":{"reference":"Condition/78ab596b-5220-4a3f-92e8-631d22f991b2"},"type":[{"coding":[{"system":"http://terminology.hl7.org/CodeSystem/ex-diagnosistype","code":"principal"}]}]}],"insurance":[{"sequence":1,"focal":true,"coverage":{"reference":"Coverage/1"}}],"item":[{"sequence":1,"diagnosisSequence":[1],"productOrService":{"coding":[{"system":"http://terminology.hl7.org/CodeSystem/ex-USCLS","code":"99555"}]},"encounter":[{"reference":"Encounter/a76f61e2-7dfa-44af-b17e-c81f03388d48"}]}]},"request":{"method":"PUT","url":"Claim/ClaimBehavior-NotSubsAbuse"}},{"fullUrl":"Bundle/661476b015ed5841a5547ebf","resource":{"resourceType":"Bundle","id":"661476b015ed5841a5547ebf","type":"transaction","entry":[{"fullUrl":"https://madie.cms.gov/Patient/9b5e4d84-366b-4082-8409-b7e18e0a3c45","resource":{"resourceType":"Patient","id":"9b5e4d84-366b-4082-8409-b7e18e0a3c45","meta":{"profile":["http://hl7.org/fhir/us/qicore/StructureDefinition/qicore-patient"]},"extension":[{"url":"http://hl7.org/fhir/us/core/StructureDefinition/us-core-race","extension":[{"url":"ombCategory","valueCoding":{"system":"urn:oid:2.16.840.1.113883.6.238","code":"1002-5","display":"American Indian or Alaska Native","userSelected":true}},{"url":"text","valueString":"American Indian or Alaska Native"}]},{"url":"http://hl7.org/fhir/us/core/StructureDefinition/us-core-ethnicity","extension":[{"url":"ombCategory","valueCoding":{"system":"urn:oid:2.16.840.1.113883.6.238","code":"2135-2","display":"Hispanic or Latino","userSelected":true}},{"url":"text","valueString":"Hispanic or Latino"}]},{"url":"http://hl7.org/fhir/us/core/StructureDefinition/us-core-sex","valueCode":"248153007"}],"identifier":[{"type":{"coding":[{"system":"http://terminology.hl7.org/CodeSystem/v2-0203","code":"MR"}]},"system":"https://bonnie-fhir.healthit.gov/","value":"661476b015ed5841a5547ebf"}],"name":[{"family":"NUMERStrat4Pass","given":["Boarded241MinOrderTransfer"]}],"gender":"male","birthDate":"2008-01-01"},"request":{"method":"PUT","url":"Patient/9b5e4d84-366b-4082-8409-b7e18e0a3c45"}},{"fullUrl":"https://madie.cms.gov/Encounter/a76f61e2-7dfa-44af-b17e-c81f03388d48","resource":{"resourceType":"Encounter","id":"a76f61e2-7dfa-44af-b17e-c81f03388d48","meta":{"profile":["http://hl7.org/fhir/us/qicore/StructureDefinition/qicore-encounter"]},"status":"finished","class":{"system":"http://terminology.hl7.org/CodeSystem/v3-ActCode","code":"EMER","display":"emergency department"},"type":[{"coding":[{"system":"http://snomed.info/sct","version":"2023-09","code":"4525004","display":"Emergency department patient visit (procedure)","userSelected":true}]}],"subject":{"reference":"Patient/9b5e4d84-366b-4082-8409-b7e18e0a3c45"},"period":{"start":"2027-05-01T19:58:00.000+00:00","end":"2027-05-01T23:58:00.000+00:00"},"diagnosis":[{"condition":{"reference":"Condition/78ab596b-5220-4a3f-92e8-631d22f991b2"},"use":{"coding":[{"system":"http://terminology.hl7.org/CodeSystem/diagnosis-role","code":"billing"}]},"rank":1}],"location":[{"location":{"reference":"Location/604db125-17e6-4193-9615-15381cbeb548"},"period":{"start":"2027-05-01T19:58:00.000+00:00","end":"2027-05-01T23:59:00.000+00:00"}}]},"request":{"method":"PUT","url":"Encounter/a76f61e2-7dfa-44af-b17e-c81f03388d48"}},{"fullUrl":"https://madie.cms.gov/ServiceRequest/76f9463c-6f50-4227-b202-e0a01ad3b66d","resource":{"resourceType":"ServiceRequest","id":"76f9463c-6f50-4227-b202-e0a01ad3b66d","meta":{"profile":["http://hl7.org/fhir/us/qicore/StructureDefinition/qicore-servicerequest"]},"status":"completed","intent":"order","code":{"coding":[{"system":"http://snomed.info/sct","code":"19712007","display":"Patient transfer, to another health care facility (procedure)","userSelected":true}]},"subject":{"reference":"Patient/9b5e4d84-366b-4082-8409-b7e18e0a3c45"},"authoredOn":"2027-05-01T19:58:00.000+00:00"},"request":{"method":"PUT","url":"ServiceRequest/76f9463c-6f50-4227-b202-e0a01ad3b66d"}},{"fullUrl":"https://madie.cms.gov/Location/604db125-17e6-4193-9615-15381cbeb548","resource":{"resourceType":"Location","id":"604db125-17e6-4193-9615-15381cbeb548","meta":{"profile":["http://hl7.org/fhir/us/qicore/StructureDefinition/qicore-location"]},"identifier":[{"use":"usual","system":"http://exampleoflocation.com","value":"B1-S.F2"}],"name":"Emergency Department","type":[{"coding":[{"system":"https://www.cdc.gov/nhsn/cdaportal/terminology/codesystem/hsloc.html","version":"2022","code":"1108-0","display":"Emergency Department","userSelected":true}]}]},"request":{"method":"PUT","url":"Location/604db125-17e6-4193-9615-15381cbeb548"}},{"fullUrl":"https://madie.cms.gov/claim/ClaimBehavior-NotSubsAbuse","resource":{"resourceType":"Claim","id":"ClaimBehavior-NotSubsAbuse","meta":{"profile":["http://hl7.org/fhir/us/qicore/StructureDefinition/qicore-claim"]},"status":"active","type":{"coding":[{"system":"http://terminology.hl7.org/CodeSystem/claim-type","code":"institutional"}]},"use":"claim","patient":{"reference":"Patient/9b5e4d84-366b-4082-8409-b7e18e0a3c45"},"created":"2027-05-01","provider":{"reference":"Practitioner/practitioner-123456"},"priority":{"coding":[{"system":"http://terminology.hl7.org/CodeSystem/processpriority","code":"normal"}]},"diagnosis":[{"sequence":1,"diagnosisReference":{"reference":"Condition/78ab596b-5220-4a3f-92e8-631d22f991b2"},"type":[{"coding":[{"system":"http://terminology.hl7.org/CodeSystem/ex-diagnosistype","code":"principal"}]}]}],"insurance":[{"sequence":1,"focal":true,"coverage":{"reference":"Coverage/1"}}],"item":[{"sequence":1,"diagnosisSequence":[1],"productOrService":{"coding":[{"system":"http://terminology.hl7.org/CodeSystem/ex-USCLS","code":"99555"}]},"encounter":[{"reference":"Encounter/a76f61e2-7dfa-44af-b17e-c81f03388d48"}]}]},"request":{"method":"PUT","url":"Claim/ClaimBehavior-NotSubsAbuse"}},{"fullUrl":"https://madie.cms.gov/Coverage/80a7b461-31c6-4ea8-a589-3aa6c35f97d1","resource":{"resourceType":"Coverage","id":"80a7b461-31c6-4ea8-a589-3aa6c35f97d1","meta":{"profile":["http://hl7.org/fhir/us/qicore/StructureDefinition/qicore-coverage"]},"identifier":[{"type":{"coding":[{"system":"http://terminology.hl7.org/CodeSystem/v2-0203","code":"MB"}]}}],"status":"active","beneficiary":{"reference":"Patient/9b5e4d84-366b-4082-8409-b7e18e0a3c45"},"relationship":{"coding":[{"system":"http://terminology.hl7.org/CodeSystem/subscriber-relationship","code":"self"}]},"payor":[{"reference":"Organization/98e4b555-3e6f-4cf7-93c2-d9d5fdcadc44"}]},"request":{"method":"PUT","url":"Coverage/80a7b461-31c6-4ea8-a589-3aa6c35f97d1"}},{"fullUrl":"https://madie.cms.gov/Condition/78ab596b-5220-4a3f-92e8-631d22f991b2","resource":{"resourceType":"Condition","id":"78ab596b-5220-4a3f-92e8-631d22f991b2","meta":{"profile":["http://hl7.org/fhir/us/qicore/StructureDefinition/qicore-condition-encounter-diagnosis"]},"category":[{"coding":[{"system":"http://terminology.hl7.org/CodeSystem/condition-category","code":"encounter-diagnosis","display":"Encounter Diagnosis"}]}],"code":{"coding":[{"system":"http://snomed.info/sct","version":"2023-09","code":"10349009","display":"Multi-infarct dementia with delirium (disorder)","userSelected":true}]},"subject":{"reference":"Patient/9b5e4d84-366b-4082-8409-b7e18e0a3c45"},"recordedDate":"2027-04-09T08:00:00.000+00:00"},"request":{"method":"PUT","url":"Condition/78ab596b-5220-4a3f-92e8-631d22f991b2"}},{"fullUrl":"https://madie.cms.gov/Organization/98e4b555-3e6f-4cf7-93c2-d9d5fdcadc44","resource":{"resourceType":"Organization","id":"98e4b555-3e6f-4cf7-93c2-d9d5fdcadc44","meta":{"profile":["http://hl7.org/fhir/us/qicore/StructureDefinition/qicore-organization"]},"identifier":[{"use":"temp","system":"urn:oid:2.16.840.1.113883.4.4","value":"21-3259825"}],"active":true,"type":[{"coding":[{"system":"http://terminology.hl7.org/CodeSystem/organization-type","code":"pay","display":"Payer"}]}],"name":"Blue Cross Blue Shield of Texas","telecom":[{"system":"phone","value":"(+1) 972-766-6900"}],"address":[{"use":"billing","type":"postal","line":["P.O. Box 660044"],"city":"Dallas","state":"TX","postalCode":"75266-0044","country":"USA"}]},"request":{"method":"PUT","url":"Organization/98e4b555-3e6f-4cf7-93c2-d9d5fdcadc44"}},{"fullUrl":"https://madie.cms.gov/Practitioner/1dbbaa78-a1e8-4c2b-bb13-6218bc95a335","resource":{"resourceType":"Practitioner","id":"1dbbaa78-a1e8-4c2b-bb13-6218bc95a335","meta":{"profile":["http://hl7.org/fhir/us/qicore/StructureDefinition/qicore-practitioner"]},"identifier":[{"system":"http://hl7.org/fhir/sid/us-npi","value":"9999999896"}],"name":[{"family":"Evil","prefix":["Dr"]}]},"request":{"method":"PUT","url":"Practitioner/1dbbaa78-a1e8-4c2b-bb13-6218bc95a335"}},{"fullUrl":"https://madie.cms.gov/MeasureReport/b945617a-dd1b-4224-953b-c5805b594591","resource":{"resourceType":"MeasureReport","id":"b945617a-dd1b-4224-953b-c5805b594591","meta":{"profile":["http://hl7.org/fhir/us/cqfmeasures/StructureDefinition/test-case-cqfm"]},"contained":[{"resourceType":"Parameters","id":"894fb6ee-7b4b-4e40-9701-1c4823544042-parameters","parameter":[{"name":"subject","valueString":"9b5e4d84-366b-4082-8409-b7e18e0a3c45"}]}],"extension":[{"url":"http://hl7.org/fhir/StructureDefinition/cqf-inputParameters","valueReference":{"reference":"#894fb6ee-7b4b-4e40-9701-1c4823544042-parameters"}},{"url":"http://hl7.org/fhir/us/cqfmeasures/StructureDefinition/cqfm-testCaseDescription","valueMarkdown":"Adult, age 18, ED enc, order to transfer, boarded 241 minutes (time from decision to transfer to departure) , mental illness"}],"modifierExtension":[{"url":"http://hl7.org/fhir/us/cqfmeasures/StructureDefinition/cqfm-isTestCase","valueBoolean":true}],"status":"complete","type":"individual","measure":"https://madie.cms.gov/Measure/CMS1264FHIRECATREHQR","period":{"start":"2027-01-01","end":"2027-12-31"},"group":[{"id":"Group_1","population":[{"id":"InitialPopulation_1","code":{"coding":[{"system":"http://terminology.hl7.org/CodeSystem/measure-population","code":"initial-population","display":"Initial Population"}]},"count":1},{"id":"Denominator_1","code":{"coding":[{"system":"http://terminology.hl7.org/CodeSystem/measure-population","code":"denominator","display":"Denominator"}]},"count":1},{"id":"Numerator_1","code":{"coding":[{"system":"http://terminology.hl7.org/CodeSystem/measure-population","code":"numerator","display":"Numerator"}]},"count":1}],"measureScore":{"value":0.0},"stratifier":[{"id":"Stratification_1_1","code":[{"text":"Strata-1"}],"stratum":[{"value":{"text":"Strata-1"},"population":[{"id":"InitialPopulation_1","code":{"coding":[{"system":"http://terminology.hl7.org/CodeSystem/measure-population","code":"initial-population","display":"Initial Population"}]},"count":0},{"id":"Denominator_1","code":{"coding":[{"system":"http://terminology.hl7.org/CodeSystem/measure-population","code":"denominator","display":"Denominator"}]},"count":0},{"id":"Numerator_1","code":{"coding":[{"system":"http://terminology.hl7.org/CodeSystem/measure-population","code":"numerator","display":"Numerator"}]},"count":0}]}]},{"id":"Stratification_1_2","code":[{"text":"Strata-2"}],"stratum":[{"value":{"text":"Strata-2"},"population":[{"id":"InitialPopulation_1","code":{"coding":[{"system":"http://terminology.hl7.org/CodeSystem/measure-population","code":"initial-population","display":"Initial Population"}]},"count":0},{"id":"Denominator_1","code":{"coding":[{"system":"http://terminology.hl7.org/CodeSystem/measure-population","code":"denominator","display":"Denominator"}]},"count":0},{"id":"Numerator_1","code":{"coding":[{"system":"http://terminology.hl7.org/CodeSystem/measure-population","code":"numerator","display":"Numerator"}]},"count":0}]}]},{"id":"Stratification_1_3","code":[{"text":"Strata-3"}],"stratum":[{"value":{"text":"Strata-3"},"population":[{"id":"InitialPopulation_1","code":{"coding":[{"system":"http://terminology.hl7.org/CodeSystem/measure-population","code":"initial-population","display":"Initial Population"}]},"count":0},{"id":"Denominator_1","code":{"coding":[{"system":"http://terminology.hl7.org/CodeSystem/measure-population","code":"denominator","display":"Denominator"}]},"count":0},{"id":"Numerator_1","code":{"coding":[{"system":"http://terminology.hl7.org/CodeSystem/measure-population","code":"numerator","display":"Numerator"}]},"count":0}]}]},{"id":"Stratification_1_4","code":[{"text":"Strata-4"}],"stratum":[{"value":{"text":"Strata-4"},"population":[{"id":"InitialPopulation_1","code":{"coding":[{"system":"http://terminology.hl7.org/CodeSystem/measure-population","code":"initial-population","display":"Initial Population"}]},"count":1},{"id":"Denominator_1","code":{"coding":[{"system":"http://terminology.hl7.org/CodeSystem/measure-population","code":"denominator","display":"Denominator"}]},"count":1},{"id":"Numerator_1","code":{"coding":[{"system":"http://terminology.hl7.org/CodeSystem/measure-population","code":"numerator","display":"Numerator"}]},"count":1}]}]}]}],"evaluatedResource":[{"reference":"Patient/9b5e4d84-366b-4082-8409-b7e18e0a3c45"},{"reference":"Encounter/a76f61e2-7dfa-44af-b17e-c81f03388d48"},{"reference":"ServiceRequest/76f9463c-6f50-4227-b202-e0a01ad3b66d"},{"reference":"Location/604db125-17e6-4193-9615-15381cbeb548"},{"reference":"Claim/ClaimBehavior-NotSubsAbuse"},{"reference":"Coverage/80a7b461-31c6-4ea8-a589-3aa6c35f97d1"},{"reference":"Condition/78ab596b-5220-4a3f-92e8-631d22f991b2"},{"reference":"Organization/98e4b555-3e6f-4cf7-93c2-d9d5fdcadc44"},{"reference":"Practitioner/1dbbaa78-a1e8-4c2b-bb13-6218bc95a335"}]},"request":{"method":"PUT","url":"MeasureReport/b945617a-dd1b-4224-953b-c5805b594591"}}]},"request":{"method":"PUT","url":"Bundle/661476b015ed5841a5547ebf"}},{"fullUrl":"Condition/78ab596b-5220-4a3f-92e8-631d22f991b2","resource":{"resourceType":"Condition","id":"78ab596b-5220-4a3f-92e8-631d22f991b2","meta":{"profile":["http://hl7.org/fhir/us/qicore/StructureDefinition/qicore-condition-encounter-diagnosis"]},"category":[{"coding":[{"system":"http://terminology.hl7.org/CodeSystem/condition-category","code":"encounter-diagnosis","display":"Encounter Diagnosis"}]}],"code":{"coding":[{"system":"http://snomed.info/sct","version":"2023-09","code":"10349009","display":"Multi-infarct dementia with delirium (disorder)","userSelected":true}]},"subject":{"reference":"Patient/9b5e4d84-366b-4082-8409-b7e18e0a3c45"},"recordedDate":"2027-04-09T08:00:00.000+00:00"},"request":{"method":"PUT","url":"Condition/78ab596b-5220-4a3f-92e8-631d22f991b2"}}]}