{"resourceType":"Bundle","id":"tests-666528ac-0d94-4b09-8e6c-c5930b7dd17c-bundle","type":"transaction","entry":[{"fullUrl":"Condition/c8538f49-cee2-45aa-8556-eb38cb9cf5cc","resource":{"resourceType":"Condition","id":"c8538f49-cee2-45aa-8556-eb38cb9cf5cc","meta":{"profile":["http://hl7.org/fhir/us/qicore/StructureDefinition/qicore-condition-encounter-diagnosis"]},"category":[{"coding":[{"system":"http://terminology.hl7.org/CodeSystem/condition-category","code":"encounter-diagnosis","display":"Encounter Diagnosis"}]}],"code":{"coding":[{"system":"http://snomed.info/sct","version":"2023-09","code":"10349009","display":"Multi-infarct dementia with delirium (disorder)","userSelected":true}]},"subject":{"reference":"Patient/666528ac-0d94-4b09-8e6c-c5930b7dd17c"},"recordedDate":"2027-04-09T08:00:00.000+00:00"},"request":{"method":"PUT","url":"Condition/c8538f49-cee2-45aa-8556-eb38cb9cf5cc"}},{"fullUrl":"Bundle/661476b015ed5841a5547ebf","resource":{"resourceType":"Bundle","id":"661476b015ed5841a5547ebf","type":"transaction","entry":[{"fullUrl":"https://madie.cms.gov/Patient/666528ac-0d94-4b09-8e6c-c5930b7dd17c","resource":{"resourceType":"Patient","id":"666528ac-0d94-4b09-8e6c-c5930b7dd17c","meta":{"profile":["http://hl7.org/fhir/us/qicore/StructureDefinition/qicore-patient"]},"extension":[{"url":"http://hl7.org/fhir/us/core/StructureDefinition/us-core-race","extension":[{"url":"ombCategory","valueCoding":{"system":"urn:oid:2.16.840.1.113883.6.238","code":"1002-5","display":"American Indian or Alaska Native","userSelected":true}},{"url":"text","valueString":"American Indian or Alaska Native"}]},{"url":"http://hl7.org/fhir/us/core/StructureDefinition/us-core-ethnicity","extension":[{"url":"ombCategory","valueCoding":{"system":"urn:oid:2.16.840.1.113883.6.238","code":"2135-2","display":"Hispanic or Latino","userSelected":true}},{"url":"text","valueString":"Hispanic or Latino"}]},{"url":"http://hl7.org/fhir/us/core/StructureDefinition/us-core-sex","valueCode":"248153007"}],"identifier":[{"type":{"coding":[{"system":"http://terminology.hl7.org/CodeSystem/v2-0203","code":"MR"}]},"system":"https://bonnie-fhir.healthit.gov/","value":"661476b015ed5841a5547ebf"}],"name":[{"family":"NUMERStrat4Pass","given":["EDLOS481Minutes"]}],"gender":"male","birthDate":"2009-01-01"},"request":{"method":"PUT","url":"Patient/666528ac-0d94-4b09-8e6c-c5930b7dd17c"}},{"fullUrl":"https://madie.cms.gov/Encounter/ab72ff41-489c-42b4-abb7-ddeeaefee114","resource":{"resourceType":"Encounter","id":"ab72ff41-489c-42b4-abb7-ddeeaefee114","meta":{"profile":["http://hl7.org/fhir/us/qicore/StructureDefinition/qicore-encounter"]},"status":"finished","class":{"system":"http://terminology.hl7.org/CodeSystem/v3-ActCode","code":"EMER","display":"emergency department"},"type":[{"coding":[{"system":"http://snomed.info/sct","version":"2023-09","code":"4525004","display":"Emergency department patient visit (procedure)","userSelected":true}]}],"subject":{"reference":"Patient/666528ac-0d94-4b09-8e6c-c5930b7dd17c"},"period":{"start":"2027-05-01T00:00:00.000+00:00","end":"2027-05-01T08:00:00.000+00:00"},"diagnosis":[{"condition":{"reference":"Condition/c8538f49-cee2-45aa-8556-eb38cb9cf5cc"},"use":{"coding":[{"system":"http://terminology.hl7.org/CodeSystem/diagnosis-role","code":"billing"}]},"rank":1}],"location":[{"location":{"reference":"Location/5722c6fd-4b96-40dc-b042-a0a1b0956ebd"},"period":{"start":"2027-05-01T00:00:00.000+00:00","end":"2027-05-01T08:01:00.000+00:00"}}]},"request":{"method":"PUT","url":"Encounter/ab72ff41-489c-42b4-abb7-ddeeaefee114"}},{"fullUrl":"https://madie.cms.gov/Location/5722c6fd-4b96-40dc-b042-a0a1b0956ebd","resource":{"resourceType":"Location","id":"5722c6fd-4b96-40dc-b042-a0a1b0956ebd","meta":{"profile":["http://hl7.org/fhir/us/qicore/StructureDefinition/qicore-location"]},"identifier":[{"use":"usual","system":"http://exampleoflocation.com","value":"B1-S.F2"}],"name":"Emergency Department","type":[{"coding":[{"system":"https://www.cdc.gov/nhsn/cdaportal/terminology/codesystem/hsloc.html","version":"2022","code":"1108-0","display":"Emergency Department","userSelected":true}]}]},"request":{"method":"PUT","url":"Location/5722c6fd-4b96-40dc-b042-a0a1b0956ebd"}},{"fullUrl":"https://madie.cms.gov/claim/ClaimBehavior-NotSubsAbuse","resource":{"resourceType":"Claim","id":"ClaimBehavior-NotSubsAbuse","meta":{"profile":["http://hl7.org/fhir/us/qicore/StructureDefinition/qicore-claim"]},"status":"active","type":{"coding":[{"system":"http://terminology.hl7.org/CodeSystem/claim-type","code":"institutional"}]},"use":"claim","patient":{"reference":"Patient/666528ac-0d94-4b09-8e6c-c5930b7dd17c"},"created":"2027-05-01","provider":{"reference":"Practitioner/practitioner-123456"},"priority":{"coding":[{"system":"http://terminology.hl7.org/CodeSystem/processpriority","code":"normal"}]},"diagnosis":[{"sequence":1,"diagnosisReference":{"reference":"Condition/c8538f49-cee2-45aa-8556-eb38cb9cf5cc"},"type":[{"coding":[{"system":"http://terminology.hl7.org/CodeSystem/ex-diagnosistype","code":"principal"}]}]}],"insurance":[{"sequence":1,"focal":true,"coverage":{"reference":"Coverage/1"}}],"item":[{"sequence":1,"diagnosisSequence":[1],"productOrService":{"coding":[{"system":"http://terminology.hl7.org/CodeSystem/ex-USCLS","code":"99555"}]},"encounter":[{"reference":"Encounter/ab72ff41-489c-42b4-abb7-ddeeaefee114"}]}]},"request":{"method":"PUT","url":"Claim/ClaimBehavior-NotSubsAbuse"}},{"fullUrl":"https://madie.cms.gov/Coverage/4c28134c-d161-4ef8-a8ca-e699a32e3047","resource":{"resourceType":"Coverage","id":"4c28134c-d161-4ef8-a8ca-e699a32e3047","meta":{"profile":["http://hl7.org/fhir/us/qicore/StructureDefinition/qicore-coverage"]},"identifier":[{"type":{"coding":[{"system":"http://terminology.hl7.org/CodeSystem/v2-0203","code":"MB"}]}}],"status":"active","beneficiary":{"reference":"Patient/666528ac-0d94-4b09-8e6c-c5930b7dd17c"},"relationship":{"coding":[{"system":"http://terminology.hl7.org/CodeSystem/subscriber-relationship","code":"self"}]},"payor":[{"reference":"Organization/96f1cfbb-2e26-4cde-b179-6995739fb4a5"}]},"request":{"method":"PUT","url":"Coverage/4c28134c-d161-4ef8-a8ca-e699a32e3047"}},{"fullUrl":"https://madie.cms.gov/Condition/c8538f49-cee2-45aa-8556-eb38cb9cf5cc","resource":{"resourceType":"Condition","id":"c8538f49-cee2-45aa-8556-eb38cb9cf5cc","meta":{"profile":["http://hl7.org/fhir/us/qicore/StructureDefinition/qicore-condition-encounter-diagnosis"]},"category":[{"coding":[{"system":"http://terminology.hl7.org/CodeSystem/condition-category","code":"encounter-diagnosis","display":"Encounter Diagnosis"}]}],"code":{"coding":[{"system":"http://snomed.info/sct","version":"2023-09","code":"10349009","display":"Multi-infarct dementia with delirium (disorder)","userSelected":true}]},"subject":{"reference":"Patient/666528ac-0d94-4b09-8e6c-c5930b7dd17c"},"recordedDate":"2027-04-09T08:00:00.000+00:00"},"request":{"method":"PUT","url":"Condition/c8538f49-cee2-45aa-8556-eb38cb9cf5cc"}},{"fullUrl":"https://madie.cms.gov/Organization/96f1cfbb-2e26-4cde-b179-6995739fb4a5","resource":{"resourceType":"Organization","id":"96f1cfbb-2e26-4cde-b179-6995739fb4a5","meta":{"profile":["http://hl7.org/fhir/us/qicore/StructureDefinition/qicore-organization"]},"identifier":[{"use":"temp","system":"urn:oid:2.16.840.1.113883.4.4","value":"21-3259825"}],"active":true,"type":[{"coding":[{"system":"http://terminology.hl7.org/CodeSystem/organization-type","code":"pay","display":"Payer"}]}],"name":"Blue Cross Blue Shield of Texas","telecom":[{"system":"phone","value":"(+1) 972-766-6900"}],"address":[{"use":"billing","type":"postal","line":["P.O. Box 660044"],"city":"Dallas","state":"TX","postalCode":"75266-0044","country":"USA"}]},"request":{"method":"PUT","url":"Organization/96f1cfbb-2e26-4cde-b179-6995739fb4a5"}},{"fullUrl":"https://madie.cms.gov/Practitioner/ec0d87d7-48c6-4cbf-a58e-a52c06fcb4cf","resource":{"resourceType":"Practitioner","id":"ec0d87d7-48c6-4cbf-a58e-a52c06fcb4cf","meta":{"profile":["http://hl7.org/fhir/us/qicore/StructureDefinition/qicore-practitioner"]},"identifier":[{"system":"http://hl7.org/fhir/sid/us-npi","value":"9999999896"}],"name":[{"family":"Evil","prefix":["Dr"]}]},"request":{"method":"PUT","url":"Practitioner/ec0d87d7-48c6-4cbf-a58e-a52c06fcb4cf"}},{"fullUrl":"https://madie.cms.gov/MeasureReport/63924464-5b9e-4d2d-a85d-56f36024b921","resource":{"resourceType":"MeasureReport","id":"63924464-5b9e-4d2d-a85d-56f36024b921","meta":{"profile":["http://hl7.org/fhir/us/cqfmeasures/StructureDefinition/test-case-cqfm"]},"contained":[{"resourceType":"Parameters","id":"38822896-320f-4f77-8f85-bb0648263e8b-parameters","parameter":[{"name":"subject","valueString":"666528ac-0d94-4b09-8e6c-c5930b7dd17c"}]}],"extension":[{"url":"http://hl7.org/fhir/StructureDefinition/cqf-inputParameters","valueReference":{"reference":"#38822896-320f-4f77-8f85-bb0648263e8b-parameters"}},{"url":"http://hl7.org/fhir/us/cqfmeasures/StructureDefinition/cqfm-testCaseDescription","valueMarkdown":"Adult, age 18, ED enc first minute of MP, has a mental illness dx"}],"modifierExtension":[{"url":"http://hl7.org/fhir/us/cqfmeasures/StructureDefinition/cqfm-isTestCase","valueBoolean":true}],"status":"complete","type":"individual","measure":"https://madie.cms.gov/Measure/CMS1264FHIRECATREHQR","period":{"start":"2027-01-01","end":"2027-12-31"},"group":[{"id":"Group_1","population":[{"id":"InitialPopulation_1","code":{"coding":[{"system":"http://terminology.hl7.org/CodeSystem/measure-population","code":"initial-population","display":"Initial Population"}]},"count":1},{"id":"Denominator_1","code":{"coding":[{"system":"http://terminology.hl7.org/CodeSystem/measure-population","code":"denominator","display":"Denominator"}]},"count":1},{"id":"Numerator_1","code":{"coding":[{"system":"http://terminology.hl7.org/CodeSystem/measure-population","code":"numerator","display":"Numerator"}]},"count":1}],"measureScore":{"value":0.0},"stratifier":[{"id":"Stratification_1_1","code":[{"text":"Strata-1"}],"stratum":[{"value":{"text":"Strata-1"},"population":[{"id":"InitialPopulation_1","code":{"coding":[{"system":"http://terminology.hl7.org/CodeSystem/measure-population","code":"initial-population","display":"Initial Population"}]},"count":0},{"id":"Denominator_1","code":{"coding":[{"system":"http://terminology.hl7.org/CodeSystem/measure-population","code":"denominator","display":"Denominator"}]},"count":0},{"id":"Numerator_1","code":{"coding":[{"system":"http://terminology.hl7.org/CodeSystem/measure-population","code":"numerator","display":"Numerator"}]},"count":0}]}]},{"id":"Stratification_1_2","code":[{"text":"Strata-2"}],"stratum":[{"value":{"text":"Strata-2"},"population":[{"id":"InitialPopulation_1","code":{"coding":[{"system":"http://terminology.hl7.org/CodeSystem/measure-population","code":"initial-population","display":"Initial Population"}]},"count":0},{"id":"Denominator_1","code":{"coding":[{"system":"http://terminology.hl7.org/CodeSystem/measure-population","code":"denominator","display":"Denominator"}]},"count":0},{"id":"Numerator_1","code":{"coding":[{"system":"http://terminology.hl7.org/CodeSystem/measure-population","code":"numerator","display":"Numerator"}]},"count":0}]}]},{"id":"Stratification_1_3","code":[{"text":"Strata-3"}],"stratum":[{"value":{"text":"Strata-3"},"population":[{"id":"InitialPopulation_1","code":{"coding":[{"system":"http://terminology.hl7.org/CodeSystem/measure-population","code":"initial-population","display":"Initial Population"}]},"count":0},{"id":"Denominator_1","code":{"coding":[{"system":"http://terminology.hl7.org/CodeSystem/measure-population","code":"denominator","display":"Denominator"}]},"count":0},{"id":"Numerator_1","code":{"coding":[{"system":"http://terminology.hl7.org/CodeSystem/measure-population","code":"numerator","display":"Numerator"}]},"count":0}]}]},{"id":"Stratification_1_4","code":[{"text":"Strata-4"}],"stratum":[{"value":{"text":"Strata-4"},"population":[{"id":"InitialPopulation_1","code":{"coding":[{"system":"http://terminology.hl7.org/CodeSystem/measure-population","code":"initial-population","display":"Initial Population"}]},"count":1},{"id":"Denominator_1","code":{"coding":[{"system":"http://terminology.hl7.org/CodeSystem/measure-population","code":"denominator","display":"Denominator"}]},"count":1},{"id":"Numerator_1","code":{"coding":[{"system":"http://terminology.hl7.org/CodeSystem/measure-population","code":"numerator","display":"Numerator"}]},"count":1}]}]}]}],"evaluatedResource":[{"reference":"Patient/666528ac-0d94-4b09-8e6c-c5930b7dd17c"},{"reference":"Encounter/ab72ff41-489c-42b4-abb7-ddeeaefee114"},{"reference":"Location/5722c6fd-4b96-40dc-b042-a0a1b0956ebd"},{"reference":"Claim/ClaimBehavior-NotSubsAbuse"},{"reference":"Coverage/4c28134c-d161-4ef8-a8ca-e699a32e3047"},{"reference":"Condition/c8538f49-cee2-45aa-8556-eb38cb9cf5cc"},{"reference":"Organization/96f1cfbb-2e26-4cde-b179-6995739fb4a5"},{"reference":"Practitioner/ec0d87d7-48c6-4cbf-a58e-a52c06fcb4cf"}]},"request":{"method":"PUT","url":"MeasureReport/63924464-5b9e-4d2d-a85d-56f36024b921"}}]},"request":{"method":"PUT","url":"Bundle/661476b015ed5841a5547ebf"}},{"fullUrl":"Coverage/4c28134c-d161-4ef8-a8ca-e699a32e3047","resource":{"resourceType":"Coverage","id":"4c28134c-d161-4ef8-a8ca-e699a32e3047","meta":{"profile":["http://hl7.org/fhir/us/qicore/StructureDefinition/qicore-coverage"]},"identifier":[{"type":{"coding":[{"system":"http://terminology.hl7.org/CodeSystem/v2-0203","code":"MB"}]}}],"status":"active","beneficiary":{"reference":"Patient/666528ac-0d94-4b09-8e6c-c5930b7dd17c"},"relationship":{"coding":[{"system":"http://terminology.hl7.org/CodeSystem/subscriber-relationship","code":"self"}]},"payor":[{"reference":"Organization/96f1cfbb-2e26-4cde-b179-6995739fb4a5"}]},"request":{"method":"PUT","url":"Coverage/4c28134c-d161-4ef8-a8ca-e699a32e3047"}},{"fullUrl":"MeasureReport/63924464-5b9e-4d2d-a85d-56f36024b921","resource":{"resourceType":"MeasureReport","id":"63924464-5b9e-4d2d-a85d-56f36024b921","meta":{"profile":["http://hl7.org/fhir/us/cqfmeasures/StructureDefinition/test-case-cqfm"]},"contained":[{"resourceType":"Parameters","id":"38822896-320f-4f77-8f85-bb0648263e8b-parameters","parameter":[{"name":"subject","valueString":"666528ac-0d94-4b09-8e6c-c5930b7dd17c"}]}],"extension":[{"url":"http://hl7.org/fhir/StructureDefinition/cqf-inputParameters","valueReference":{"reference":"#38822896-320f-4f77-8f85-bb0648263e8b-parameters"}},{"url":"http://hl7.org/fhir/us/cqfmeasures/StructureDefinition/cqfm-testCaseDescription","valueMarkdown":"Adult, age 18, ED enc first minute of MP, has a mental illness dx"}],"modifierExtension":[{"url":"http://hl7.org/fhir/us/cqfmeasures/StructureDefinition/cqfm-isTestCase","valueBoolean":true}],"status":"complete","type":"individual","measure":"https://madie.cms.gov/Measure/CMS1264FHIRECATREHQR","period":{"start":"2027-01-01","end":"2027-12-31"},"group":[{"id":"Group_1","population":[{"id":"InitialPopulation_1","code":{"coding":[{"system":"http://terminology.hl7.org/CodeSystem/measure-population","code":"initial-population","display":"Initial Population"}]},"count":1},{"id":"Denominator_1","code":{"coding":[{"system":"http://terminology.hl7.org/CodeSystem/measure-population","code":"denominator","display":"Denominator"}]},"count":1},{"id":"Numerator_1","code":{"coding":[{"system":"http://terminology.hl7.org/CodeSystem/measure-population","code":"numerator","display":"Numerator"}]},"count":1}],"measureScore":{"value":0.0},"stratifier":[{"id":"Stratification_1_1","code":[{"text":"Strata-1"}],"stratum":[{"value":{"text":"Strata-1"},"population":[{"id":"InitialPopulation_1","code":{"coding":[{"system":"http://terminology.hl7.org/CodeSystem/measure-population","code":"initial-population","display":"Initial Population"}]},"count":0},{"id":"Denominator_1","code":{"coding":[{"system":"http://terminology.hl7.org/CodeSystem/measure-population","code":"denominator","display":"Denominator"}]},"count":0},{"id":"Numerator_1","code":{"coding":[{"system":"http://terminology.hl7.org/CodeSystem/measure-population","code":"numerator","display":"Numerator"}]},"count":0}]}]},{"id":"Stratification_1_2","code":[{"text":"Strata-2"}],"stratum":[{"value":{"text":"Strata-2"},"population":[{"id":"InitialPopulation_1","code":{"coding":[{"system":"http://terminology.hl7.org/CodeSystem/measure-population","code":"initial-population","display":"Initial Population"}]},"count":0},{"id":"Denominator_1","code":{"coding":[{"system":"http://terminology.hl7.org/CodeSystem/measure-population","code":"denominator","display":"Denominator"}]},"count":0},{"id":"Numerator_1","code":{"coding":[{"system":"http://terminology.hl7.org/CodeSystem/measure-population","code":"numerator","display":"Numerator"}]},"count":0}]}]},{"id":"Stratification_1_3","code":[{"text":"Strata-3"}],"stratum":[{"value":{"text":"Strata-3"},"population":[{"id":"InitialPopulation_1","code":{"coding":[{"system":"http://terminology.hl7.org/CodeSystem/measure-population","code":"initial-population","display":"Initial Population"}]},"count":0},{"id":"Denominator_1","code":{"coding":[{"system":"http://terminology.hl7.org/CodeSystem/measure-population","code":"denominator","display":"Denominator"}]},"count":0},{"id":"Numerator_1","code":{"coding":[{"system":"http://terminology.hl7.org/CodeSystem/measure-population","code":"numerator","display":"Numerator"}]},"count":0}]}]},{"id":"Stratification_1_4","code":[{"text":"Strata-4"}],"stratum":[{"value":{"text":"Strata-4"},"population":[{"id":"InitialPopulation_1","code":{"coding":[{"system":"http://terminology.hl7.org/CodeSystem/measure-population","code":"initial-population","display":"Initial Population"}]},"count":1},{"id":"Denominator_1","code":{"coding":[{"system":"http://terminology.hl7.org/CodeSystem/measure-population","code":"denominator","display":"Denominator"}]},"count":1},{"id":"Numerator_1","code":{"coding":[{"system":"http://terminology.hl7.org/CodeSystem/measure-population","code":"numerator","display":"Numerator"}]},"count":1}]}]}]}],"evaluatedResource":[{"reference":"Patient/666528ac-0d94-4b09-8e6c-c5930b7dd17c"},{"reference":"Encounter/ab72ff41-489c-42b4-abb7-ddeeaefee114"},{"reference":"Location/5722c6fd-4b96-40dc-b042-a0a1b0956ebd"},{"reference":"Claim/ClaimBehavior-NotSubsAbuse"},{"reference":"Coverage/4c28134c-d161-4ef8-a8ca-e699a32e3047"},{"reference":"Condition/c8538f49-cee2-45aa-8556-eb38cb9cf5cc"},{"reference":"Organization/96f1cfbb-2e26-4cde-b179-6995739fb4a5"},{"reference":"Practitioner/ec0d87d7-48c6-4cbf-a58e-a52c06fcb4cf"}]},"request":{"method":"PUT","url":"MeasureReport/63924464-5b9e-4d2d-a85d-56f36024b921"}},{"fullUrl":"Practitioner/ec0d87d7-48c6-4cbf-a58e-a52c06fcb4cf","resource":{"resourceType":"Practitioner","id":"ec0d87d7-48c6-4cbf-a58e-a52c06fcb4cf","meta":{"profile":["http://hl7.org/fhir/us/qicore/StructureDefinition/qicore-practitioner"]},"identifier":[{"system":"http://hl7.org/fhir/sid/us-npi","value":"9999999896"}],"name":[{"family":"Evil","prefix":["Dr"]}]},"request":{"method":"PUT","url":"Practitioner/ec0d87d7-48c6-4cbf-a58e-a52c06fcb4cf"}},{"fullUrl":"Encounter/ab72ff41-489c-42b4-abb7-ddeeaefee114","resource":{"resourceType":"Encounter","id":"ab72ff41-489c-42b4-abb7-ddeeaefee114","meta":{"profile":["http://hl7.org/fhir/us/qicore/StructureDefinition/qicore-encounter"]},"status":"finished","class":{"system":"http://terminology.hl7.org/CodeSystem/v3-ActCode","code":"EMER","display":"emergency department"},"type":[{"coding":[{"system":"http://snomed.info/sct","version":"2023-09","code":"4525004","display":"Emergency department patient visit (procedure)","userSelected":true}]}],"subject":{"reference":"Patient/666528ac-0d94-4b09-8e6c-c5930b7dd17c"},"period":{"start":"2027-05-01T00:00:00.000+00:00","end":"2027-05-01T08:00:00.000+00:00"},"diagnosis":[{"condition":{"reference":"Condition/c8538f49-cee2-45aa-8556-eb38cb9cf5cc"},"use":{"coding":[{"system":"http://terminology.hl7.org/CodeSystem/diagnosis-role","code":"billing"}]},"rank":1}],"location":[{"location":{"reference":"Location/5722c6fd-4b96-40dc-b042-a0a1b0956ebd"},"period":{"start":"2027-05-01T00:00:00.000+00:00","end":"2027-05-01T08:01:00.000+00:00"}}]},"request":{"method":"PUT","url":"Encounter/ab72ff41-489c-42b4-abb7-ddeeaefee114"}},{"fullUrl":"Location/5722c6fd-4b96-40dc-b042-a0a1b0956ebd","resource":{"resourceType":"Location","id":"5722c6fd-4b96-40dc-b042-a0a1b0956ebd","meta":{"profile":["http://hl7.org/fhir/us/qicore/StructureDefinition/qicore-location"]},"identifier":[{"use":"usual","system":"http://exampleoflocation.com","value":"B1-S.F2"}],"name":"Emergency Department","type":[{"coding":[{"system":"https://www.cdc.gov/nhsn/cdaportal/terminology/codesystem/hsloc.html","version":"2022","code":"1108-0","display":"Emergency Department","userSelected":true}]}]},"request":{"method":"PUT","url":"Location/5722c6fd-4b96-40dc-b042-a0a1b0956ebd"}},{"fullUrl":"Claim/ClaimBehavior-NotSubsAbuse","resource":{"resourceType":"Claim","id":"ClaimBehavior-NotSubsAbuse","meta":{"profile":["http://hl7.org/fhir/us/qicore/StructureDefinition/qicore-claim"]},"status":"active","type":{"coding":[{"system":"http://terminology.hl7.org/CodeSystem/claim-type","code":"institutional"}]},"use":"claim","patient":{"reference":"Patient/666528ac-0d94-4b09-8e6c-c5930b7dd17c"},"created":"2027-05-01","provider":{"reference":"Practitioner/practitioner-123456"},"priority":{"coding":[{"system":"http://terminology.hl7.org/CodeSystem/processpriority","code":"normal"}]},"diagnosis":[{"sequence":1,"diagnosisReference":{"reference":"Condition/c8538f49-cee2-45aa-8556-eb38cb9cf5cc"},"type":[{"coding":[{"system":"http://terminology.hl7.org/CodeSystem/ex-diagnosistype","code":"principal"}]}]}],"insurance":[{"sequence":1,"focal":true,"coverage":{"reference":"Coverage/1"}}],"item":[{"sequence":1,"diagnosisSequence":[1],"productOrService":{"coding":[{"system":"http://terminology.hl7.org/CodeSystem/ex-USCLS","code":"99555"}]},"encounter":[{"reference":"Encounter/ab72ff41-489c-42b4-abb7-ddeeaefee114"}]}]},"request":{"method":"PUT","url":"Claim/ClaimBehavior-NotSubsAbuse"}},{"fullUrl":"Organization/96f1cfbb-2e26-4cde-b179-6995739fb4a5","resource":{"resourceType":"Organization","id":"96f1cfbb-2e26-4cde-b179-6995739fb4a5","meta":{"profile":["http://hl7.org/fhir/us/qicore/StructureDefinition/qicore-organization"]},"identifier":[{"use":"temp","system":"urn:oid:2.16.840.1.113883.4.4","value":"21-3259825"}],"active":true,"type":[{"coding":[{"system":"http://terminology.hl7.org/CodeSystem/organization-type","code":"pay","display":"Payer"}]}],"name":"Blue Cross Blue Shield of Texas","telecom":[{"system":"phone","value":"(+1) 972-766-6900"}],"address":[{"use":"billing","type":"postal","line":["P.O. Box 660044"],"city":"Dallas","state":"TX","postalCode":"75266-0044","country":"USA"}]},"request":{"method":"PUT","url":"Organization/96f1cfbb-2e26-4cde-b179-6995739fb4a5"}},{"fullUrl":"Patient/666528ac-0d94-4b09-8e6c-c5930b7dd17c","resource":{"resourceType":"Patient","id":"666528ac-0d94-4b09-8e6c-c5930b7dd17c","meta":{"profile":["http://hl7.org/fhir/us/qicore/StructureDefinition/qicore-patient"]},"extension":[{"url":"http://hl7.org/fhir/us/core/StructureDefinition/us-core-race","extension":[{"url":"ombCategory","valueCoding":{"system":"urn:oid:2.16.840.1.113883.6.238","code":"1002-5","display":"American Indian or Alaska Native","userSelected":true}},{"url":"text","valueString":"American Indian or Alaska Native"}]},{"url":"http://hl7.org/fhir/us/core/StructureDefinition/us-core-ethnicity","extension":[{"url":"ombCategory","valueCoding":{"system":"urn:oid:2.16.840.1.113883.6.238","code":"2135-2","display":"Hispanic or Latino","userSelected":true}},{"url":"text","valueString":"Hispanic or Latino"}]},{"url":"http://hl7.org/fhir/us/core/StructureDefinition/us-core-sex","valueCode":"248153007"}],"identifier":[{"type":{"coding":[{"system":"http://terminology.hl7.org/CodeSystem/v2-0203","code":"MR"}]},"system":"https://bonnie-fhir.healthit.gov/","value":"661476b015ed5841a5547ebf"}],"name":[{"family":"NUMERStrat4Pass","given":["EDLOS481Minutes"]}],"gender":"male","birthDate":"2009-01-01"},"request":{"method":"PUT","url":"Patient/666528ac-0d94-4b09-8e6c-c5930b7dd17c"}}]}