{"resourceType":"Bundle","id":"tests-42be9d46-4c2f-4493-8299-d33dcbb7170e-bundle","type":"transaction","entry":[{"fullUrl":"Encounter/1a75bf5d-024c-4f92-95fc-50569c52ee15","resource":{"resourceType":"Encounter","id":"1a75bf5d-024c-4f92-95fc-50569c52ee15","meta":{"profile":["http://hl7.org/fhir/us/qicore/StructureDefinition/qicore-encounter"]},"status":"finished","class":{"system":"http://terminology.hl7.org/CodeSystem/v3-ActCode","code":"EMER","display":"emergency"},"type":[{"coding":[{"system":"http://snomed.info/sct","code":"448951000124107","display":"Admission to observation unit (procedure)","userSelected":true}]}],"subject":{"reference":"Patient/42be9d46-4c2f-4493-8299-d33dcbb7170e"},"period":{"start":"2027-05-01T01:01:00.000+00:00","end":"2027-05-01T05:59:00.000+00:00"}},"request":{"method":"PUT","url":"Encounter/1a75bf5d-024c-4f92-95fc-50569c52ee15"}},{"fullUrl":"ServiceRequest/dea03a10-c7c0-4646-a3b8-ea7bfde56bc7","resource":{"resourceType":"ServiceRequest","id":"dea03a10-c7c0-4646-a3b8-ea7bfde56bc7","meta":{"profile":["http://hl7.org/fhir/us/qicore/StructureDefinition/qicore-servicerequest"]},"status":"active","intent":"order","code":{"coding":[{"system":"http://snomed.info/sct","code":"448551000124100","display":"Patient transfer to another hospital (procedure)","userSelected":true}]},"subject":{"reference":"Patient/42be9d46-4c2f-4493-8299-d33dcbb7170e"},"authoredOn":"2027-05-01T02:00:00.000+00:00"},"request":{"method":"PUT","url":"ServiceRequest/dea03a10-c7c0-4646-a3b8-ea7bfde56bc7"}},{"fullUrl":"Condition/e0caa9b5-f61c-40e5-9a7e-e3c4945593e6","resource":{"resourceType":"Condition","id":"e0caa9b5-f61c-40e5-9a7e-e3c4945593e6","meta":{"profile":["http://hl7.org/fhir/us/qicore/StructureDefinition/qicore-condition-encounter-diagnosis"]},"category":[{"coding":[{"system":"http://terminology.hl7.org/CodeSystem/condition-category","code":"encounter-diagnosis","display":"Encounter Diagnosis"}]}],"code":{"coding":[{"system":"http://snomed.info/sct","version":"2023-09","code":"10349009","display":"Multi-infarct dementia with delirium (disorder)","userSelected":true}]},"subject":{"reference":"Patient/42be9d46-4c2f-4493-8299-d33dcbb7170e"},"recordedDate":"2027-05-01T08:00:00.000+00:00"},"request":{"method":"PUT","url":"Condition/e0caa9b5-f61c-40e5-9a7e-e3c4945593e6"}},{"fullUrl":"Practitioner/d23b6057-fc26-4c67-a839-f3a9d8df0b9e","resource":{"resourceType":"Practitioner","id":"d23b6057-fc26-4c67-a839-f3a9d8df0b9e","meta":{"profile":["http://hl7.org/fhir/us/qicore/StructureDefinition/qicore-practitioner"]},"identifier":[{"system":"http://hl7.org/fhir/sid/us-npi","value":"9999999896"}],"name":[{"family":"Evil","prefix":["Dr"]}]},"request":{"method":"PUT","url":"Practitioner/d23b6057-fc26-4c67-a839-f3a9d8df0b9e"}},{"fullUrl":"Organization/ff178903-eff0-4d8a-abcb-452c56bbb36c","resource":{"resourceType":"Organization","id":"ff178903-eff0-4d8a-abcb-452c56bbb36c","meta":{"profile":["http://hl7.org/fhir/us/qicore/StructureDefinition/qicore-organization"]},"identifier":[{"use":"temp","system":"urn:oid:2.16.840.1.113883.4.4","value":"21-3259825"}],"active":true,"type":[{"coding":[{"system":"http://terminology.hl7.org/CodeSystem/organization-type","code":"pay","display":"Payer"}]}],"name":"Blue Cross Blue Shield of Texas","telecom":[{"system":"phone","value":"(+1) 972-766-6900"}],"address":[{"use":"billing","type":"postal","line":["P.O. Box 660044"],"city":"Dallas","state":"TX","postalCode":"75266-0044","country":"USA"}]},"request":{"method":"PUT","url":"Organization/ff178903-eff0-4d8a-abcb-452c56bbb36c"}},{"fullUrl":"Bundle/661476b015ed5841a5547ebf","resource":{"resourceType":"Bundle","id":"661476b015ed5841a5547ebf","type":"transaction","entry":[{"fullUrl":"https://madie.cms.gov/Patient/42be9d46-4c2f-4493-8299-d33dcbb7170e","resource":{"resourceType":"Patient","id":"42be9d46-4c2f-4493-8299-d33dcbb7170e","meta":{"profile":["http://hl7.org/fhir/us/qicore/StructureDefinition/qicore-patient"]},"extension":[{"url":"http://hl7.org/fhir/us/core/StructureDefinition/us-core-race","extension":[{"url":"ombCategory","valueCoding":{"system":"urn:oid:2.16.840.1.113883.6.238","code":"1002-5","display":"American Indian or Alaska Native","userSelected":true}},{"url":"text","valueString":"American Indian or Alaska Native"}]},{"url":"http://hl7.org/fhir/us/core/StructureDefinition/us-core-ethnicity","extension":[{"url":"ombCategory","valueCoding":{"system":"urn:oid:2.16.840.1.113883.6.238","code":"2135-2","display":"Hispanic or Latino","userSelected":true}},{"url":"text","valueString":"Hispanic or Latino"}]},{"url":"http://hl7.org/fhir/us/core/StructureDefinition/us-core-sex","valueCode":"248153007"}],"identifier":[{"type":{"coding":[{"system":"http://terminology.hl7.org/CodeSystem/v2-0203","code":"MR"}]},"system":"https://bonnie-fhir.healthit.gov/","value":"661476b015ed5841a5547ebf"}],"name":[{"family":"NUMERStrat4Pass","given":["EDObsBoarded"]}],"gender":"male","birthDate":"2009-01-01"},"request":{"method":"PUT","url":"Patient/42be9d46-4c2f-4493-8299-d33dcbb7170e"}},{"fullUrl":"https://madie.cms.gov/Encounter/9a453d98-4b64-44cc-81d9-76881c6997de","resource":{"resourceType":"Encounter","id":"9a453d98-4b64-44cc-81d9-76881c6997de","meta":{"profile":["http://hl7.org/fhir/us/qicore/StructureDefinition/qicore-encounter"]},"status":"finished","class":{"system":"http://terminology.hl7.org/CodeSystem/v3-ActCode","code":"EMER","display":"emergency department"},"type":[{"coding":[{"system":"http://snomed.info/sct","version":"2023-09","code":"4525004","display":"Emergency department patient visit (procedure)","userSelected":true}]}],"subject":{"reference":"Patient/42be9d46-4c2f-4493-8299-d33dcbb7170e"},"period":{"start":"2027-05-01T00:00:00.000+00:00","end":"2027-05-01T06:00:00.000+00:00"},"diagnosis":[{"condition":{"reference":"Condition/e0caa9b5-f61c-40e5-9a7e-e3c4945593e6"},"use":{"coding":[{"system":"http://terminology.hl7.org/CodeSystem/diagnosis-role","code":"billing"}]},"rank":1}],"location":[{"location":{"reference":"Location/04d18ab2-8897-422d-bb31-9c2a9071996e"},"period":{"start":"2027-05-01T00:00:00.000+00:00","end":"2027-05-01T10:01:00.000+00:00"}}]},"request":{"method":"PUT","url":"Encounter/9a453d98-4b64-44cc-81d9-76881c6997de"}},{"fullUrl":"https://madie.cms.gov/ServiceRequest/dea03a10-c7c0-4646-a3b8-ea7bfde56bc7","resource":{"resourceType":"ServiceRequest","id":"dea03a10-c7c0-4646-a3b8-ea7bfde56bc7","meta":{"profile":["http://hl7.org/fhir/us/qicore/StructureDefinition/qicore-servicerequest"]},"status":"active","intent":"order","code":{"coding":[{"system":"http://snomed.info/sct","code":"448551000124100","display":"Patient transfer to another hospital (procedure)","userSelected":true}]},"subject":{"reference":"Patient/42be9d46-4c2f-4493-8299-d33dcbb7170e"},"authoredOn":"2027-05-01T02:00:00.000+00:00"},"request":{"method":"PUT","url":"ServiceRequest/dea03a10-c7c0-4646-a3b8-ea7bfde56bc7"}},{"fullUrl":"https://madie.cms.gov/Location/04d18ab2-8897-422d-bb31-9c2a9071996e","resource":{"resourceType":"Location","id":"04d18ab2-8897-422d-bb31-9c2a9071996e","meta":{"profile":["http://hl7.org/fhir/us/qicore/StructureDefinition/qicore-location"]},"identifier":[{"use":"usual","system":"http://exampleoflocation.com","value":"B1-S.F2"}],"name":"Emergency Department","type":[{"coding":[{"system":"https://www.cdc.gov/nhsn/cdaportal/terminology/codesystem/hsloc.html","version":"2022","code":"1108-0","display":"Emergency Department","userSelected":true}]}]},"request":{"method":"PUT","url":"Location/04d18ab2-8897-422d-bb31-9c2a9071996e"}},{"fullUrl":"https://madie.cms.gov/claim/ClaimBehavior-NotSubsAbuse","resource":{"resourceType":"Claim","id":"ClaimBehavior-NotSubsAbuse","meta":{"profile":["http://hl7.org/fhir/us/qicore/StructureDefinition/qicore-claim"]},"status":"active","type":{"coding":[{"system":"http://terminology.hl7.org/CodeSystem/claim-type","code":"institutional"}]},"use":"claim","patient":{"reference":"Patient/42be9d46-4c2f-4493-8299-d33dcbb7170e"},"created":"2027-05-01","provider":{"reference":"Practitioner/practitioner-123456"},"priority":{"coding":[{"system":"http://terminology.hl7.org/CodeSystem/processpriority","code":"normal"}]},"diagnosis":[{"sequence":1,"diagnosisReference":{"reference":"Condition/e0caa9b5-f61c-40e5-9a7e-e3c4945593e6"},"type":[{"coding":[{"system":"http://terminology.hl7.org/CodeSystem/ex-diagnosistype","code":"principal"}]}]}],"insurance":[{"sequence":1,"focal":true,"coverage":{"reference":"Coverage/1"}}],"item":[{"sequence":1,"diagnosisSequence":[1],"productOrService":{"coding":[{"system":"http://terminology.hl7.org/CodeSystem/ex-USCLS","code":"99555"}]},"encounter":[{"reference":"Encounter/9a453d98-4b64-44cc-81d9-76881c6997de"}]}]},"request":{"method":"PUT","url":"Claim/ClaimBehavior-NotSubsAbuse"}},{"fullUrl":"https://madie.cms.gov/Coverage/dda7780c-ee9d-48a0-b72f-41e665452dd7","resource":{"resourceType":"Coverage","id":"dda7780c-ee9d-48a0-b72f-41e665452dd7","meta":{"profile":["http://hl7.org/fhir/us/qicore/StructureDefinition/qicore-coverage"]},"identifier":[{"type":{"coding":[{"system":"http://terminology.hl7.org/CodeSystem/v2-0203","code":"MB"}]}}],"status":"active","beneficiary":{"reference":"Patient/42be9d46-4c2f-4493-8299-d33dcbb7170e"},"relationship":{"coding":[{"system":"http://terminology.hl7.org/CodeSystem/subscriber-relationship","code":"self"}]},"payor":[{"reference":"Organization/ff178903-eff0-4d8a-abcb-452c56bbb36c"}]},"request":{"method":"PUT","url":"Coverage/dda7780c-ee9d-48a0-b72f-41e665452dd7"}},{"fullUrl":"https://madie.cms.gov/Condition/e0caa9b5-f61c-40e5-9a7e-e3c4945593e6","resource":{"resourceType":"Condition","id":"e0caa9b5-f61c-40e5-9a7e-e3c4945593e6","meta":{"profile":["http://hl7.org/fhir/us/qicore/StructureDefinition/qicore-condition-encounter-diagnosis"]},"category":[{"coding":[{"system":"http://terminology.hl7.org/CodeSystem/condition-category","code":"encounter-diagnosis","display":"Encounter Diagnosis"}]}],"code":{"coding":[{"system":"http://snomed.info/sct","version":"2023-09","code":"10349009","display":"Multi-infarct dementia with delirium (disorder)","userSelected":true}]},"subject":{"reference":"Patient/42be9d46-4c2f-4493-8299-d33dcbb7170e"},"recordedDate":"2027-05-01T08:00:00.000+00:00"},"request":{"method":"PUT","url":"Condition/e0caa9b5-f61c-40e5-9a7e-e3c4945593e6"}},{"fullUrl":"https://madie.cms.gov/Encounter/1a75bf5d-024c-4f92-95fc-50569c52ee15","resource":{"resourceType":"Encounter","id":"1a75bf5d-024c-4f92-95fc-50569c52ee15","meta":{"profile":["http://hl7.org/fhir/us/qicore/StructureDefinition/qicore-encounter"]},"status":"finished","class":{"system":"http://terminology.hl7.org/CodeSystem/v3-ActCode","code":"EMER","display":"emergency"},"type":[{"coding":[{"system":"http://snomed.info/sct","code":"448951000124107","display":"Admission to observation unit (procedure)","userSelected":true}]}],"subject":{"reference":"Patient/42be9d46-4c2f-4493-8299-d33dcbb7170e"},"period":{"start":"2027-05-01T01:01:00.000+00:00","end":"2027-05-01T05:59:00.000+00:00"}},"request":{"method":"PUT","url":"Encounter/1a75bf5d-024c-4f92-95fc-50569c52ee15"}},{"fullUrl":"https://madie.cms.gov/Organization/ff178903-eff0-4d8a-abcb-452c56bbb36c","resource":{"resourceType":"Organization","id":"ff178903-eff0-4d8a-abcb-452c56bbb36c","meta":{"profile":["http://hl7.org/fhir/us/qicore/StructureDefinition/qicore-organization"]},"identifier":[{"use":"temp","system":"urn:oid:2.16.840.1.113883.4.4","value":"21-3259825"}],"active":true,"type":[{"coding":[{"system":"http://terminology.hl7.org/CodeSystem/organization-type","code":"pay","display":"Payer"}]}],"name":"Blue Cross Blue Shield of Texas","telecom":[{"system":"phone","value":"(+1) 972-766-6900"}],"address":[{"use":"billing","type":"postal","line":["P.O. Box 660044"],"city":"Dallas","state":"TX","postalCode":"75266-0044","country":"USA"}]},"request":{"method":"PUT","url":"Organization/ff178903-eff0-4d8a-abcb-452c56bbb36c"}},{"fullUrl":"https://madie.cms.gov/Practitioner/d23b6057-fc26-4c67-a839-f3a9d8df0b9e","resource":{"resourceType":"Practitioner","id":"d23b6057-fc26-4c67-a839-f3a9d8df0b9e","meta":{"profile":["http://hl7.org/fhir/us/qicore/StructureDefinition/qicore-practitioner"]},"identifier":[{"system":"http://hl7.org/fhir/sid/us-npi","value":"9999999896"}],"name":[{"family":"Evil","prefix":["Dr"]}]},"request":{"method":"PUT","url":"Practitioner/d23b6057-fc26-4c67-a839-f3a9d8df0b9e"}},{"fullUrl":"https://madie.cms.gov/MeasureReport/ab4607c5-65be-4a5d-af39-15b3c871de64","resource":{"resourceType":"MeasureReport","id":"ab4607c5-65be-4a5d-af39-15b3c871de64","meta":{"profile":["http://hl7.org/fhir/us/cqfmeasures/StructureDefinition/test-case-cqfm"]},"contained":[{"resourceType":"Parameters","id":"c10101d2-f7fe-4d87-a7db-76eb3bc2e10d-parameters","parameter":[{"name":"subject","valueString":"42be9d46-4c2f-4493-8299-d33dcbb7170e"}]}],"extension":[{"url":"http://hl7.org/fhir/StructureDefinition/cqf-inputParameters","valueReference":{"reference":"#c10101d2-f7fe-4d87-a7db-76eb3bc2e10d-parameters"}},{"url":"http://hl7.org/fhir/us/cqfmeasures/StructureDefinition/cqfm-testCaseDescription","valueMarkdown":"Adult, ED observation during ED enc where patient was boarded 6 hrs 1 min; Enc 8 hrs, enc departure 8 hrs 1 min."}],"modifierExtension":[{"url":"http://hl7.org/fhir/us/cqfmeasures/StructureDefinition/cqfm-isTestCase","valueBoolean":true}],"status":"complete","type":"individual","measure":"https://madie.cms.gov/Measure/CMS1264FHIRECATREHQR","period":{"start":"2027-01-01","end":"2027-12-31"},"group":[{"id":"Group_1","population":[{"id":"InitialPopulation_1","code":{"coding":[{"system":"http://terminology.hl7.org/CodeSystem/measure-population","code":"initial-population","display":"Initial Population"}]},"count":1},{"id":"Denominator_1","code":{"coding":[{"system":"http://terminology.hl7.org/CodeSystem/measure-population","code":"denominator","display":"Denominator"}]},"count":1},{"id":"Numerator_1","code":{"coding":[{"system":"http://terminology.hl7.org/CodeSystem/measure-population","code":"numerator","display":"Numerator"}]},"count":0}],"measureScore":{"value":0.0},"stratifier":[{"id":"Stratification_1_1","code":[{"text":"Strata-1"}],"stratum":[{"value":{"text":"Strata-1"},"population":[{"id":"InitialPopulation_1","code":{"coding":[{"system":"http://terminology.hl7.org/CodeSystem/measure-population","code":"initial-population","display":"Initial Population"}]},"count":0},{"id":"Denominator_1","code":{"coding":[{"system":"http://terminology.hl7.org/CodeSystem/measure-population","code":"denominator","display":"Denominator"}]},"count":0},{"id":"Numerator_1","code":{"coding":[{"system":"http://terminology.hl7.org/CodeSystem/measure-population","code":"numerator","display":"Numerator"}]},"count":0}]}]},{"id":"Stratification_1_2","code":[{"text":"Strata-2"}],"stratum":[{"value":{"text":"Strata-2"},"population":[{"id":"InitialPopulation_1","code":{"coding":[{"system":"http://terminology.hl7.org/CodeSystem/measure-population","code":"initial-population","display":"Initial Population"}]},"count":0},{"id":"Denominator_1","code":{"coding":[{"system":"http://terminology.hl7.org/CodeSystem/measure-population","code":"denominator","display":"Denominator"}]},"count":0},{"id":"Numerator_1","code":{"coding":[{"system":"http://terminology.hl7.org/CodeSystem/measure-population","code":"numerator","display":"Numerator"}]},"count":0}]}]},{"id":"Stratification_1_3","code":[{"text":"Strata-3"}],"stratum":[{"value":{"text":"Strata-3"},"population":[{"id":"InitialPopulation_1","code":{"coding":[{"system":"http://terminology.hl7.org/CodeSystem/measure-population","code":"initial-population","display":"Initial Population"}]},"count":0},{"id":"Denominator_1","code":{"coding":[{"system":"http://terminology.hl7.org/CodeSystem/measure-population","code":"denominator","display":"Denominator"}]},"count":0},{"id":"Numerator_1","code":{"coding":[{"system":"http://terminology.hl7.org/CodeSystem/measure-population","code":"numerator","display":"Numerator"}]},"count":0}]}]},{"id":"Stratification_1_4","code":[{"text":"Strata-4"}],"stratum":[{"value":{"text":"Strata-4"},"population":[{"id":"InitialPopulation_1","code":{"coding":[{"system":"http://terminology.hl7.org/CodeSystem/measure-population","code":"initial-population","display":"Initial Population"}]},"count":1},{"id":"Denominator_1","code":{"coding":[{"system":"http://terminology.hl7.org/CodeSystem/measure-population","code":"denominator","display":"Denominator"}]},"count":1},{"id":"Numerator_1","code":{"coding":[{"system":"http://terminology.hl7.org/CodeSystem/measure-population","code":"numerator","display":"Numerator"}]},"count":0}]}]}]}],"evaluatedResource":[{"reference":"Patient/42be9d46-4c2f-4493-8299-d33dcbb7170e"},{"reference":"Encounter/9a453d98-4b64-44cc-81d9-76881c6997de"},{"reference":"ServiceRequest/dea03a10-c7c0-4646-a3b8-ea7bfde56bc7"},{"reference":"Location/04d18ab2-8897-422d-bb31-9c2a9071996e"},{"reference":"Claim/ClaimBehavior-NotSubsAbuse"},{"reference":"Coverage/dda7780c-ee9d-48a0-b72f-41e665452dd7"},{"reference":"Condition/e0caa9b5-f61c-40e5-9a7e-e3c4945593e6"},{"reference":"Encounter/1a75bf5d-024c-4f92-95fc-50569c52ee15"},{"reference":"Organization/ff178903-eff0-4d8a-abcb-452c56bbb36c"},{"reference":"Practitioner/d23b6057-fc26-4c67-a839-f3a9d8df0b9e"}]},"request":{"method":"PUT","url":"MeasureReport/ab4607c5-65be-4a5d-af39-15b3c871de64"}}]},"request":{"method":"PUT","url":"Bundle/661476b015ed5841a5547ebf"}},{"fullUrl":"Patient/42be9d46-4c2f-4493-8299-d33dcbb7170e","resource":{"resourceType":"Patient","id":"42be9d46-4c2f-4493-8299-d33dcbb7170e","meta":{"profile":["http://hl7.org/fhir/us/qicore/StructureDefinition/qicore-patient"]},"extension":[{"url":"http://hl7.org/fhir/us/core/StructureDefinition/us-core-race","extension":[{"url":"ombCategory","valueCoding":{"system":"urn:oid:2.16.840.1.113883.6.238","code":"1002-5","display":"American Indian or Alaska Native","userSelected":true}},{"url":"text","valueString":"American Indian or Alaska Native"}]},{"url":"http://hl7.org/fhir/us/core/StructureDefinition/us-core-ethnicity","extension":[{"url":"ombCategory","valueCoding":{"system":"urn:oid:2.16.840.1.113883.6.238","code":"2135-2","display":"Hispanic or Latino","userSelected":true}},{"url":"text","valueString":"Hispanic or Latino"}]},{"url":"http://hl7.org/fhir/us/core/StructureDefinition/us-core-sex","valueCode":"248153007"}],"identifier":[{"type":{"coding":[{"system":"http://terminology.hl7.org/CodeSystem/v2-0203","code":"MR"}]},"system":"https://bonnie-fhir.healthit.gov/","value":"661476b015ed5841a5547ebf"}],"name":[{"family":"NUMERStrat4Pass","given":["EDObsBoarded"]}],"gender":"male","birthDate":"2009-01-01"},"request":{"method":"PUT","url":"Patient/42be9d46-4c2f-4493-8299-d33dcbb7170e"}},{"fullUrl":"Coverage/dda7780c-ee9d-48a0-b72f-41e665452dd7","resource":{"resourceType":"Coverage","id":"dda7780c-ee9d-48a0-b72f-41e665452dd7","meta":{"profile":["http://hl7.org/fhir/us/qicore/StructureDefinition/qicore-coverage"]},"identifier":[{"type":{"coding":[{"system":"http://terminology.hl7.org/CodeSystem/v2-0203","code":"MB"}]}}],"status":"active","beneficiary":{"reference":"Patient/42be9d46-4c2f-4493-8299-d33dcbb7170e"},"relationship":{"coding":[{"system":"http://terminology.hl7.org/CodeSystem/subscriber-relationship","code":"self"}]},"payor":[{"reference":"Organization/ff178903-eff0-4d8a-abcb-452c56bbb36c"}]},"request":{"method":"PUT","url":"Coverage/dda7780c-ee9d-48a0-b72f-41e665452dd7"}},{"fullUrl":"Location/04d18ab2-8897-422d-bb31-9c2a9071996e","resource":{"resourceType":"Location","id":"04d18ab2-8897-422d-bb31-9c2a9071996e","meta":{"profile":["http://hl7.org/fhir/us/qicore/StructureDefinition/qicore-location"]},"identifier":[{"use":"usual","system":"http://exampleoflocation.com","value":"B1-S.F2"}],"name":"Emergency Department","type":[{"coding":[{"system":"https://www.cdc.gov/nhsn/cdaportal/terminology/codesystem/hsloc.html","version":"2022","code":"1108-0","display":"Emergency Department","userSelected":true}]}]},"request":{"method":"PUT","url":"Location/04d18ab2-8897-422d-bb31-9c2a9071996e"}},{"fullUrl":"MeasureReport/ab4607c5-65be-4a5d-af39-15b3c871de64","resource":{"resourceType":"MeasureReport","id":"ab4607c5-65be-4a5d-af39-15b3c871de64","meta":{"profile":["http://hl7.org/fhir/us/cqfmeasures/StructureDefinition/test-case-cqfm"]},"contained":[{"resourceType":"Parameters","id":"c10101d2-f7fe-4d87-a7db-76eb3bc2e10d-parameters","parameter":[{"name":"subject","valueString":"42be9d46-4c2f-4493-8299-d33dcbb7170e"}]}],"extension":[{"url":"http://hl7.org/fhir/StructureDefinition/cqf-inputParameters","valueReference":{"reference":"#c10101d2-f7fe-4d87-a7db-76eb3bc2e10d-parameters"}},{"url":"http://hl7.org/fhir/us/cqfmeasures/StructureDefinition/cqfm-testCaseDescription","valueMarkdown":"Adult, ED observation during ED enc where patient was boarded 6 hrs 1 min; Enc 8 hrs, enc departure 8 hrs 1 min."}],"modifierExtension":[{"url":"http://hl7.org/fhir/us/cqfmeasures/StructureDefinition/cqfm-isTestCase","valueBoolean":true}],"status":"complete","type":"individual","measure":"https://madie.cms.gov/Measure/CMS1264FHIRECATREHQR","period":{"start":"2027-01-01","end":"2027-12-31"},"group":[{"id":"Group_1","population":[{"id":"InitialPopulation_1","code":{"coding":[{"system":"http://terminology.hl7.org/CodeSystem/measure-population","code":"initial-population","display":"Initial Population"}]},"count":1},{"id":"Denominator_1","code":{"coding":[{"system":"http://terminology.hl7.org/CodeSystem/measure-population","code":"denominator","display":"Denominator"}]},"count":1},{"id":"Numerator_1","code":{"coding":[{"system":"http://terminology.hl7.org/CodeSystem/measure-population","code":"numerator","display":"Numerator"}]},"count":0}],"measureScore":{"value":0.0},"stratifier":[{"id":"Stratification_1_1","code":[{"text":"Strata-1"}],"stratum":[{"value":{"text":"Strata-1"},"population":[{"id":"InitialPopulation_1","code":{"coding":[{"system":"http://terminology.hl7.org/CodeSystem/measure-population","code":"initial-population","display":"Initial Population"}]},"count":0},{"id":"Denominator_1","code":{"coding":[{"system":"http://terminology.hl7.org/CodeSystem/measure-population","code":"denominator","display":"Denominator"}]},"count":0},{"id":"Numerator_1","code":{"coding":[{"system":"http://terminology.hl7.org/CodeSystem/measure-population","code":"numerator","display":"Numerator"}]},"count":0}]}]},{"id":"Stratification_1_2","code":[{"text":"Strata-2"}],"stratum":[{"value":{"text":"Strata-2"},"population":[{"id":"InitialPopulation_1","code":{"coding":[{"system":"http://terminology.hl7.org/CodeSystem/measure-population","code":"initial-population","display":"Initial Population"}]},"count":0},{"id":"Denominator_1","code":{"coding":[{"system":"http://terminology.hl7.org/CodeSystem/measure-population","code":"denominator","display":"Denominator"}]},"count":0},{"id":"Numerator_1","code":{"coding":[{"system":"http://terminology.hl7.org/CodeSystem/measure-population","code":"numerator","display":"Numerator"}]},"count":0}]}]},{"id":"Stratification_1_3","code":[{"text":"Strata-3"}],"stratum":[{"value":{"text":"Strata-3"},"population":[{"id":"InitialPopulation_1","code":{"coding":[{"system":"http://terminology.hl7.org/CodeSystem/measure-population","code":"initial-population","display":"Initial Population"}]},"count":0},{"id":"Denominator_1","code":{"coding":[{"system":"http://terminology.hl7.org/CodeSystem/measure-population","code":"denominator","display":"Denominator"}]},"count":0},{"id":"Numerator_1","code":{"coding":[{"system":"http://terminology.hl7.org/CodeSystem/measure-population","code":"numerator","display":"Numerator"}]},"count":0}]}]},{"id":"Stratification_1_4","code":[{"text":"Strata-4"}],"stratum":[{"value":{"text":"Strata-4"},"population":[{"id":"InitialPopulation_1","code":{"coding":[{"system":"http://terminology.hl7.org/CodeSystem/measure-population","code":"initial-population","display":"Initial Population"}]},"count":1},{"id":"Denominator_1","code":{"coding":[{"system":"http://terminology.hl7.org/CodeSystem/measure-population","code":"denominator","display":"Denominator"}]},"count":1},{"id":"Numerator_1","code":{"coding":[{"system":"http://terminology.hl7.org/CodeSystem/measure-population","code":"numerator","display":"Numerator"}]},"count":0}]}]}]}],"evaluatedResource":[{"reference":"Patient/42be9d46-4c2f-4493-8299-d33dcbb7170e"},{"reference":"Encounter/9a453d98-4b64-44cc-81d9-76881c6997de"},{"reference":"ServiceRequest/dea03a10-c7c0-4646-a3b8-ea7bfde56bc7"},{"reference":"Location/04d18ab2-8897-422d-bb31-9c2a9071996e"},{"reference":"Claim/ClaimBehavior-NotSubsAbuse"},{"reference":"Coverage/dda7780c-ee9d-48a0-b72f-41e665452dd7"},{"reference":"Condition/e0caa9b5-f61c-40e5-9a7e-e3c4945593e6"},{"reference":"Encounter/1a75bf5d-024c-4f92-95fc-50569c52ee15"},{"reference":"Organization/ff178903-eff0-4d8a-abcb-452c56bbb36c"},{"reference":"Practitioner/d23b6057-fc26-4c67-a839-f3a9d8df0b9e"}]},"request":{"method":"PUT","url":"MeasureReport/ab4607c5-65be-4a5d-af39-15b3c871de64"}},{"fullUrl":"Encounter/9a453d98-4b64-44cc-81d9-76881c6997de","resource":{"resourceType":"Encounter","id":"9a453d98-4b64-44cc-81d9-76881c6997de","meta":{"profile":["http://hl7.org/fhir/us/qicore/StructureDefinition/qicore-encounter"]},"status":"finished","class":{"system":"http://terminology.hl7.org/CodeSystem/v3-ActCode","code":"EMER","display":"emergency department"},"type":[{"coding":[{"system":"http://snomed.info/sct","version":"2023-09","code":"4525004","display":"Emergency department patient visit (procedure)","userSelected":true}]}],"subject":{"reference":"Patient/42be9d46-4c2f-4493-8299-d33dcbb7170e"},"period":{"start":"2027-05-01T00:00:00.000+00:00","end":"2027-05-01T06:00:00.000+00:00"},"diagnosis":[{"condition":{"reference":"Condition/e0caa9b5-f61c-40e5-9a7e-e3c4945593e6"},"use":{"coding":[{"system":"http://terminology.hl7.org/CodeSystem/diagnosis-role","code":"billing"}]},"rank":1}],"location":[{"location":{"reference":"Location/04d18ab2-8897-422d-bb31-9c2a9071996e"},"period":{"start":"2027-05-01T00:00:00.000+00:00","end":"2027-05-01T10:01:00.000+00:00"}}]},"request":{"method":"PUT","url":"Encounter/9a453d98-4b64-44cc-81d9-76881c6997de"}},{"fullUrl":"Claim/ClaimBehavior-NotSubsAbuse","resource":{"resourceType":"Claim","id":"ClaimBehavior-NotSubsAbuse","meta":{"profile":["http://hl7.org/fhir/us/qicore/StructureDefinition/qicore-claim"]},"status":"active","type":{"coding":[{"system":"http://terminology.hl7.org/CodeSystem/claim-type","code":"institutional"}]},"use":"claim","patient":{"reference":"Patient/42be9d46-4c2f-4493-8299-d33dcbb7170e"},"created":"2027-05-01","provider":{"reference":"Practitioner/practitioner-123456"},"priority":{"coding":[{"system":"http://terminology.hl7.org/CodeSystem/processpriority","code":"normal"}]},"diagnosis":[{"sequence":1,"diagnosisReference":{"reference":"Condition/e0caa9b5-f61c-40e5-9a7e-e3c4945593e6"},"type":[{"coding":[{"system":"http://terminology.hl7.org/CodeSystem/ex-diagnosistype","code":"principal"}]}]}],"insurance":[{"sequence":1,"focal":true,"coverage":{"reference":"Coverage/1"}}],"item":[{"sequence":1,"diagnosisSequence":[1],"productOrService":{"coding":[{"system":"http://terminology.hl7.org/CodeSystem/ex-USCLS","code":"99555"}]},"encounter":[{"reference":"Encounter/9a453d98-4b64-44cc-81d9-76881c6997de"}]}]},"request":{"method":"PUT","url":"Claim/ClaimBehavior-NotSubsAbuse"}}]}