{"resourceType":"Bundle","id":"tests-3302c6ff-8767-4be7-9c81-f1d98351b247-bundle","type":"transaction","entry":[{"fullUrl":"Encounter/0ae3734a-22ea-4d61-ae81-4257cdf73df7","resource":{"resourceType":"Encounter","id":"0ae3734a-22ea-4d61-ae81-4257cdf73df7","meta":{"profile":["http://hl7.org/fhir/us/qicore/StructureDefinition/qicore-encounter"]},"status":"finished","class":{"system":"http://terminology.hl7.org/CodeSystem/v3-ActCode","code":"EMER","display":"emergency department"},"type":[{"coding":[{"system":"http://snomed.info/sct","version":"2023-09","code":"4525004","display":"Emergency department patient visit (procedure)","userSelected":true}]}],"subject":{"reference":"Patient/3302c6ff-8767-4be7-9c81-f1d98351b247"},"period":{"start":"2027-04-01T06:00:00.000+00:00","end":"2027-04-01T14:01:00.000+00:00"},"diagnosis":[{"condition":{"reference":"Condition/2f1bc426-b3f0-4e3b-a278-f9b8e49a47ed"},"use":{"coding":[{"system":"http://terminology.hl7.org/CodeSystem/diagnosis-role","code":"billing"}]},"rank":1}],"location":[{"location":{"reference":"Location/0e840bb5-b883-44a2-9328-e6bbb98d8778"},"period":{"start":"2027-04-01T06:00:00.000+00:00","end":"2027-04-01T14:01:00.000+00:00"}}]},"request":{"method":"PUT","url":"Encounter/0ae3734a-22ea-4d61-ae81-4257cdf73df7"}},{"fullUrl":"Claim/ClaimBehavior-NotSubsAbuse2","resource":{"resourceType":"Claim","id":"ClaimBehavior-NotSubsAbuse2","meta":{"profile":["http://hl7.org/fhir/us/qicore/StructureDefinition/qicore-claim"]},"status":"active","type":{"coding":[{"system":"http://terminology.hl7.org/CodeSystem/claim-type","code":"institutional"}]},"use":"claim","patient":{"reference":"Patient/3302c6ff-8767-4be7-9c81-f1d98351b247"},"created":"2027-05-01","provider":{"reference":"Practitioner/practitioner-123456"},"priority":{"coding":[{"system":"http://terminology.hl7.org/CodeSystem/processpriority","code":"normal"}]},"diagnosis":[{"sequence":1,"diagnosisReference":{"reference":"Condition/2f1bc426-b3f0-4e3b-a278-f9b8e49a47ed"},"type":[{"coding":[{"system":"http://terminology.hl7.org/CodeSystem/ex-diagnosistype","code":"principal"}]}]}],"insurance":[{"sequence":1,"focal":true,"coverage":{"reference":"Coverage/1"}}],"item":[{"sequence":1,"diagnosisSequence":[1],"productOrService":{"coding":[{"system":"http://terminology.hl7.org/CodeSystem/ex-USCLS","code":"99555"}]},"encounter":[{"reference":"Encounter/0ae3734a-22ea-4d61-ae81-4257cdf73df7"}]}]},"request":{"method":"PUT","url":"Claim/ClaimBehavior-NotSubsAbuse2"}},{"fullUrl":"MeasureReport/e06a717a-1f75-405f-a1dc-7ad5c262c8d6","resource":{"resourceType":"MeasureReport","id":"e06a717a-1f75-405f-a1dc-7ad5c262c8d6","meta":{"profile":["http://hl7.org/fhir/us/cqfmeasures/StructureDefinition/test-case-cqfm"]},"contained":[{"resourceType":"Parameters","id":"ff017fa2-96c5-45df-9155-62e376873cb1-parameters","parameter":[{"name":"subject","valueString":"3302c6ff-8767-4be7-9c81-f1d98351b247"}]}],"extension":[{"url":"http://hl7.org/fhir/StructureDefinition/cqf-inputParameters","valueReference":{"reference":"#ff017fa2-96c5-45df-9155-62e376873cb1-parameters"}},{"url":"http://hl7.org/fhir/us/cqfmeasures/StructureDefinition/cqfm-testCaseDescription","valueMarkdown":"Encounter in January 240 minutes fails numerator, encounter in April 241 minutes passes numerator.  Adolescent, no mental health diagnosis."}],"modifierExtension":[{"url":"http://hl7.org/fhir/us/cqfmeasures/StructureDefinition/cqfm-isTestCase","valueBoolean":true}],"status":"complete","type":"individual","measure":"https://madie.cms.gov/Measure/CMS1264FHIRECATREHQR","period":{"start":"2027-01-01","end":"2027-12-31"},"group":[{"id":"Group_1","population":[{"id":"InitialPopulation_1","code":{"coding":[{"system":"http://terminology.hl7.org/CodeSystem/measure-population","code":"initial-population","display":"Initial Population"}]},"count":2},{"id":"Denominator_1","code":{"coding":[{"system":"http://terminology.hl7.org/CodeSystem/measure-population","code":"denominator","display":"Denominator"}]},"count":2},{"id":"Numerator_1","code":{"coding":[{"system":"http://terminology.hl7.org/CodeSystem/measure-population","code":"numerator","display":"Numerator"}]},"count":1}],"measureScore":{"value":0.0},"stratifier":[{"id":"Stratification_1_1","code":[{"text":"Strata-1"}],"stratum":[{"value":{"text":"Strata-1"},"population":[{"id":"InitialPopulation_1","code":{"coding":[{"system":"http://terminology.hl7.org/CodeSystem/measure-population","code":"initial-population","display":"Initial Population"}]},"count":2},{"id":"Denominator_1","code":{"coding":[{"system":"http://terminology.hl7.org/CodeSystem/measure-population","code":"denominator","display":"Denominator"}]},"count":2},{"id":"Numerator_1","code":{"coding":[{"system":"http://terminology.hl7.org/CodeSystem/measure-population","code":"numerator","display":"Numerator"}]},"count":1}]}]},{"id":"Stratification_1_2","code":[{"text":"Strata-2"}],"stratum":[{"value":{"text":"Strata-2"},"population":[{"id":"InitialPopulation_1","code":{"coding":[{"system":"http://terminology.hl7.org/CodeSystem/measure-population","code":"initial-population","display":"Initial Population"}]},"count":0},{"id":"Denominator_1","code":{"coding":[{"system":"http://terminology.hl7.org/CodeSystem/measure-population","code":"denominator","display":"Denominator"}]},"count":0},{"id":"Numerator_1","code":{"coding":[{"system":"http://terminology.hl7.org/CodeSystem/measure-population","code":"numerator","display":"Numerator"}]},"count":0}]}]},{"id":"Stratification_1_3","code":[{"text":"Strata-3"}],"stratum":[{"value":{"text":"Strata-3"},"population":[{"id":"InitialPopulation_1","code":{"coding":[{"system":"http://terminology.hl7.org/CodeSystem/measure-population","code":"initial-population","display":"Initial Population"}]},"count":0},{"id":"Denominator_1","code":{"coding":[{"system":"http://terminology.hl7.org/CodeSystem/measure-population","code":"denominator","display":"Denominator"}]},"count":0},{"id":"Numerator_1","code":{"coding":[{"system":"http://terminology.hl7.org/CodeSystem/measure-population","code":"numerator","display":"Numerator"}]},"count":0}]}]},{"id":"Stratification_1_4","code":[{"text":"Strata-4"}],"stratum":[{"value":{"text":"Strata-4"},"population":[{"id":"InitialPopulation_1","code":{"coding":[{"system":"http://terminology.hl7.org/CodeSystem/measure-population","code":"initial-population","display":"Initial Population"}]},"count":0},{"id":"Denominator_1","code":{"coding":[{"system":"http://terminology.hl7.org/CodeSystem/measure-population","code":"denominator","display":"Denominator"}]},"count":0},{"id":"Numerator_1","code":{"coding":[{"system":"http://terminology.hl7.org/CodeSystem/measure-population","code":"numerator","display":"Numerator"}]},"count":0}]}]}]}],"evaluatedResource":[{"reference":"Patient/3302c6ff-8767-4be7-9c81-f1d98351b247"},{"reference":"Encounter/10dbdb44-ac73-4ca4-96f9-b33e10dcfeb0"},{"reference":"Encounter/0ae3734a-22ea-4d61-ae81-4257cdf73df7"},{"reference":"Condition/2f1bc426-b3f0-4e3b-a278-f9b8e49a47ed"},{"reference":"Location/0e840bb5-b883-44a2-9328-e6bbb98d8778"},{"reference":"Claim/ClaimBehavior-NotSubsAbuse"},{"reference":"Claim/ClaimBehavior-NotSubsAbuse2"},{"reference":"Coverage/4dfd575b-a7dc-44d9-861b-1bd98a141fed"},{"reference":"Organization/67bda315-0f76-46b9-a14c-3fbe7284ec2f"},{"reference":"Practitioner/5d16db7a-4094-4a07-a94a-6f9c4e3e0e59"}]},"request":{"method":"PUT","url":"MeasureReport/e06a717a-1f75-405f-a1dc-7ad5c262c8d6"}},{"fullUrl":"Coverage/4dfd575b-a7dc-44d9-861b-1bd98a141fed","resource":{"resourceType":"Coverage","id":"4dfd575b-a7dc-44d9-861b-1bd98a141fed","meta":{"profile":["http://hl7.org/fhir/us/qicore/StructureDefinition/qicore-coverage"]},"identifier":[{"type":{"coding":[{"system":"http://terminology.hl7.org/CodeSystem/v2-0203","code":"MB"}]}}],"status":"active","beneficiary":{"reference":"Patient/3302c6ff-8767-4be7-9c81-f1d98351b247"},"relationship":{"coding":[{"system":"http://terminology.hl7.org/CodeSystem/subscriber-relationship","code":"self"}]},"payor":[{"reference":"Organization/67bda315-0f76-46b9-a14c-3fbe7284ec2f"}]},"request":{"method":"PUT","url":"Coverage/4dfd575b-a7dc-44d9-861b-1bd98a141fed"}},{"fullUrl":"Encounter/10dbdb44-ac73-4ca4-96f9-b33e10dcfeb0","resource":{"resourceType":"Encounter","id":"10dbdb44-ac73-4ca4-96f9-b33e10dcfeb0","meta":{"profile":["http://hl7.org/fhir/us/qicore/StructureDefinition/qicore-encounter"]},"status":"finished","class":{"system":"http://terminology.hl7.org/CodeSystem/v3-ActCode","code":"EMER","display":"emergency department"},"type":[{"coding":[{"system":"http://snomed.info/sct","version":"2023-09","code":"4525004","display":"Emergency department patient visit (procedure)","userSelected":true}]}],"subject":{"reference":"Patient/3302c6ff-8767-4be7-9c81-f1d98351b247"},"period":{"start":"2027-05-01T06:00:00.000+00:00","end":"2027-05-01T14:00:00.000+00:00"},"diagnosis":[{"condition":{"reference":"Condition/2f1bc426-b3f0-4e3b-a278-f9b8e49a47ed"},"use":{"coding":[{"system":"http://terminology.hl7.org/CodeSystem/diagnosis-role","code":"billing"}]},"rank":1}],"location":[{"location":{"reference":"Location/0e840bb5-b883-44a2-9328-e6bbb98d8778"},"period":{"start":"2027-05-01T06:00:00.000+00:00","end":"2027-05-01T14:00:00.000+00:00"}}]},"request":{"method":"PUT","url":"Encounter/10dbdb44-ac73-4ca4-96f9-b33e10dcfeb0"}},{"fullUrl":"Bundle/661476b015ed5841a5547ebf","resource":{"resourceType":"Bundle","id":"661476b015ed5841a5547ebf","type":"transaction","entry":[{"fullUrl":"https://madie.cms.gov/Patient/3302c6ff-8767-4be7-9c81-f1d98351b247","resource":{"resourceType":"Patient","id":"3302c6ff-8767-4be7-9c81-f1d98351b247","meta":{"profile":["http://hl7.org/fhir/us/qicore/StructureDefinition/qicore-patient"]},"extension":[{"url":"http://hl7.org/fhir/us/core/StructureDefinition/us-core-race","extension":[{"url":"ombCategory","valueCoding":{"system":"urn:oid:2.16.840.1.113883.6.238","code":"1002-5","display":"American Indian or Alaska Native","userSelected":true}},{"url":"text","valueString":"American Indian or Alaska Native"}]},{"url":"http://hl7.org/fhir/us/core/StructureDefinition/us-core-ethnicity","extension":[{"url":"ombCategory","valueCoding":{"system":"urn:oid:2.16.840.1.113883.6.238","code":"2135-2","display":"Hispanic or Latino","userSelected":true}},{"url":"text","valueString":"Hispanic or Latino"}]},{"url":"http://hl7.org/fhir/us/core/StructureDefinition/us-core-sex","valueCode":"248153007"}],"identifier":[{"type":{"coding":[{"system":"http://terminology.hl7.org/CodeSystem/v2-0203","code":"MR"}]},"system":"https://bonnie-fhir.healthit.gov/","value":"661476b015ed5841a5547ebf"}],"name":[{"family":"NUMERStrat1Pass","given":["MultipleEnc1NumerPass1NumerFail"]}],"gender":"male","birthDate":"2011-01-01"},"request":{"method":"PUT","url":"Patient/3302c6ff-8767-4be7-9c81-f1d98351b247"}},{"fullUrl":"https://madie.cms.gov/Encounter/10dbdb44-ac73-4ca4-96f9-b33e10dcfeb0","resource":{"resourceType":"Encounter","id":"10dbdb44-ac73-4ca4-96f9-b33e10dcfeb0","meta":{"profile":["http://hl7.org/fhir/us/qicore/StructureDefinition/qicore-encounter"]},"status":"finished","class":{"system":"http://terminology.hl7.org/CodeSystem/v3-ActCode","code":"EMER","display":"emergency department"},"type":[{"coding":[{"system":"http://snomed.info/sct","version":"2023-09","code":"4525004","display":"Emergency department patient visit (procedure)","userSelected":true}]}],"subject":{"reference":"Patient/3302c6ff-8767-4be7-9c81-f1d98351b247"},"period":{"start":"2027-05-01T06:00:00.000+00:00","end":"2027-05-01T14:00:00.000+00:00"},"diagnosis":[{"condition":{"reference":"Condition/2f1bc426-b3f0-4e3b-a278-f9b8e49a47ed"},"use":{"coding":[{"system":"http://terminology.hl7.org/CodeSystem/diagnosis-role","code":"billing"}]},"rank":1}],"location":[{"location":{"reference":"Location/0e840bb5-b883-44a2-9328-e6bbb98d8778"},"period":{"start":"2027-05-01T06:00:00.000+00:00","end":"2027-05-01T14:00:00.000+00:00"}}]},"request":{"method":"PUT","url":"Encounter/10dbdb44-ac73-4ca4-96f9-b33e10dcfeb0"}},{"fullUrl":"https://madie.cms.gov/Encounter/0ae3734a-22ea-4d61-ae81-4257cdf73df7","resource":{"resourceType":"Encounter","id":"0ae3734a-22ea-4d61-ae81-4257cdf73df7","meta":{"profile":["http://hl7.org/fhir/us/qicore/StructureDefinition/qicore-encounter"]},"status":"finished","class":{"system":"http://terminology.hl7.org/CodeSystem/v3-ActCode","code":"EMER","display":"emergency department"},"type":[{"coding":[{"system":"http://snomed.info/sct","version":"2023-09","code":"4525004","display":"Emergency department patient visit (procedure)","userSelected":true}]}],"subject":{"reference":"Patient/3302c6ff-8767-4be7-9c81-f1d98351b247"},"period":{"start":"2027-04-01T06:00:00.000+00:00","end":"2027-04-01T14:01:00.000+00:00"},"diagnosis":[{"condition":{"reference":"Condition/2f1bc426-b3f0-4e3b-a278-f9b8e49a47ed"},"use":{"coding":[{"system":"http://terminology.hl7.org/CodeSystem/diagnosis-role","code":"billing"}]},"rank":1}],"location":[{"location":{"reference":"Location/0e840bb5-b883-44a2-9328-e6bbb98d8778"},"period":{"start":"2027-04-01T06:00:00.000+00:00","end":"2027-04-01T14:01:00.000+00:00"}}]},"request":{"method":"PUT","url":"Encounter/0ae3734a-22ea-4d61-ae81-4257cdf73df7"}},{"fullUrl":"https://madie.cms.gov/Condition/2f1bc426-b3f0-4e3b-a278-f9b8e49a47ed","resource":{"resourceType":"Condition","id":"2f1bc426-b3f0-4e3b-a278-f9b8e49a47ed","meta":{"profile":["http://hl7.org/fhir/us/qicore/StructureDefinition/qicore-condition-encounter-diagnosis"]},"category":[{"coding":[{"system":"http://terminology.hl7.org/CodeSystem/condition-category","code":"encounter-diagnosis","display":"Encounter Diagnosis"}]}],"code":{"coding":[{"system":"http://snomed.info/sct","version":"2023-09","code":"10660471000119109","display":"Ulcer of left foot due to type 2 diabetes mellitus (disorder)","userSelected":true}]},"subject":{"reference":"Patient/3302c6ff-8767-4be7-9c81-f1d98351b247"},"recordedDate":"2027-05-01T08:00:00.000+00:00"},"request":{"method":"PUT","url":"Condition/2f1bc426-b3f0-4e3b-a278-f9b8e49a47ed"}},{"fullUrl":"https://madie.cms.gov/Location/0e840bb5-b883-44a2-9328-e6bbb98d8778","resource":{"resourceType":"Location","id":"0e840bb5-b883-44a2-9328-e6bbb98d8778","meta":{"profile":["http://hl7.org/fhir/us/qicore/StructureDefinition/qicore-location"]},"identifier":[{"use":"usual","system":"http://exampleoflocation.com","value":"B1-S.F2"}],"name":"Medical Surgical East, first floor","type":[{"coding":[{"system":"https://www.cdc.gov/nhsn/cdaportal/terminology/codesystem/hsloc.html","version":"2022","code":"1108-0","display":"Emergency Department","userSelected":true}]}]},"request":{"method":"PUT","url":"Location/0e840bb5-b883-44a2-9328-e6bbb98d8778"}},{"fullUrl":"https://madie.cms.gov/claim/ClaimBehavior-NotSubsAbuse","resource":{"resourceType":"Claim","id":"ClaimBehavior-NotSubsAbuse","meta":{"profile":["http://hl7.org/fhir/us/qicore/StructureDefinition/qicore-claim"]},"status":"active","type":{"coding":[{"system":"http://terminology.hl7.org/CodeSystem/claim-type","code":"institutional"}]},"use":"claim","patient":{"reference":"Patient/3302c6ff-8767-4be7-9c81-f1d98351b247"},"created":"2027-05-01","provider":{"reference":"Practitioner/practitioner-123456"},"priority":{"coding":[{"system":"http://terminology.hl7.org/CodeSystem/processpriority","code":"normal"}]},"diagnosis":[{"sequence":1,"diagnosisReference":{"reference":"Condition/2f1bc426-b3f0-4e3b-a278-f9b8e49a47ed"},"type":[{"coding":[{"system":"http://terminology.hl7.org/CodeSystem/ex-diagnosistype","code":"principal"}]}]}],"insurance":[{"sequence":1,"focal":true,"coverage":{"reference":"Coverage/1"}}],"item":[{"sequence":1,"diagnosisSequence":[1],"productOrService":{"coding":[{"system":"http://terminology.hl7.org/CodeSystem/ex-USCLS","code":"99555"}]},"encounter":[{"reference":"Encounter/10dbdb44-ac73-4ca4-96f9-b33e10dcfeb0"}]}]},"request":{"method":"PUT","url":"Claim/ClaimBehavior-NotSubsAbuse"}},{"fullUrl":"https://madie.cms.gov/claim/ClaimBehavior-NotSubsAbuse2","resource":{"resourceType":"Claim","id":"ClaimBehavior-NotSubsAbuse2","meta":{"profile":["http://hl7.org/fhir/us/qicore/StructureDefinition/qicore-claim"]},"status":"active","type":{"coding":[{"system":"http://terminology.hl7.org/CodeSystem/claim-type","code":"institutional"}]},"use":"claim","patient":{"reference":"Patient/3302c6ff-8767-4be7-9c81-f1d98351b247"},"created":"2027-05-01","provider":{"reference":"Practitioner/practitioner-123456"},"priority":{"coding":[{"system":"http://terminology.hl7.org/CodeSystem/processpriority","code":"normal"}]},"diagnosis":[{"sequence":1,"diagnosisReference":{"reference":"Condition/2f1bc426-b3f0-4e3b-a278-f9b8e49a47ed"},"type":[{"coding":[{"system":"http://terminology.hl7.org/CodeSystem/ex-diagnosistype","code":"principal"}]}]}],"insurance":[{"sequence":1,"focal":true,"coverage":{"reference":"Coverage/1"}}],"item":[{"sequence":1,"diagnosisSequence":[1],"productOrService":{"coding":[{"system":"http://terminology.hl7.org/CodeSystem/ex-USCLS","code":"99555"}]},"encounter":[{"reference":"Encounter/0ae3734a-22ea-4d61-ae81-4257cdf73df7"}]}]},"request":{"method":"PUT","url":"Claim/ClaimBehavior-NotSubsAbuse2"}},{"fullUrl":"https://madie.cms.gov/Coverage/4dfd575b-a7dc-44d9-861b-1bd98a141fed","resource":{"resourceType":"Coverage","id":"4dfd575b-a7dc-44d9-861b-1bd98a141fed","meta":{"profile":["http://hl7.org/fhir/us/qicore/StructureDefinition/qicore-coverage"]},"identifier":[{"type":{"coding":[{"system":"http://terminology.hl7.org/CodeSystem/v2-0203","code":"MB"}]}}],"status":"active","beneficiary":{"reference":"Patient/3302c6ff-8767-4be7-9c81-f1d98351b247"},"relationship":{"coding":[{"system":"http://terminology.hl7.org/CodeSystem/subscriber-relationship","code":"self"}]},"payor":[{"reference":"Organization/67bda315-0f76-46b9-a14c-3fbe7284ec2f"}]},"request":{"method":"PUT","url":"Coverage/4dfd575b-a7dc-44d9-861b-1bd98a141fed"}},{"fullUrl":"https://madie.cms.gov/Organization/67bda315-0f76-46b9-a14c-3fbe7284ec2f","resource":{"resourceType":"Organization","id":"67bda315-0f76-46b9-a14c-3fbe7284ec2f","meta":{"profile":["http://hl7.org/fhir/us/qicore/StructureDefinition/qicore-organization"]},"identifier":[{"use":"temp","system":"urn:oid:2.16.840.1.113883.4.4","value":"21-3259825"}],"active":true,"type":[{"coding":[{"system":"http://terminology.hl7.org/CodeSystem/organization-type","code":"pay","display":"Payer"}]}],"name":"Blue Cross Blue Shield of Texas","telecom":[{"system":"phone","value":"(+1) 972-766-6900"}],"address":[{"use":"billing","type":"postal","line":["P.O. Box 660044"],"city":"Dallas","state":"TX","postalCode":"75266-0044","country":"USA"}]},"request":{"method":"PUT","url":"Organization/67bda315-0f76-46b9-a14c-3fbe7284ec2f"}},{"fullUrl":"https://madie.cms.gov/Practitioner/5d16db7a-4094-4a07-a94a-6f9c4e3e0e59","resource":{"resourceType":"Practitioner","id":"5d16db7a-4094-4a07-a94a-6f9c4e3e0e59","meta":{"profile":["http://hl7.org/fhir/us/qicore/StructureDefinition/qicore-practitioner"]},"identifier":[{"system":"http://hl7.org/fhir/sid/us-npi","value":"9999999896"}],"name":[{"family":"Evil","prefix":["Dr"]}]},"request":{"method":"PUT","url":"Practitioner/5d16db7a-4094-4a07-a94a-6f9c4e3e0e59"}},{"fullUrl":"https://madie.cms.gov/MeasureReport/e06a717a-1f75-405f-a1dc-7ad5c262c8d6","resource":{"resourceType":"MeasureReport","id":"e06a717a-1f75-405f-a1dc-7ad5c262c8d6","meta":{"profile":["http://hl7.org/fhir/us/cqfmeasures/StructureDefinition/test-case-cqfm"]},"contained":[{"resourceType":"Parameters","id":"ff017fa2-96c5-45df-9155-62e376873cb1-parameters","parameter":[{"name":"subject","valueString":"3302c6ff-8767-4be7-9c81-f1d98351b247"}]}],"extension":[{"url":"http://hl7.org/fhir/StructureDefinition/cqf-inputParameters","valueReference":{"reference":"#ff017fa2-96c5-45df-9155-62e376873cb1-parameters"}},{"url":"http://hl7.org/fhir/us/cqfmeasures/StructureDefinition/cqfm-testCaseDescription","valueMarkdown":"Encounter in January 240 minutes fails numerator, encounter in April 241 minutes passes numerator.  Adolescent, no mental health diagnosis."}],"modifierExtension":[{"url":"http://hl7.org/fhir/us/cqfmeasures/StructureDefinition/cqfm-isTestCase","valueBoolean":true}],"status":"complete","type":"individual","measure":"https://madie.cms.gov/Measure/CMS1264FHIRECATREHQR","period":{"start":"2027-01-01","end":"2027-12-31"},"group":[{"id":"Group_1","population":[{"id":"InitialPopulation_1","code":{"coding":[{"system":"http://terminology.hl7.org/CodeSystem/measure-population","code":"initial-population","display":"Initial Population"}]},"count":2},{"id":"Denominator_1","code":{"coding":[{"system":"http://terminology.hl7.org/CodeSystem/measure-population","code":"denominator","display":"Denominator"}]},"count":2},{"id":"Numerator_1","code":{"coding":[{"system":"http://terminology.hl7.org/CodeSystem/measure-population","code":"numerator","display":"Numerator"}]},"count":1}],"measureScore":{"value":0.0},"stratifier":[{"id":"Stratification_1_1","code":[{"text":"Strata-1"}],"stratum":[{"value":{"text":"Strata-1"},"population":[{"id":"InitialPopulation_1","code":{"coding":[{"system":"http://terminology.hl7.org/CodeSystem/measure-population","code":"initial-population","display":"Initial Population"}]},"count":2},{"id":"Denominator_1","code":{"coding":[{"system":"http://terminology.hl7.org/CodeSystem/measure-population","code":"denominator","display":"Denominator"}]},"count":2},{"id":"Numerator_1","code":{"coding":[{"system":"http://terminology.hl7.org/CodeSystem/measure-population","code":"numerator","display":"Numerator"}]},"count":1}]}]},{"id":"Stratification_1_2","code":[{"text":"Strata-2"}],"stratum":[{"value":{"text":"Strata-2"},"population":[{"id":"InitialPopulation_1","code":{"coding":[{"system":"http://terminology.hl7.org/CodeSystem/measure-population","code":"initial-population","display":"Initial Population"}]},"count":0},{"id":"Denominator_1","code":{"coding":[{"system":"http://terminology.hl7.org/CodeSystem/measure-population","code":"denominator","display":"Denominator"}]},"count":0},{"id":"Numerator_1","code":{"coding":[{"system":"http://terminology.hl7.org/CodeSystem/measure-population","code":"numerator","display":"Numerator"}]},"count":0}]}]},{"id":"Stratification_1_3","code":[{"text":"Strata-3"}],"stratum":[{"value":{"text":"Strata-3"},"population":[{"id":"InitialPopulation_1","code":{"coding":[{"system":"http://terminology.hl7.org/CodeSystem/measure-population","code":"initial-population","display":"Initial Population"}]},"count":0},{"id":"Denominator_1","code":{"coding":[{"system":"http://terminology.hl7.org/CodeSystem/measure-population","code":"denominator","display":"Denominator"}]},"count":0},{"id":"Numerator_1","code":{"coding":[{"system":"http://terminology.hl7.org/CodeSystem/measure-population","code":"numerator","display":"Numerator"}]},"count":0}]}]},{"id":"Stratification_1_4","code":[{"text":"Strata-4"}],"stratum":[{"value":{"text":"Strata-4"},"population":[{"id":"InitialPopulation_1","code":{"coding":[{"system":"http://terminology.hl7.org/CodeSystem/measure-population","code":"initial-population","display":"Initial Population"}]},"count":0},{"id":"Denominator_1","code":{"coding":[{"system":"http://terminology.hl7.org/CodeSystem/measure-population","code":"denominator","display":"Denominator"}]},"count":0},{"id":"Numerator_1","code":{"coding":[{"system":"http://terminology.hl7.org/CodeSystem/measure-population","code":"numerator","display":"Numerator"}]},"count":0}]}]}]}],"evaluatedResource":[{"reference":"Patient/3302c6ff-8767-4be7-9c81-f1d98351b247"},{"reference":"Encounter/10dbdb44-ac73-4ca4-96f9-b33e10dcfeb0"},{"reference":"Encounter/0ae3734a-22ea-4d61-ae81-4257cdf73df7"},{"reference":"Condition/2f1bc426-b3f0-4e3b-a278-f9b8e49a47ed"},{"reference":"Location/0e840bb5-b883-44a2-9328-e6bbb98d8778"},{"reference":"Claim/ClaimBehavior-NotSubsAbuse"},{"reference":"Claim/ClaimBehavior-NotSubsAbuse2"},{"reference":"Coverage/4dfd575b-a7dc-44d9-861b-1bd98a141fed"},{"reference":"Organization/67bda315-0f76-46b9-a14c-3fbe7284ec2f"},{"reference":"Practitioner/5d16db7a-4094-4a07-a94a-6f9c4e3e0e59"}]},"request":{"method":"PUT","url":"MeasureReport/e06a717a-1f75-405f-a1dc-7ad5c262c8d6"}}]},"request":{"method":"PUT","url":"Bundle/661476b015ed5841a5547ebf"}},{"fullUrl":"Organization/67bda315-0f76-46b9-a14c-3fbe7284ec2f","resource":{"resourceType":"Organization","id":"67bda315-0f76-46b9-a14c-3fbe7284ec2f","meta":{"profile":["http://hl7.org/fhir/us/qicore/StructureDefinition/qicore-organization"]},"identifier":[{"use":"temp","system":"urn:oid:2.16.840.1.113883.4.4","value":"21-3259825"}],"active":true,"type":[{"coding":[{"system":"http://terminology.hl7.org/CodeSystem/organization-type","code":"pay","display":"Payer"}]}],"name":"Blue Cross Blue Shield of Texas","telecom":[{"system":"phone","value":"(+1) 972-766-6900"}],"address":[{"use":"billing","type":"postal","line":["P.O. Box 660044"],"city":"Dallas","state":"TX","postalCode":"75266-0044","country":"USA"}]},"request":{"method":"PUT","url":"Organization/67bda315-0f76-46b9-a14c-3fbe7284ec2f"}},{"fullUrl":"Location/0e840bb5-b883-44a2-9328-e6bbb98d8778","resource":{"resourceType":"Location","id":"0e840bb5-b883-44a2-9328-e6bbb98d8778","meta":{"profile":["http://hl7.org/fhir/us/qicore/StructureDefinition/qicore-location"]},"identifier":[{"use":"usual","system":"http://exampleoflocation.com","value":"B1-S.F2"}],"name":"Medical Surgical East, first floor","type":[{"coding":[{"system":"https://www.cdc.gov/nhsn/cdaportal/terminology/codesystem/hsloc.html","version":"2022","code":"1108-0","display":"Emergency Department","userSelected":true}]}]},"request":{"method":"PUT","url":"Location/0e840bb5-b883-44a2-9328-e6bbb98d8778"}},{"fullUrl":"Patient/3302c6ff-8767-4be7-9c81-f1d98351b247","resource":{"resourceType":"Patient","id":"3302c6ff-8767-4be7-9c81-f1d98351b247","meta":{"profile":["http://hl7.org/fhir/us/qicore/StructureDefinition/qicore-patient"]},"extension":[{"url":"http://hl7.org/fhir/us/core/StructureDefinition/us-core-race","extension":[{"url":"ombCategory","valueCoding":{"system":"urn:oid:2.16.840.1.113883.6.238","code":"1002-5","display":"American Indian or Alaska Native","userSelected":true}},{"url":"text","valueString":"American Indian or Alaska Native"}]},{"url":"http://hl7.org/fhir/us/core/StructureDefinition/us-core-ethnicity","extension":[{"url":"ombCategory","valueCoding":{"system":"urn:oid:2.16.840.1.113883.6.238","code":"2135-2","display":"Hispanic or Latino","userSelected":true}},{"url":"text","valueString":"Hispanic or Latino"}]},{"url":"http://hl7.org/fhir/us/core/StructureDefinition/us-core-sex","valueCode":"248153007"}],"identifier":[{"type":{"coding":[{"system":"http://terminology.hl7.org/CodeSystem/v2-0203","code":"MR"}]},"system":"https://bonnie-fhir.healthit.gov/","value":"661476b015ed5841a5547ebf"}],"name":[{"family":"NUMERStrat1Pass","given":["MultipleEnc1NumerPass1NumerFail"]}],"gender":"male","birthDate":"2011-01-01"},"request":{"method":"PUT","url":"Patient/3302c6ff-8767-4be7-9c81-f1d98351b247"}},{"fullUrl":"Practitioner/5d16db7a-4094-4a07-a94a-6f9c4e3e0e59","resource":{"resourceType":"Practitioner","id":"5d16db7a-4094-4a07-a94a-6f9c4e3e0e59","meta":{"profile":["http://hl7.org/fhir/us/qicore/StructureDefinition/qicore-practitioner"]},"identifier":[{"system":"http://hl7.org/fhir/sid/us-npi","value":"9999999896"}],"name":[{"family":"Evil","prefix":["Dr"]}]},"request":{"method":"PUT","url":"Practitioner/5d16db7a-4094-4a07-a94a-6f9c4e3e0e59"}},{"fullUrl":"Claim/ClaimBehavior-NotSubsAbuse","resource":{"resourceType":"Claim","id":"ClaimBehavior-NotSubsAbuse","meta":{"profile":["http://hl7.org/fhir/us/qicore/StructureDefinition/qicore-claim"]},"status":"active","type":{"coding":[{"system":"http://terminology.hl7.org/CodeSystem/claim-type","code":"institutional"}]},"use":"claim","patient":{"reference":"Patient/3302c6ff-8767-4be7-9c81-f1d98351b247"},"created":"2027-05-01","provider":{"reference":"Practitioner/practitioner-123456"},"priority":{"coding":[{"system":"http://terminology.hl7.org/CodeSystem/processpriority","code":"normal"}]},"diagnosis":[{"sequence":1,"diagnosisReference":{"reference":"Condition/2f1bc426-b3f0-4e3b-a278-f9b8e49a47ed"},"type":[{"coding":[{"system":"http://terminology.hl7.org/CodeSystem/ex-diagnosistype","code":"principal"}]}]}],"insurance":[{"sequence":1,"focal":true,"coverage":{"reference":"Coverage/1"}}],"item":[{"sequence":1,"diagnosisSequence":[1],"productOrService":{"coding":[{"system":"http://terminology.hl7.org/CodeSystem/ex-USCLS","code":"99555"}]},"encounter":[{"reference":"Encounter/10dbdb44-ac73-4ca4-96f9-b33e10dcfeb0"}]}]},"request":{"method":"PUT","url":"Claim/ClaimBehavior-NotSubsAbuse"}},{"fullUrl":"Condition/2f1bc426-b3f0-4e3b-a278-f9b8e49a47ed","resource":{"resourceType":"Condition","id":"2f1bc426-b3f0-4e3b-a278-f9b8e49a47ed","meta":{"profile":["http://hl7.org/fhir/us/qicore/StructureDefinition/qicore-condition-encounter-diagnosis"]},"category":[{"coding":[{"system":"http://terminology.hl7.org/CodeSystem/condition-category","code":"encounter-diagnosis","display":"Encounter Diagnosis"}]}],"code":{"coding":[{"system":"http://snomed.info/sct","version":"2023-09","code":"10660471000119109","display":"Ulcer of left foot due to type 2 diabetes mellitus (disorder)","userSelected":true}]},"subject":{"reference":"Patient/3302c6ff-8767-4be7-9c81-f1d98351b247"},"recordedDate":"2027-05-01T08:00:00.000+00:00"},"request":{"method":"PUT","url":"Condition/2f1bc426-b3f0-4e3b-a278-f9b8e49a47ed"}}]}