{"resourceType":"Bundle","id":"tests-7698942f-4fca-43dd-8457-6b80cd517566-bundle","type":"transaction","entry":[{"resource":{"resourceType":"MeasureReport","id":"88608fc0-0254-46e5-89ec-54c95173e981","meta":{"profile":["http://hl7.org/fhir/us/cqfmeasures/StructureDefinition/test-case-cqfm"]},"contained":[{"resourceType":"Parameters","id":"b3faeebc-9c04-4acf-990f-458caaa1dfbd-parameters","parameter":[{"name":"subject","valueString":"7698942f-4fca-43dd-8457-6b80cd517566"}]}],"extension":[{"url":"http://hl7.org/fhir/StructureDefinition/cqf-inputParameters","valueReference":{"reference":"#b3faeebc-9c04-4acf-990f-458caaa1dfbd-parameters"}},{"url":"http://hl7.org/fhir/us/cqfmeasures/StructureDefinition/cqfm-testCaseDescription","valueMarkdown":"Patient has dementia Dx and 2 encounters but one without a start date"}],"modifierExtension":[{"url":"http://hl7.org/fhir/us/cqfmeasures/StructureDefinition/cqfm-isTestCase","valueBoolean":true}],"status":"complete","type":"individual","measure":"https://madie.cms.gov/Measure/CMS149FHIRDementiaCognitiveAssessment","period":{"start":"2026-01-01","end":"2026-12-31"},"group":[{"id":"Group_1","population":[{"id":"InitialPopulation_1","code":{"coding":[{"system":"http://terminology.hl7.org/CodeSystem/measure-population","code":"initial-population","display":"Initial Population"}]},"count":0},{"id":"Denominator_1","code":{"coding":[{"system":"http://terminology.hl7.org/CodeSystem/measure-population","code":"denominator","display":"Denominator"}]},"count":0},{"id":"Numerator_1","code":{"coding":[{"system":"http://terminology.hl7.org/CodeSystem/measure-population","code":"numerator","display":"Numerator"}]},"count":0},{"id":"DenominatorException_1","code":{"coding":[{"system":"http://terminology.hl7.org/CodeSystem/measure-population","code":"denominator-exception","display":"Denominator Exception"}]},"count":0}],"measureScore":{"value":1.0}}],"evaluatedResource":[{"reference":"Patient/7698942f-4fca-43dd-8457-6b80cd517566"},{"reference":"Condition/98c1fc56-c79e-411e-86ab-5c0b13a070f6"},{"reference":"Encounter/0a24ba9d-806c-4b80-89fb-1d77090c85b2"},{"reference":"Encounter/0a5b8405-72e0-4c69-ba77-a9ceffc988f1"}]},"request":{"method":"PUT","url":"MeasureReport/88608fc0-0254-46e5-89ec-54c95173e981"}},{"resource":{"resourceType":"Condition","id":"98c1fc56-c79e-411e-86ab-5c0b13a070f6","meta":{"profile":["http://hl7.org/fhir/us/qicore/StructureDefinition/qicore-condition-problems-health-concerns"]},"clinicalStatus":{"coding":[{"system":"http://terminology.hl7.org/CodeSystem/condition-clinical","code":"active","display":"Active","userSelected":true}]},"verificationStatus":{"coding":[{"system":"http://terminology.hl7.org/CodeSystem/condition-ver-status","code":"confirmed","display":"Confirmed","userSelected":true}]},"category":[{"coding":[{"system":"http://terminology.hl7.org/CodeSystem/condition-category","code":"encounter-diagnosis","display":"Encounter Diagnosis","userSelected":true}]}],"code":{"coding":[{"system":"http://snomed.info/sct","version":"http://snomed.info/sct/731000124108/version/20230301","code":"12348006","display":"Presenile dementia (disorder)"}]},"subject":{"reference":"Patient/7698942f-4fca-43dd-8457-6b80cd517566"},"onsetPeriod":{"start":"2024-12-31T08:00:00.000+00:00"}},"request":{"method":"PUT","url":"Condition/98c1fc56-c79e-411e-86ab-5c0b13a070f6"}},{"resource":{"resourceType":"Encounter","id":"0a24ba9d-806c-4b80-89fb-1d77090c85b2","meta":{"profile":["http://hl7.org/fhir/us/qicore/StructureDefinition/qicore-encounter"]},"status":"finished","class":{"system":"http://terminology.hl7.org/CodeSystem/v3-ActCode","code":"AMB","display":"ambulatory","userSelected":true},"type":[{"coding":[{"system":"http://www.ama-assn.org/go/cpt","version":"2023","code":"99212","userSelected":true}]}],"subject":{"reference":"Patient/7698942f-4fca-43dd-8457-6b80cd517566"},"period":{"start":"2026-02-26T08:00:00.000+00:00"}},"request":{"method":"PUT","url":"Encounter/0a24ba9d-806c-4b80-89fb-1d77090c85b2"}},{"resource":{"resourceType":"Bundle","id":"64270cbea7ffa60ebe02488f","type":"transaction","entry":[{"fullUrl":"https://madie.cms.gov/Patient/7698942f-4fca-43dd-8457-6b80cd517566","resource":{"resourceType":"Patient","id":"7698942f-4fca-43dd-8457-6b80cd517566","meta":{"profile":["http://hl7.org/fhir/us/qicore/StructureDefinition/qicore-patient"]},"extension":[{"url":"http://hl7.org/fhir/us/core/StructureDefinition/us-core-race","extension":[{"url":"ombCategory","valueCoding":{"system":"urn:oid:2.16.840.1.113883.6.238","code":"2028-9","display":"Asian","userSelected":true}},{"url":"text","valueString":"Asian"}]},{"url":"http://hl7.org/fhir/us/core/StructureDefinition/us-core-ethnicity","extension":[{"url":"ombCategory","valueCoding":{"system":"urn:oid:2.16.840.1.113883.6.238","code":"2135-2","display":"Hispanic or Latino","userSelected":true}},{"url":"text","valueString":"Hispanic or Latino"}]}],"identifier":[{"type":{"coding":[{"system":"http://terminology.hl7.org/CodeSystem/v2-0203","code":"MR"}]},"system":"https://goodhealth.healthit.gov/","value":"64270cbea7ffa60ebe02488f"}],"name":[{"family":"IPPass","given":["EncounterHasNoStartDate"]}],"gender":"male","birthDate":"1977-01-01"},"request":{"method":"PUT","url":"Patient/7698942f-4fca-43dd-8457-6b80cd517566"}},{"fullUrl":"https://madie.cms.gov/Condition/98c1fc56-c79e-411e-86ab-5c0b13a070f6","resource":{"resourceType":"Condition","id":"98c1fc56-c79e-411e-86ab-5c0b13a070f6","meta":{"profile":["http://hl7.org/fhir/us/qicore/StructureDefinition/qicore-condition-problems-health-concerns"]},"clinicalStatus":{"coding":[{"system":"http://terminology.hl7.org/CodeSystem/condition-clinical","code":"active","display":"Active","userSelected":true}]},"verificationStatus":{"coding":[{"system":"http://terminology.hl7.org/CodeSystem/condition-ver-status","code":"confirmed","display":"Confirmed","userSelected":true}]},"category":[{"coding":[{"system":"http://terminology.hl7.org/CodeSystem/condition-category","code":"encounter-diagnosis","display":"Encounter Diagnosis","userSelected":true}]}],"code":{"coding":[{"system":"http://snomed.info/sct","version":"http://snomed.info/sct/731000124108/version/20230301","code":"12348006","display":"Presenile dementia (disorder)"}]},"subject":{"reference":"Patient/7698942f-4fca-43dd-8457-6b80cd517566"},"onsetPeriod":{"start":"2024-12-31T08:00:00.000+00:00"}},"request":{"method":"PUT","url":"Condition/98c1fc56-c79e-411e-86ab-5c0b13a070f6"}},{"fullUrl":"https://madie.cms.gov/Encounter/0a24ba9d-806c-4b80-89fb-1d77090c85b2","resource":{"resourceType":"Encounter","id":"0a24ba9d-806c-4b80-89fb-1d77090c85b2","meta":{"profile":["http://hl7.org/fhir/us/qicore/StructureDefinition/qicore-encounter"]},"status":"finished","class":{"system":"http://terminology.hl7.org/CodeSystem/v3-ActCode","code":"AMB","display":"ambulatory","userSelected":true},"type":[{"coding":[{"system":"http://www.ama-assn.org/go/cpt","version":"2023","code":"99212","userSelected":true}]}],"subject":{"reference":"Patient/7698942f-4fca-43dd-8457-6b80cd517566"},"period":{"start":"2026-02-26T08:00:00.000+00:00"}},"request":{"method":"PUT","url":"Encounter/0a24ba9d-806c-4b80-89fb-1d77090c85b2"}},{"fullUrl":"https://madie.cms.gov/Encounter/0a5b8405-72e0-4c69-ba77-a9ceffc988f1","resource":{"resourceType":"Encounter","id":"0a5b8405-72e0-4c69-ba77-a9ceffc988f1","meta":{"profile":["http://hl7.org/fhir/us/qicore/StructureDefinition/qicore-encounter"]},"status":"finished","class":{"system":"http://terminology.hl7.org/CodeSystem/v3-ActCode","code":"AMB","display":"ambulatory","userSelected":true},"type":[{"coding":[{"system":"http://www.ama-assn.org/go/cpt","version":"2023","code":"96116"}]}],"subject":{"reference":"Patient/7698942f-4fca-43dd-8457-6b80cd517566"},"period":{"end":"2026-08-31T08:35:00.000+00:00"}},"request":{"method":"PUT","url":"Encounter/0a5b8405-72e0-4c69-ba77-a9ceffc988f1"}},{"fullUrl":"https://madie.cms.gov/MeasureReport/88608fc0-0254-46e5-89ec-54c95173e981","resource":{"resourceType":"MeasureReport","id":"88608fc0-0254-46e5-89ec-54c95173e981","meta":{"profile":["http://hl7.org/fhir/us/cqfmeasures/StructureDefinition/test-case-cqfm"]},"contained":[{"resourceType":"Parameters","id":"b3faeebc-9c04-4acf-990f-458caaa1dfbd-parameters","parameter":[{"name":"subject","valueString":"7698942f-4fca-43dd-8457-6b80cd517566"}]}],"extension":[{"url":"http://hl7.org/fhir/StructureDefinition/cqf-inputParameters","valueReference":{"reference":"#b3faeebc-9c04-4acf-990f-458caaa1dfbd-parameters"}},{"url":"http://hl7.org/fhir/us/cqfmeasures/StructureDefinition/cqfm-testCaseDescription","valueMarkdown":"Patient has dementia Dx and 2 encounters but one without a start date"}],"modifierExtension":[{"url":"http://hl7.org/fhir/us/cqfmeasures/StructureDefinition/cqfm-isTestCase","valueBoolean":true}],"status":"complete","type":"individual","measure":"https://madie.cms.gov/Measure/CMS149FHIRDementiaCognitiveAssessment","period":{"start":"2026-01-01","end":"2026-12-31"},"group":[{"id":"Group_1","population":[{"id":"InitialPopulation_1","code":{"coding":[{"system":"http://terminology.hl7.org/CodeSystem/measure-population","code":"initial-population","display":"Initial Population"}]},"count":0},{"id":"Denominator_1","code":{"coding":[{"system":"http://terminology.hl7.org/CodeSystem/measure-population","code":"denominator","display":"Denominator"}]},"count":0},{"id":"Numerator_1","code":{"coding":[{"system":"http://terminology.hl7.org/CodeSystem/measure-population","code":"numerator","display":"Numerator"}]},"count":0},{"id":"DenominatorException_1","code":{"coding":[{"system":"http://terminology.hl7.org/CodeSystem/measure-population","code":"denominator-exception","display":"Denominator Exception"}]},"count":0}],"measureScore":{"value":1.0}}],"evaluatedResource":[{"reference":"Patient/7698942f-4fca-43dd-8457-6b80cd517566"},{"reference":"Condition/98c1fc56-c79e-411e-86ab-5c0b13a070f6"},{"reference":"Encounter/0a24ba9d-806c-4b80-89fb-1d77090c85b2"},{"reference":"Encounter/0a5b8405-72e0-4c69-ba77-a9ceffc988f1"}]},"request":{"method":"PUT","url":"MeasureReport/88608fc0-0254-46e5-89ec-54c95173e981"}}]},"request":{"method":"PUT","url":"Bundle/64270cbea7ffa60ebe02488f"}},{"resource":{"resourceType":"Encounter","id":"0a5b8405-72e0-4c69-ba77-a9ceffc988f1","meta":{"profile":["http://hl7.org/fhir/us/qicore/StructureDefinition/qicore-encounter"]},"status":"finished","class":{"system":"http://terminology.hl7.org/CodeSystem/v3-ActCode","code":"AMB","display":"ambulatory","userSelected":true},"type":[{"coding":[{"system":"http://www.ama-assn.org/go/cpt","version":"2023","code":"96116"}]}],"subject":{"reference":"Patient/7698942f-4fca-43dd-8457-6b80cd517566"},"period":{"end":"2026-08-31T08:35:00.000+00:00"}},"request":{"method":"PUT","url":"Encounter/0a5b8405-72e0-4c69-ba77-a9ceffc988f1"}},{"resource":{"resourceType":"Patient","id":"7698942f-4fca-43dd-8457-6b80cd517566","meta":{"profile":["http://hl7.org/fhir/us/qicore/StructureDefinition/qicore-patient"]},"extension":[{"url":"http://hl7.org/fhir/us/core/StructureDefinition/us-core-race","extension":[{"url":"ombCategory","valueCoding":{"system":"urn:oid:2.16.840.1.113883.6.238","code":"2028-9","display":"Asian","userSelected":true}},{"url":"text","valueString":"Asian"}]},{"url":"http://hl7.org/fhir/us/core/StructureDefinition/us-core-ethnicity","extension":[{"url":"ombCategory","valueCoding":{"system":"urn:oid:2.16.840.1.113883.6.238","code":"2135-2","display":"Hispanic or Latino","userSelected":true}},{"url":"text","valueString":"Hispanic or Latino"}]}],"identifier":[{"type":{"coding":[{"system":"http://terminology.hl7.org/CodeSystem/v2-0203","code":"MR"}]},"system":"https://goodhealth.healthit.gov/","value":"64270cbea7ffa60ebe02488f"}],"name":[{"family":"IPPass","given":["EncounterHasNoStartDate"]}],"gender":"male","birthDate":"1977-01-01"},"request":{"method":"PUT","url":"Patient/7698942f-4fca-43dd-8457-6b80cd517566"}}]}