{"resourceType":"Bundle","id":"tests-49997661-cfa3-4554-9d30-18dbb589d95c-bundle","type":"transaction","entry":[{"resource":{"resourceType":"Patient","id":"49997661-cfa3-4554-9d30-18dbb589d95c","meta":{"profile":["http://hl7.org/fhir/us/qicore/StructureDefinition/qicore-patient"]},"extension":[{"url":"http://hl7.org/fhir/us/core/StructureDefinition/us-core-race","extension":[{"url":"ombCategory","valueCoding":{"system":"urn:oid:2.16.840.1.113883.6.238","code":"2054-5","display":"Black or African American","userSelected":true}},{"url":"text","valueString":"Black or African American"}]},{"url":"http://hl7.org/fhir/us/core/StructureDefinition/us-core-ethnicity","extension":[{"url":"ombCategory","valueCoding":{"system":"urn:oid:2.16.840.1.113883.6.238","code":"2186-5","display":"Not Hispanic or Latino","userSelected":true}},{"url":"text","valueString":"Not Hispanic or Latino"}]}],"identifier":[{"type":{"coding":[{"system":"http://terminology.hl7.org/CodeSystem/v2-0203","code":"MR"}]},"system":"https://goodhealth.com/","value":"610d828c37a47d6ac0116a13"}],"name":[{"family":"DENEXCEPPass","given":["AssessmentNotDonePatientReason"]}],"gender":"male","birthDate":"1976-01-10"},"request":{"method":"PUT","url":"Patient/49997661-cfa3-4554-9d30-18dbb589d95c"}},{"resource":{"resourceType":"Bundle","id":"610d828c37a47d6ac0116a13","type":"transaction","entry":[{"fullUrl":"https://madie.cms.gov/Patient/49997661-cfa3-4554-9d30-18dbb589d95c","resource":{"resourceType":"Patient","id":"49997661-cfa3-4554-9d30-18dbb589d95c","meta":{"profile":["http://hl7.org/fhir/us/qicore/StructureDefinition/qicore-patient"]},"extension":[{"url":"http://hl7.org/fhir/us/core/StructureDefinition/us-core-race","extension":[{"url":"ombCategory","valueCoding":{"system":"urn:oid:2.16.840.1.113883.6.238","code":"2054-5","display":"Black or African American","userSelected":true}},{"url":"text","valueString":"Black or African American"}]},{"url":"http://hl7.org/fhir/us/core/StructureDefinition/us-core-ethnicity","extension":[{"url":"ombCategory","valueCoding":{"system":"urn:oid:2.16.840.1.113883.6.238","code":"2186-5","display":"Not Hispanic or Latino","userSelected":true}},{"url":"text","valueString":"Not Hispanic or Latino"}]}],"identifier":[{"type":{"coding":[{"system":"http://terminology.hl7.org/CodeSystem/v2-0203","code":"MR"}]},"system":"https://goodhealth.com/","value":"610d828c37a47d6ac0116a13"}],"name":[{"family":"DENEXCEPPass","given":["AssessmentNotDonePatientReason"]}],"gender":"male","birthDate":"1976-01-10"},"request":{"method":"PUT","url":"Patient/49997661-cfa3-4554-9d30-18dbb589d95c"}},{"fullUrl":"https://madie.cms.gov/Encounter/653e8fff-2b39-4968-ad8b-13b3d3a8ddc5","resource":{"resourceType":"Encounter","id":"653e8fff-2b39-4968-ad8b-13b3d3a8ddc5","meta":{"profile":["http://hl7.org/fhir/us/qicore/StructureDefinition/qicore-encounter"]},"status":"finished","class":{"system":"http://terminology.hl7.org/CodeSystem/v3-ActCode","code":"AMB","display":"ambulatory","userSelected":true},"type":[{"coding":[{"system":"http://snomed.info/sct","version":"http://snomed.info/sct/731000124108/version/202303","code":"185460008","display":"Home visit request by patient (procedure)","userSelected":true}]}],"subject":{"reference":"Patient/3dc394cd-e73b-4843-8f30-21a545500b24"},"period":{"start":"2026-08-06T08:00:00.000+00:00","end":"2026-08-06T09:00:00.000+00:00"}},"request":{"method":"PUT","url":"Encounter/653e8fff-2b39-4968-ad8b-13b3d3a8ddc5"}},{"fullUrl":"https://madie.cms.gov/Condition/ffe23e3e-f168-4385-afae-d72fe5eab489","resource":{"resourceType":"Condition","id":"ffe23e3e-f168-4385-afae-d72fe5eab489","meta":{"profile":["http://hl7.org/fhir/us/qicore/StructureDefinition/qicore-condition-problems-health-concerns"]},"clinicalStatus":{"coding":[{"system":"http://terminology.hl7.org/CodeSystem/condition-clinical","code":"active","display":"active","userSelected":true}]},"category":[{"coding":[{"system":"http://terminology.hl7.org/CodeSystem/condition-clinical","code":"active","display":"active","userSelected":true}]}],"code":{"coding":[{"system":"http://snomed.info/sct","version":"http://snomed.info/sct/731000124108/version/202303","code":"191451009","display":"Uncomplicated presenile dementia (disorder)","userSelected":true}]},"subject":{"reference":"Patient/3dc394cd-e73b-4843-8f30-21a545500b24"},"onsetDateTime":"2025-05-06T08:00:00.000+00:00","recordedDate":"2025-05-06T08:00:00.000+00:00"},"request":{"method":"PUT","url":"Condition/ffe23e3e-f168-4385-afae-d72fe5eab489"}},{"fullUrl":"https://madie.cms.gov/Encounter/7ee0cfbe-b654-4dad-a4ff-e4db106b2276","resource":{"resourceType":"Encounter","id":"7ee0cfbe-b654-4dad-a4ff-e4db106b2276","meta":{"profile":["http://hl7.org/fhir/us/qicore/StructureDefinition/qicore-encounter"]},"status":"finished","class":{"system":"http://terminology.hl7.org/CodeSystem/v3-ActCode","code":"AMB","display":"ambulatory","userSelected":true},"type":[{"coding":[{"system":"http://snomed.info/sct","version":"http://snomed.info/sct/731000124108/version/202303","code":"185316007","display":"Indirect encounter (procedure)","userSelected":true}]}],"subject":{"reference":"Patient/3dc394cd-e73b-4843-8f30-21a545500b24"},"period":{"start":"2026-05-06T08:00:00.000+00:00","end":"2026-05-06T08:15:00.000+00:00"}},"request":{"method":"PUT","url":"Encounter/7ee0cfbe-b654-4dad-a4ff-e4db106b2276"}},{"fullUrl":"https://madie.cms.gov/Procedure/2fee1a7b-3c94-45cf-b08c-2ff64f85d033","resource":{"resourceType":"Procedure","id":"2fee1a7b-3c94-45cf-b08c-2ff64f85d033","meta":{"profile":["http://hl7.org/fhir/us/qicore/StructureDefinition/qicore-procedure"]},"extension":[{"url":"http://hl7.org/fhir/us/qicore/StructureDefinition/qicore-recorded","valueDateTime":"2026-05-05T13:35:00.000+00:00"}],"status":"completed","category":{"coding":[{"system":"http://loinc.org","version":"2.73","code":"58151-2","display":"Prior assessment Brief Interview for Mental Status (BIMS) summary score [MDSv3]","userSelected":true}]},"code":{"coding":[{"system":"http://snomed.info/sct","version":"http://snomed.info/sct/731000124108/version/202303","code":"113024001","display":"Assessment and interpretation of higher cerebral function, cognitive testing (procedure)","userSelected":true}]},"subject":{"reference":"Patient/3dc394cd-e73b-4843-8f30-21a545500b24"},"encounter":{"reference":"Encounter/home-healthcare-services-8b61"},"performedDateTime":"2026-05-06T08:00:00.000+00:00"},"request":{"method":"PUT","url":"Procedure/2fee1a7b-3c94-45cf-b08c-2ff64f85d033"}},{"fullUrl":"https://madie.cms.gov/Observation/41dbfab0-9098-405e-8bed-695664a2fc22","resource":{"resourceType":"Observation","id":"41dbfab0-9098-405e-8bed-695664a2fc22","meta":{"profile":["http://hl7.org/fhir/us/qicore/StructureDefinition/qicore-observationcancelled"]},"extension":[{"url":"http://hl7.org/fhir/us/qicore/StructureDefinition/qicore-notDoneReason","valueCodeableConcept":{"coding":[{"system":"http://snomed.info/sct","version":"http://snomed.info/sct/731000124108/version/20230301","code":"275936005","display":"Patient noncompliance - general (situation)"}]}}],"status":"cancelled","category":[{"coding":[{"system":"http://loinc.org","version":"2.73","code":"58151-2","display":"Prior assessment Brief Interview for Mental Status (BIMS) summary score [MDSv3]","userSelected":true}]}],"code":{"coding":[{"system":"http://loinc.org","version":"2.73","code":"58151-2","display":"Prior assessment Brief Interview for Mental Status (BIMS) summary score [MDSv3]"}]},"subject":{"reference":"Patient/3dc394cd-e73b-4843-8f30-21a545500b24"},"effectiveDateTime":"2026-05-06T08:00:00.000+00:00","issued":"2026-08-06T08:59:00.000+00:00"},"request":{"method":"PUT","url":"Observation/41dbfab0-9098-405e-8bed-695664a2fc22"}},{"fullUrl":"https://madie.cms.gov/MeasureReport/a260af50-d03d-4031-a2a1-3a84970b105b","resource":{"resourceType":"MeasureReport","id":"a260af50-d03d-4031-a2a1-3a84970b105b","meta":{"profile":["http://hl7.org/fhir/us/cqfmeasures/StructureDefinition/test-case-cqfm"]},"contained":[{"resourceType":"Parameters","id":"6fe68e5a-baf9-49da-8ae3-626b891d06a3-parameters","parameter":[{"name":"subject","valueString":"49997661-cfa3-4554-9d30-18dbb589d95c"}]}],"extension":[{"url":"http://hl7.org/fhir/StructureDefinition/cqf-inputParameters","valueReference":{"reference":"#6fe68e5a-baf9-49da-8ae3-626b891d06a3-parameters"}},{"url":"http://hl7.org/fhir/us/cqfmeasures/StructureDefinition/cqfm-testCaseDescription","valueMarkdown":"Patient Reason for not performing Standardized Tools Score for Assessment of Cognition is effective during Encounter"}],"modifierExtension":[{"url":"http://hl7.org/fhir/us/cqfmeasures/StructureDefinition/cqfm-isTestCase","valueBoolean":true}],"status":"complete","type":"individual","measure":"https://madie.cms.gov/Measure/CMS149FHIRDementiaCognitiveAssessment","period":{"start":"2026-01-01","end":"2026-12-31"},"group":[{"id":"Group_1","population":[{"id":"InitialPopulation_1","code":{"coding":[{"system":"http://terminology.hl7.org/CodeSystem/measure-population","code":"initial-population","display":"Initial Population"}]},"count":1},{"id":"Denominator_1","code":{"coding":[{"system":"http://terminology.hl7.org/CodeSystem/measure-population","code":"denominator","display":"Denominator"}]},"count":1},{"id":"Numerator_1","code":{"coding":[{"system":"http://terminology.hl7.org/CodeSystem/measure-population","code":"numerator","display":"Numerator"}]},"count":0},{"id":"DenominatorException_1","code":{"coding":[{"system":"http://terminology.hl7.org/CodeSystem/measure-population","code":"denominator-exception","display":"Denominator Exception"}]},"count":1}],"measureScore":{"value":1.0}}],"evaluatedResource":[{"reference":"Patient/49997661-cfa3-4554-9d30-18dbb589d95c"},{"reference":"Encounter/653e8fff-2b39-4968-ad8b-13b3d3a8ddc5"},{"reference":"Condition/ffe23e3e-f168-4385-afae-d72fe5eab489"},{"reference":"Encounter/7ee0cfbe-b654-4dad-a4ff-e4db106b2276"},{"reference":"Procedure/2fee1a7b-3c94-45cf-b08c-2ff64f85d033"},{"reference":"Observation/41dbfab0-9098-405e-8bed-695664a2fc22"}]},"request":{"method":"PUT","url":"MeasureReport/a260af50-d03d-4031-a2a1-3a84970b105b"}}]},"request":{"method":"PUT","url":"Bundle/610d828c37a47d6ac0116a13"}},{"resource":{"resourceType":"Procedure","id":"2fee1a7b-3c94-45cf-b08c-2ff64f85d033","meta":{"profile":["http://hl7.org/fhir/us/qicore/StructureDefinition/qicore-procedure"]},"extension":[{"url":"http://hl7.org/fhir/us/qicore/StructureDefinition/qicore-recorded","valueDateTime":"2026-05-05T13:35:00.000+00:00"}],"status":"completed","category":{"coding":[{"system":"http://loinc.org","version":"2.73","code":"58151-2","display":"Prior assessment Brief Interview for Mental Status (BIMS) summary score [MDSv3]","userSelected":true}]},"code":{"coding":[{"system":"http://snomed.info/sct","version":"http://snomed.info/sct/731000124108/version/202303","code":"113024001","display":"Assessment and interpretation of higher cerebral function, cognitive testing (procedure)","userSelected":true}]},"subject":{"reference":"Patient/3dc394cd-e73b-4843-8f30-21a545500b24"},"encounter":{"reference":"Encounter/home-healthcare-services-8b61"},"performedDateTime":"2026-05-06T08:00:00.000+00:00"},"request":{"method":"PUT","url":"Procedure/2fee1a7b-3c94-45cf-b08c-2ff64f85d033"}},{"resource":{"resourceType":"MeasureReport","id":"a260af50-d03d-4031-a2a1-3a84970b105b","meta":{"profile":["http://hl7.org/fhir/us/cqfmeasures/StructureDefinition/test-case-cqfm"]},"contained":[{"resourceType":"Parameters","id":"6fe68e5a-baf9-49da-8ae3-626b891d06a3-parameters","parameter":[{"name":"subject","valueString":"49997661-cfa3-4554-9d30-18dbb589d95c"}]}],"extension":[{"url":"http://hl7.org/fhir/StructureDefinition/cqf-inputParameters","valueReference":{"reference":"#6fe68e5a-baf9-49da-8ae3-626b891d06a3-parameters"}},{"url":"http://hl7.org/fhir/us/cqfmeasures/StructureDefinition/cqfm-testCaseDescription","valueMarkdown":"Patient Reason for not performing Standardized Tools Score for Assessment of Cognition is effective during Encounter"}],"modifierExtension":[{"url":"http://hl7.org/fhir/us/cqfmeasures/StructureDefinition/cqfm-isTestCase","valueBoolean":true}],"status":"complete","type":"individual","measure":"https://madie.cms.gov/Measure/CMS149FHIRDementiaCognitiveAssessment","period":{"start":"2026-01-01","end":"2026-12-31"},"group":[{"id":"Group_1","population":[{"id":"InitialPopulation_1","code":{"coding":[{"system":"http://terminology.hl7.org/CodeSystem/measure-population","code":"initial-population","display":"Initial Population"}]},"count":1},{"id":"Denominator_1","code":{"coding":[{"system":"http://terminology.hl7.org/CodeSystem/measure-population","code":"denominator","display":"Denominator"}]},"count":1},{"id":"Numerator_1","code":{"coding":[{"system":"http://terminology.hl7.org/CodeSystem/measure-population","code":"numerator","display":"Numerator"}]},"count":0},{"id":"DenominatorException_1","code":{"coding":[{"system":"http://terminology.hl7.org/CodeSystem/measure-population","code":"denominator-exception","display":"Denominator Exception"}]},"count":1}],"measureScore":{"value":1.0}}],"evaluatedResource":[{"reference":"Patient/49997661-cfa3-4554-9d30-18dbb589d95c"},{"reference":"Encounter/653e8fff-2b39-4968-ad8b-13b3d3a8ddc5"},{"reference":"Condition/ffe23e3e-f168-4385-afae-d72fe5eab489"},{"reference":"Encounter/7ee0cfbe-b654-4dad-a4ff-e4db106b2276"},{"reference":"Procedure/2fee1a7b-3c94-45cf-b08c-2ff64f85d033"},{"reference":"Observation/41dbfab0-9098-405e-8bed-695664a2fc22"}]},"request":{"method":"PUT","url":"MeasureReport/a260af50-d03d-4031-a2a1-3a84970b105b"}},{"resource":{"resourceType":"Encounter","id":"653e8fff-2b39-4968-ad8b-13b3d3a8ddc5","meta":{"profile":["http://hl7.org/fhir/us/qicore/StructureDefinition/qicore-encounter"]},"status":"finished","class":{"system":"http://terminology.hl7.org/CodeSystem/v3-ActCode","code":"AMB","display":"ambulatory","userSelected":true},"type":[{"coding":[{"system":"http://snomed.info/sct","version":"http://snomed.info/sct/731000124108/version/202303","code":"185460008","display":"Home visit request by patient (procedure)","userSelected":true}]}],"subject":{"reference":"Patient/3dc394cd-e73b-4843-8f30-21a545500b24"},"period":{"start":"2026-08-06T08:00:00.000+00:00","end":"2026-08-06T09:00:00.000+00:00"}},"request":{"method":"PUT","url":"Encounter/653e8fff-2b39-4968-ad8b-13b3d3a8ddc5"}},{"resource":{"resourceType":"Encounter","id":"7ee0cfbe-b654-4dad-a4ff-e4db106b2276","meta":{"profile":["http://hl7.org/fhir/us/qicore/StructureDefinition/qicore-encounter"]},"status":"finished","class":{"system":"http://terminology.hl7.org/CodeSystem/v3-ActCode","code":"AMB","display":"ambulatory","userSelected":true},"type":[{"coding":[{"system":"http://snomed.info/sct","version":"http://snomed.info/sct/731000124108/version/202303","code":"185316007","display":"Indirect encounter (procedure)","userSelected":true}]}],"subject":{"reference":"Patient/3dc394cd-e73b-4843-8f30-21a545500b24"},"period":{"start":"2026-05-06T08:00:00.000+00:00","end":"2026-05-06T08:15:00.000+00:00"}},"request":{"method":"PUT","url":"Encounter/7ee0cfbe-b654-4dad-a4ff-e4db106b2276"}},{"resource":{"resourceType":"Condition","id":"ffe23e3e-f168-4385-afae-d72fe5eab489","meta":{"profile":["http://hl7.org/fhir/us/qicore/StructureDefinition/qicore-condition-problems-health-concerns"]},"clinicalStatus":{"coding":[{"system":"http://terminology.hl7.org/CodeSystem/condition-clinical","code":"active","display":"active","userSelected":true}]},"category":[{"coding":[{"system":"http://terminology.hl7.org/CodeSystem/condition-clinical","code":"active","display":"active","userSelected":true}]}],"code":{"coding":[{"system":"http://snomed.info/sct","version":"http://snomed.info/sct/731000124108/version/202303","code":"191451009","display":"Uncomplicated presenile dementia (disorder)","userSelected":true}]},"subject":{"reference":"Patient/3dc394cd-e73b-4843-8f30-21a545500b24"},"onsetDateTime":"2025-05-06T08:00:00.000+00:00","recordedDate":"2025-05-06T08:00:00.000+00:00"},"request":{"method":"PUT","url":"Condition/ffe23e3e-f168-4385-afae-d72fe5eab489"}},{"resource":{"resourceType":"Observation","id":"41dbfab0-9098-405e-8bed-695664a2fc22","meta":{"profile":["http://hl7.org/fhir/us/qicore/StructureDefinition/qicore-observationcancelled"]},"extension":[{"url":"http://hl7.org/fhir/us/qicore/StructureDefinition/qicore-notDoneReason","valueCodeableConcept":{"coding":[{"system":"http://snomed.info/sct","version":"http://snomed.info/sct/731000124108/version/20230301","code":"275936005","display":"Patient noncompliance - general (situation)"}]}}],"status":"cancelled","category":[{"coding":[{"system":"http://loinc.org","version":"2.73","code":"58151-2","display":"Prior assessment Brief Interview for Mental Status (BIMS) summary score [MDSv3]","userSelected":true}]}],"code":{"coding":[{"system":"http://loinc.org","version":"2.73","code":"58151-2","display":"Prior assessment Brief Interview for Mental Status (BIMS) summary score [MDSv3]"}]},"subject":{"reference":"Patient/3dc394cd-e73b-4843-8f30-21a545500b24"},"effectiveDateTime":"2026-05-06T08:00:00.000+00:00","issued":"2026-08-06T08:59:00.000+00:00"},"request":{"method":"PUT","url":"Observation/41dbfab0-9098-405e-8bed-695664a2fc22"}}]}