{
    "entry": [
        {
            "request": {
                "method": "PUT",
                "url": "Patient/e3a05b61-470f-4787-ba31-c94aeeadeed6"
            },
            "resource": {
                "identifier": [{
                    "system": "https://bonnie-fhir.healthit.gov/",
                    "type": {"coding": [{
                        "system": "http://terminology.hl7.org/CodeSystem/v2-0203",
                        "code": "MR"
                    }]},
                    "value": "62d95b63f0347d1abcae6c07"
                }],
                "extension": [
                    {
                        "extension": [
                            {
                                "valueCoding": {
                                    "system": "urn:oid:2.16.840.1.113883.6.238",
                                    "code": "1002-5",
                                    "userSelected": true,
                                    "display": "American Indian or Alaska Native"
                                },
                                "url": "ombCategory"
                            },
                            {
                                "valueString": "American Indian or Alaska Native",
                                "url": "text"
                            }
                        ],
                        "url": "http://hl7.org/fhir/us/core/StructureDefinition/us-core-race"
                    },
                    {
                        "extension": [
                            {
                                "valueCoding": {
                                    "system": "urn:oid:2.16.840.1.113883.6.238",
                                    "code": "2135-2",
                                    "userSelected": true,
                                    "display": "Hispanic or Latino"
                                },
                                "url": "ombCategory"
                            },
                            {
                                "valueString": "Hispanic or Latino",
                                "url": "text"
                            }
                        ],
                        "url": "http://hl7.org/fhir/us/core/StructureDefinition/us-core-ethnicity"
                    }
                ],
                "gender": "male",
                "meta": {"profile": ["http://hl7.org/fhir/us/qicore/StructureDefinition/qicore-patient"]},
                "name": [{
                    "given": ["EncounterOneDayBeforeMP"],
                    "family": "IPFail"
                }],
                "id": "e3a05b61-470f-4787-ba31-c94aeeadeed6",
                "birthDate": "2005-12-31",
                "resourceType": "Patient"
            },
            "fullUrl": "https://madie.cms.gov/Patient/e3a05b61-470f-4787-ba31-c94aeeadeed6"
        },
        {
            "request": {
                "method": "PUT",
                "url": "Encounter/c8365f33-99ac-4cfe-8b60-67494cd68714"
            },
            "resource": {
                "period": {
                    "start": "2025-12-31T08:00:00.000+00:00",
                    "end": "2025-12-31T08:30:00.000+00:00"
                },
                "meta": {"profile": ["http://hl7.org/fhir/us/qicore/StructureDefinition/qicore-encounter"]},
                "subject": {"reference": "Patient/e3a05b61-470f-4787-ba31-c94aeeadeed6"},
                "id": "c8365f33-99ac-4cfe-8b60-67494cd68714",
                "type": [{"coding": [{
                    "system": "http://snomed.info/sct",
                    "code": "103705002",
                    "userSelected": true,
                    "display": "Patient status observation (procedure)",
                    "version": "2022-03"
                }]}],
                "class": {
                    "system": "http://terminology.hl7.org/CodeSystem/v3-ActCode",
                    "code": "AMB",
                    "userSelected": true,
                    "display": "Ambulatory"
                },
                "resourceType": "Encounter",
                "status": "finished"
            },
            "fullUrl": "https://madie.cms.gov/Encounter/c8365f33-99ac-4cfe-8b60-67494cd68714"
        },
        {
            "request": {
                "method": "PUT",
                "url": "Coverage/558461c8-e71d-4146-994c-076d4023f214"
            },
            "resource": {
                "payor": [{"reference": "Organization/2d32a5b9-3db2-4406-b78e-13a80f3759ac"}],
                "beneficiary": {"reference": "Patient/e3a05b61-470f-4787-ba31-c94aeeadeed6"},
                "meta": {"profile": ["http://hl7.org/fhir/us/qicore/StructureDefinition/qicore-coverage"]},
                "id": "558461c8-e71d-4146-994c-076d4023f214",
                "resourceType": "Coverage",
                "status": "active"
            },
            "fullUrl": "https://madie.cms.gov/Coverage/558461c8-e71d-4146-994c-076d4023f214"
        },
        {
            "request": {
                "method": "PUT",
                "url": "Organization/2d32a5b9-3db2-4406-b78e-13a80f3759ac"
            },
            "resource": {
                "identifier": [{
                    "system": "urn:oid:2.16.840.1.113883.4.4",
                    "use": "temp",
                    "value": "21-3259825"
                }],
                "address": [{
                    "country": "USA",
                    "city": "Dallas",
                    "use": "billing",
                    "line": ["P.O. Box 660044"],
                    "postalCode": "75266-0044",
                    "state": "TX",
                    "type": "postal"
                }],
                "meta": {"profile": ["http://hl7.org/fhir/us/qicore/StructureDefinition/qicore-organization"]},
                "name": "Blue Cross Blue Shield of Texas",
                "active": true,
                "telecom": [{
                    "system": "phone",
                    "value": "(+1) 972-766-6900"
                }],
                "id": "2d32a5b9-3db2-4406-b78e-13a80f3759ac",
                "type": [{"coding": [{
                    "system": "http://terminology.hl7.org/CodeSystem/organization-type",
                    "code": "pay",
                    "display": "Payer"
                }]}],
                "resourceType": "Organization"
            },
            "fullUrl": "https://madie.cms.gov/Organization/2d32a5b9-3db2-4406-b78e-13a80f3759ac"
        },
        {
            "request": {
                "method": "PUT",
                "url": "Practitioner/6345918f-2e1e-4552-9f81-2220001031f2"
            },
            "resource": {
                "identifier": [{
                    "system": "http://hl7.org/fhir/sid/us-npi",
                    "value": "123456"
                }],
                "name": [{
                    "prefix": ["Dr"],
                    "family": "Evil"
                }],
                "id": "6345918f-2e1e-4552-9f81-2220001031f2",
                "resourceType": "Practitioner"
            },
            "fullUrl": "https://madie.cms.gov/Practitioner/6345918f-2e1e-4552-9f81-2220001031f2"
        },
        {
            "request": {
                "method": "PUT",
                "url": "MeasureReport/ae85c651-e309-41ba-ad53-67394ca696f9"
            },
            "resource": {
                "contained": [{
                    "parameter": [{
                        "valueString": "e3a05b61-470f-4787-ba31-c94aeeadeed6",
                        "name": "subject"
                    }],
                    "id": "8af514f8-22ba-4ff1-a842-38879d74e4a9-parameters",
                    "resourceType": "Parameters"
                }],
                "extension": [
                    {
                        "valueReference": {"reference": "#8af514f8-22ba-4ff1-a842-38879d74e4a9-parameters"},
                        "url": "http://hl7.org/fhir/StructureDefinition/cqf-inputParameters"
                    },
                    {
                        "valueMarkdown": "Encounter is one day before start of MP.",
                        "url": "http://hl7.org/fhir/us/cqfmeasures/StructureDefinition/cqfm-testCaseDescription"
                    }
                ],
                "period": {
                    "start": "2026-01-01",
                    "end": "2026-12-31"
                },
                "measure": "https://madie.cms.gov/Measure/CMS22FHIRPCSBPScreeningFollowUp",
                "meta": {"profile": ["http://hl7.org/fhir/us/cqfmeasures/StructureDefinition/test-case-cqfm"]},
                "modifierExtension": [{
                    "valueBoolean": true,
                    "url": "http://hl7.org/fhir/us/cqfmeasures/StructureDefinition/cqfm-isTestCase"
                }],
                "id": "ae85c651-e309-41ba-ad53-67394ca696f9",
                "evaluatedResource": [
                    {"reference": "Patient/e3a05b61-470f-4787-ba31-c94aeeadeed6"},
                    {"reference": "Encounter/c8365f33-99ac-4cfe-8b60-67494cd68714"},
                    {"reference": "Coverage/558461c8-e71d-4146-994c-076d4023f214"},
                    {"reference": "Organization/2d32a5b9-3db2-4406-b78e-13a80f3759ac"},
                    {"reference": "Practitioner/6345918f-2e1e-4552-9f81-2220001031f2"}
                ],
                "type": "individual",
                "resourceType": "MeasureReport",
                "status": "complete",
                "group": [{
                    "id": "Group_1",
                    "measureScore": {"value": 0},
                    "population": [
                        {
                            "code": {"coding": [{
                                "system": "http://terminology.hl7.org/CodeSystem/measure-population",
                                "code": "initial-population",
                                "display": "Initial Population"
                            }]},
                            "count": 0,
                            "id": "InitialPopulation_1"
                        },
                        {
                            "code": {"coding": [{
                                "system": "http://terminology.hl7.org/CodeSystem/measure-population",
                                "code": "denominator",
                                "display": "Denominator"
                            }]},
                            "count": 0,
                            "id": "Denominator_1"
                        },
                        {
                            "code": {"coding": [{
                                "system": "http://terminology.hl7.org/CodeSystem/measure-population",
                                "code": "denominator-exclusion",
                                "display": "Denominator Exclusion"
                            }]},
                            "count": 0,
                            "id": "DenominatorExclusion_1"
                        },
                        {
                            "code": {"coding": [{
                                "system": "http://terminology.hl7.org/CodeSystem/measure-population",
                                "code": "numerator",
                                "display": "Numerator"
                            }]},
                            "count": 0,
                            "id": "Numerator_1"
                        },
                        {
                            "code": {"coding": [{
                                "system": "http://terminology.hl7.org/CodeSystem/measure-population",
                                "code": "denominator-exception",
                                "display": "Denominator Exception"
                            }]},
                            "count": 0,
                            "id": "DenominatorException_1"
                        }
                    ]
                }]
            },
            "fullUrl": "https://madie.cms.gov/MeasureReport/ae85c651-e309-41ba-ad53-67394ca696f9"
        }
    ],
    "id": "62d95b63f0347d1abcae6c07",
    "type": "transaction",
    "resourceType": "Bundle"
}