{
  "resourceType": "Bundle",
  "id": "62d95b63f0347d1abcae6c07",
  "type": "transaction",
  "entry": [ {
    "fullUrl": "https://madie.cms.gov/Patient/e3a05b61-470f-4787-ba31-c94aeeadeed6",
    "resource": {
      "resourceType": "Patient",
      "id": "e3a05b61-470f-4787-ba31-c94aeeadeed6",
      "meta": {
        "profile": [ "http://hl7.org/fhir/us/qicore/StructureDefinition/qicore-patient" ]
      },
      "extension": [ {
        "url": "http://hl7.org/fhir/us/core/StructureDefinition/us-core-race",
        "extension": [ {
          "url": "ombCategory",
          "valueCoding": {
            "system": "urn:oid:2.16.840.1.113883.6.238",
            "code": "1002-5",
            "display": "American Indian or Alaska Native",
            "userSelected": true
          }
        }, {
          "url": "text",
          "valueString": "American Indian or Alaska Native"
        } ]
      }, {
        "url": "http://hl7.org/fhir/us/core/StructureDefinition/us-core-ethnicity",
        "extension": [ {
          "url": "ombCategory",
          "valueCoding": {
            "system": "urn:oid:2.16.840.1.113883.6.238",
            "code": "2135-2",
            "display": "Hispanic or Latino",
            "userSelected": true
          }
        }, {
          "url": "text",
          "valueString": "Hispanic or Latino"
        } ]
      } ],
      "identifier": [ {
        "type": {
          "coding": [ {
            "system": "http://terminology.hl7.org/CodeSystem/v2-0203",
            "code": "MR"
          } ]
        },
        "system": "https://bonnie-fhir.healthit.gov/",
        "value": "62d95b63f0347d1abcae6c07"
      } ],
      "name": [ {
        "family": "IPFail",
        "given": [ "EncounterOneDayBeforeMP" ]
      } ],
      "gender": "male",
      "birthDate": "2005-12-31"
    },
    "request": {
      "method": "PUT",
      "url": "Patient/e3a05b61-470f-4787-ba31-c94aeeadeed6"
    }
  }, {
    "fullUrl": "https://madie.cms.gov/Encounter/c8365f33-99ac-4cfe-8b60-67494cd68714",
    "resource": {
      "resourceType": "Encounter",
      "id": "c8365f33-99ac-4cfe-8b60-67494cd68714",
      "meta": {
        "profile": [ "http://hl7.org/fhir/us/qicore/StructureDefinition/qicore-encounter" ]
      },
      "status": "finished",
      "class": {
        "system": "http://terminology.hl7.org/CodeSystem/v3-ActCode",
        "code": "AMB",
        "display": "Ambulatory",
        "userSelected": true
      },
      "type": [ {
        "coding": [ {
          "system": "http://snomed.info/sct",
          "version": "2022-03",
          "code": "103705002",
          "display": "Patient status observation (procedure)",
          "userSelected": true
        } ]
      } ],
      "subject": {
        "reference": "Patient/e3a05b61-470f-4787-ba31-c94aeeadeed6"
      },
      "period": {
        "start": "2025-12-31T08:00:00.000+00:00",
        "end": "2025-12-31T08:30:00.000+00:00"
      }
    },
    "request": {
      "method": "PUT",
      "url": "Encounter/c8365f33-99ac-4cfe-8b60-67494cd68714"
    }
  }, {
    "fullUrl": "https://madie.cms.gov/Coverage/558461c8-e71d-4146-994c-076d4023f214",
    "resource": {
      "resourceType": "Coverage",
      "id": "558461c8-e71d-4146-994c-076d4023f214",
      "meta": {
        "profile": [ "http://hl7.org/fhir/us/qicore/StructureDefinition/qicore-coverage" ]
      },
      "status": "active",
      "beneficiary": {
        "reference": "Patient/e3a05b61-470f-4787-ba31-c94aeeadeed6"
      },
      "payor": [ {
        "reference": "Organization/2d32a5b9-3db2-4406-b78e-13a80f3759ac"
      } ]
    },
    "request": {
      "method": "PUT",
      "url": "Coverage/558461c8-e71d-4146-994c-076d4023f214"
    }
  }, {
    "fullUrl": "https://madie.cms.gov/Organization/2d32a5b9-3db2-4406-b78e-13a80f3759ac",
    "resource": {
      "resourceType": "Organization",
      "id": "2d32a5b9-3db2-4406-b78e-13a80f3759ac",
      "meta": {
        "profile": [ "http://hl7.org/fhir/us/qicore/StructureDefinition/qicore-organization" ]
      },
      "identifier": [ {
        "use": "temp",
        "system": "urn:oid:2.16.840.1.113883.4.4",
        "value": "21-3259825"
      } ],
      "active": true,
      "type": [ {
        "coding": [ {
          "system": "http://terminology.hl7.org/CodeSystem/organization-type",
          "code": "pay",
          "display": "Payer"
        } ]
      } ],
      "name": "Blue Cross Blue Shield of Texas",
      "telecom": [ {
        "system": "phone",
        "value": "(+1) 972-766-6900"
      } ],
      "address": [ {
        "use": "billing",
        "type": "postal",
        "line": [ "P.O. Box 660044" ],
        "city": "Dallas",
        "state": "TX",
        "postalCode": "75266-0044",
        "country": "USA"
      } ]
    },
    "request": {
      "method": "PUT",
      "url": "Organization/2d32a5b9-3db2-4406-b78e-13a80f3759ac"
    }
  }, {
    "fullUrl": "https://madie.cms.gov/Practitioner/6345918f-2e1e-4552-9f81-2220001031f2",
    "resource": {
      "resourceType": "Practitioner",
      "id": "6345918f-2e1e-4552-9f81-2220001031f2",
      "identifier": [ {
        "system": "http://hl7.org/fhir/sid/us-npi",
        "value": "123456"
      } ],
      "name": [ {
        "family": "Evil",
        "prefix": [ "Dr" ]
      } ]
    },
    "request": {
      "method": "PUT",
      "url": "Practitioner/6345918f-2e1e-4552-9f81-2220001031f2"
    }
  }, {
    "fullUrl": "https://madie.cms.gov/MeasureReport/ae85c651-e309-41ba-ad53-67394ca696f9",
    "resource": {
      "resourceType": "MeasureReport",
      "id": "ae85c651-e309-41ba-ad53-67394ca696f9",
      "meta": {
        "profile": [ "http://hl7.org/fhir/us/cqfmeasures/StructureDefinition/test-case-cqfm" ]
      },
      "contained": [ {
        "resourceType": "Parameters",
        "id": "8af514f8-22ba-4ff1-a842-38879d74e4a9-parameters",
        "parameter": [ {
          "name": "subject",
          "valueString": "e3a05b61-470f-4787-ba31-c94aeeadeed6"
        } ]
      } ],
      "extension": [ {
        "url": "http://hl7.org/fhir/StructureDefinition/cqf-inputParameters",
        "valueReference": {
          "reference": "#8af514f8-22ba-4ff1-a842-38879d74e4a9-parameters"
        }
      }, {
        "url": "http://hl7.org/fhir/us/cqfmeasures/StructureDefinition/cqfm-testCaseDescription",
        "valueMarkdown": "Encounter is one day before start of MP."
      } ],
      "modifierExtension": [ {
        "url": "http://hl7.org/fhir/us/cqfmeasures/StructureDefinition/cqfm-isTestCase",
        "valueBoolean": true
      } ],
      "status": "complete",
      "type": "individual",
      "measure": "https://madie.cms.gov/Measure/CMS22FHIRPCSBPScreeningFollowUp",
      "period": {
        "start": "2026-01-01",
        "end": "2026-12-31"
      },
      "group": [ {
        "id": "Group_1",
        "population": [ {
          "id": "InitialPopulation_1",
          "code": {
            "coding": [ {
              "system": "http://terminology.hl7.org/CodeSystem/measure-population",
              "code": "initial-population",
              "display": "Initial Population"
            } ]
          },
          "count": 0
        }, {
          "id": "Denominator_1",
          "code": {
            "coding": [ {
              "system": "http://terminology.hl7.org/CodeSystem/measure-population",
              "code": "denominator",
              "display": "Denominator"
            } ]
          },
          "count": 0
        }, {
          "id": "DenominatorExclusion_1",
          "code": {
            "coding": [ {
              "system": "http://terminology.hl7.org/CodeSystem/measure-population",
              "code": "denominator-exclusion",
              "display": "Denominator Exclusion"
            } ]
          },
          "count": 0
        }, {
          "id": "Numerator_1",
          "code": {
            "coding": [ {
              "system": "http://terminology.hl7.org/CodeSystem/measure-population",
              "code": "numerator",
              "display": "Numerator"
            } ]
          },
          "count": 0
        }, {
          "id": "DenominatorException_1",
          "code": {
            "coding": [ {
              "system": "http://terminology.hl7.org/CodeSystem/measure-population",
              "code": "denominator-exception",
              "display": "Denominator Exception"
            } ]
          },
          "count": 0
        } ],
        "measureScore": {
          "value": 0.0
        }
      } ],
      "evaluatedResource": [ {
        "reference": "Patient/e3a05b61-470f-4787-ba31-c94aeeadeed6"
      }, {
        "reference": "Encounter/c8365f33-99ac-4cfe-8b60-67494cd68714"
      }, {
        "reference": "Coverage/558461c8-e71d-4146-994c-076d4023f214"
      }, {
        "reference": "Organization/2d32a5b9-3db2-4406-b78e-13a80f3759ac"
      }, {
        "reference": "Practitioner/6345918f-2e1e-4552-9f81-2220001031f2"
      } ]
    },
    "request": {
      "method": "PUT",
      "url": "MeasureReport/ae85c651-e309-41ba-ad53-67394ca696f9"
    }
  } ]
}