{"resourceType":"Bundle","id":"CMS146FHIRAppropriateTestingforPharyngitis-bundle","type":"transaction","timestamp":"2025-07-15T07:38:08.586-06:00","entry":[{"resource":{"resourceType":"Library","id":"CMS146FHIRAppropriateTestingforPharyngitis","meta":{"profile":["http://hl7.org/fhir/uv/crmi/StructureDefinition/crmi-shareablelibrary","http://hl7.org/fhir/uv/crmi/StructureDefinition/crmi-computablelibrary","http://hl7.org/fhir/uv/crmi/StructureDefinition/crmi-publishablelibrary","http://hl7.org/fhir/uv/crmi/StructureDefinition/crmi-executablelibrary","http://hl7.org/fhir/uv/cql/StructureDefinition/cql-library","http://hl7.org/fhir/uv/cql/StructureDefinition/elm-json-library","http://hl7.org/fhir/uv/cql/StructureDefinition/elm-xml-library"]},"language":"en","text":{"status":"extensions","div":"<div xmlns=\"http://www.w3.org/1999/xhtml\">\n    <table class=\"grid dict\">\n        \n        \n        <tr>\n            <th scope=\"row\"><b>Title: </b></th>\n            <td style=\"padding-left: 4px;\">CMS146FHIRAppropriateTestingforPharyngitis</td>\n        </tr>\n        \n\n        \n        \n        <tr>\n            <th scope=\"row\"><b>Id: </b></th>\n            <td style=\"padding-left: 4px;\">CMS146FHIRAppropriateTestingforPharyngitis</td>\n        </tr>\n        \n\n        \n        \n        <tr>\n            <th scope=\"row\"><b>Version: </b></th>\n            <td style=\"padding-left: 4px;\">0.3.000</td>\n        </tr>\n        \n\n        \n        <tr>\n            <th scope=\"row\"><b>Url: </b></th>\n            <td style=\"padding-left: 4px;\">https://madie.cms.gov/Library/CMS146FHIRAppropriateTestingforPharyngitis</td>\n        </tr>\n        \n\n        \n        <tr>\n            <th scope=\"row\">\n                <b>\n                    \n                        official\n                    \n                </b>\n            </th>\n            <td style=\"padding-left: 4px;\">\n                \n                <p style=\"margin-bottom: 5px;\">\n                    <span>CMS146FHIRAppropriateTestingforPharyngitis</span>\n                </p>\n                \n            </td>\n        </tr>\n        \n\n        \n\n        \n\n        \n\n        \n        <tr>\n            <th scope=\"row\"><b>Type: </b></th>\n            <td style=\"padding-left: 4px;\">\n                \n                    \n                        \n                        <p style=\"margin-bottom: 5px;\">\n                            <b>system: </b> <span>http://terminology.hl7.org/CodeSystem/library-type</span>\n                        </p>\n                        \n                        \n                        <p style=\"margin-bottom: 5px;\">\n                            <b>code: </b> <span>logic-library</span>\n                        </p>\n                        \n                        \n                    \n                \n                \n            </td>\n        </tr>\n        \n\n        \n\n        \n        <tr>\n            <th scope=\"row\"><b>Date: </b></th>\n            <td style=\"padding-left: 4px;\">2025-04-15T20:44:03+00:00</td>\n        </tr>\n        \n\n        \n        <tr>\n            <th scope=\"row\"><b>Publisher: </b></th>\n            <td style=\"padding-left: 4px;\">National Committee for Quality Assurance</td>\n        </tr>\n        \n\n        \n        <tr>\n            <th scope=\"row\"><b>Description: </b></th>\n            <td style=\"padding-left: 4px;\">CMS146FHIRAppropriateTestingforPharyngitis</td>\n        </tr>\n        \n\n        \n\n        \n\n        \n\n        \n\n        \n\n        \n\n        \n\n        \n\n        \n\n        \n\n        \n        <tr>\n            <th scope=\"row\"><b>Related Artifacts: </b></th>\n            <td style=\"padding-left: 4px;\">\n                \n                \n                \n                <p><b>Dependencies</b></p>\n                <ul>\n                  \n                    <li>https://madie.cms.gov/Library/SupplementalDataElements|5.1.000</li>\n                  \n                    <li>https://madie.cms.gov/Library/Status|1.13.000</li>\n                  \n                    <li>https://madie.cms.gov/Library/FHIRHelpers|4.4.000</li>\n                  \n                    <li>https://madie.cms.gov/Library/QICoreCommon|4.0.000</li>\n                  \n                    <li>https://madie.cms.gov/Library/Hospice|6.15.000</li>\n                  \n                    <li>https://madie.cms.gov/Library/Antibiotic|1.9.000</li>\n                  \n                    <li>http://www.ama-assn.org/go/cpt</li>\n                  \n                    <li>http://cts.nlm.nih.gov/fhir/ValueSet/2.16.840.1.113883.3.464.1003.198.12.1012</li>\n                  \n                    <li>http://cts.nlm.nih.gov/fhir/ValueSet/2.16.840.1.113883.3.464.1003.101.12.1010</li>\n                  \n                    <li>http://cts.nlm.nih.gov/fhir/ValueSet/2.16.840.1.113883.3.464.1003.101.12.1016</li>\n                  \n                    <li>http://cts.nlm.nih.gov/fhir/ValueSet/2.16.840.1.113883.3.464.1003.101.12.1073</li>\n                  \n                    <li>http://cts.nlm.nih.gov/fhir/ValueSet/2.16.840.1.113883.3.464.1003.101.12.1001</li>\n                  \n                    <li>http://cts.nlm.nih.gov/fhir/ValueSet/2.16.840.1.113883.3.464.1003.101.12.1080</li>\n                  \n                    <li>http://cts.nlm.nih.gov/fhir/ValueSet/2.16.840.1.113883.3.464.1003.101.12.1089</li>\n                  \n                    <li>http://cts.nlm.nih.gov/fhir/ValueSet/2.16.840.1.113883.3.464.1003.101.12.1008</li>\n                  \n                    <li>http://cts.nlm.nih.gov/fhir/ValueSet/2.16.840.1.113883.3.464.1003.101.12.1025</li>\n                  \n                    <li>http://cts.nlm.nih.gov/fhir/ValueSet/2.16.840.1.113883.3.464.1003.101.12.1027</li>\n                  \n                    <li>http://cts.nlm.nih.gov/fhir/ValueSet/2.16.840.1.113883.3.464.1003.101.12.1022</li>\n                  \n                    <li>http://cts.nlm.nih.gov/fhir/ValueSet/2.16.840.1.113883.3.464.1003.101.12.1026</li>\n                  \n                    <li>http://cts.nlm.nih.gov/fhir/ValueSet/2.16.840.1.113883.3.464.1003.101.12.1023</li>\n                  \n                    <li>http://cts.nlm.nih.gov/fhir/ValueSet/2.16.840.1.113883.3.464.1003.101.12.1024</li>\n                  \n                    <li>http://cts.nlm.nih.gov/fhir/ValueSet/2.16.840.1.113883.3.464.1003.196.12.1001</li>\n                  \n                    <li>http://cts.nlm.nih.gov/fhir/ValueSet/2.16.840.1.113883.3.464.1003.102.12.1011</li>\n                  \n                    <li>http://cts.nlm.nih.gov/fhir/ValueSet/2.16.840.1.113883.3.464.1003.102.12.1012</li>\n                  \n                    <li>http://cts.nlm.nih.gov/fhir/ValueSet/2.16.840.1.113883.3.464.1003.102.12.1025</li>\n                  \n                    <li>http://cts.nlm.nih.gov/fhir/ValueSet/2.16.840.1.113883.3.464.1003.102.12.1017</li>\n                  \n                </ul>\n                \n                \n                \n                \n                \n            </td>\n        </tr>\n        \n\n        \n\n        \n        <tr>\n          <th scope=\"row\"><b>Data Requirements:</b></th>\n          <td style=\"padding-left: 4px;\">\n            <table class=\"grid-dict\">\n              <tr><th><b>Type</b></th><th><b>Profile</b></th><th><b>MS</b></th><th><b>Code Filter</b></th></tr>\n              \n                <tr>\n                  <th>Patient</th>\n                  <th>http://hl7.org/fhir/us/qicore/StructureDefinition/qicore-patient</th>\n                  <th>;;</th>\n                  <th>\n                    \n                  </th>\n                </tr>\n              \n                <tr>\n                  <th>Encounter</th>\n                  <th>http://hl7.org/fhir/us/qicore/StructureDefinition/qicore-encounter</th>\n                  <th>;;</th>\n                  <th>\n                    \n                      <b>code filter: </b>\n                      \n                      <br/>\n                      \n                      \n                      <span style=\"padding-left: 4px;\">\n                          <b>path: </b><span>type</span>\n                      </span>\n                      \n                      <br/>\n                      \n                      \n                      \n                      <span style=\"padding-left: 4px;\">\n                          <b>value set: </b><span>http://cts.nlm.nih.gov/fhir/ValueSet/2.16.840.1.113883.3.464.1003.101.12.1010</span>\n                      </span>\n                      \n                      \n                    \n                  </th>\n                </tr>\n              \n                <tr>\n                  <th>Encounter</th>\n                  <th>http://hl7.org/fhir/us/qicore/StructureDefinition/qicore-encounter</th>\n                  <th>;;</th>\n                  <th>\n                    \n                      <b>code filter: </b>\n                      \n                      <br/>\n                      \n                      \n                      <span style=\"padding-left: 4px;\">\n                          <b>path: </b><span>type</span>\n                      </span>\n                      \n                      <br/>\n                      \n                      \n                      \n                      <span style=\"padding-left: 4px;\">\n                          <b>value set: </b><span>http://cts.nlm.nih.gov/fhir/ValueSet/2.16.840.1.113883.3.464.1003.101.12.1016</span>\n                      </span>\n                      \n                      \n                    \n                  </th>\n                </tr>\n              \n                <tr>\n                  <th>Encounter</th>\n                  <th>http://hl7.org/fhir/us/qicore/StructureDefinition/qicore-encounter</th>\n                  <th>;;</th>\n                  <th>\n                    \n                      <b>code filter: </b>\n                      \n                      <br/>\n                      \n                      \n                      <span style=\"padding-left: 4px;\">\n                          <b>path: </b><span>type</span>\n                      </span>\n                      \n                      <br/>\n                      \n                      \n                      \n                      <span style=\"padding-left: 4px;\">\n                          <b>value set: </b><span>http://cts.nlm.nih.gov/fhir/ValueSet/2.16.840.1.113883.3.464.1003.101.12.1073</span>\n                      </span>\n                      \n                      \n                    \n                  </th>\n                </tr>\n              \n                <tr>\n                  <th>Encounter</th>\n                  <th>http://hl7.org/fhir/us/qicore/StructureDefinition/qicore-encounter</th>\n                  <th>;;</th>\n                  <th>\n                    \n                      <b>code filter: </b>\n                      \n                      <br/>\n                      \n                      \n                      <span style=\"padding-left: 4px;\">\n                          <b>path: </b><span>type</span>\n                      </span>\n                      \n                      <br/>\n                      \n                      \n                      \n                      <span style=\"padding-left: 4px;\">\n                          <b>value set: </b><span>http://cts.nlm.nih.gov/fhir/ValueSet/2.16.840.1.113883.3.464.1003.101.12.1001</span>\n                      </span>\n                      \n                      \n                    \n                  </th>\n                </tr>\n              \n                <tr>\n                  <th>Encounter</th>\n                  <th>http://hl7.org/fhir/us/qicore/StructureDefinition/qicore-encounter</th>\n                  <th>;;</th>\n                  <th>\n                    \n                      <b>code filter: </b>\n                      \n                      <br/>\n                      \n                      \n                      <span style=\"padding-left: 4px;\">\n                          <b>path: </b><span>type</span>\n                      </span>\n                      \n                      <br/>\n                      \n                      \n                      \n                      <span style=\"padding-left: 4px;\">\n                          <b>value set: </b><span>http://cts.nlm.nih.gov/fhir/ValueSet/2.16.840.1.113883.3.464.1003.101.12.1080</span>\n                      </span>\n                      \n                      \n                    \n                  </th>\n                </tr>\n              \n                <tr>\n                  <th>Encounter</th>\n                  <th>http://hl7.org/fhir/us/qicore/StructureDefinition/qicore-encounter</th>\n                  <th>;;</th>\n                  <th>\n                    \n                      <b>code filter: </b>\n                      \n                      <br/>\n                      \n                      \n                      <span style=\"padding-left: 4px;\">\n                          <b>path: </b><span>type</span>\n                      </span>\n                      \n                      <br/>\n                      \n                      \n                      \n                      <span style=\"padding-left: 4px;\">\n                          <b>value set: </b><span>http://cts.nlm.nih.gov/fhir/ValueSet/2.16.840.1.113883.3.464.1003.101.12.1089</span>\n                      </span>\n                      \n                      \n                    \n                  </th>\n                </tr>\n              \n                <tr>\n                  <th>Encounter</th>\n                  <th>http://hl7.org/fhir/us/qicore/StructureDefinition/qicore-encounter</th>\n                  <th>;;</th>\n                  <th>\n                    \n                      <b>code filter: </b>\n                      \n                      <br/>\n                      \n                      \n                      <span style=\"padding-left: 4px;\">\n                          <b>path: </b><span>type</span>\n                      </span>\n                      \n                      <br/>\n                      \n                      \n                      \n                      <span style=\"padding-left: 4px;\">\n                          <b>value set: </b><span>http://cts.nlm.nih.gov/fhir/ValueSet/2.16.840.1.113883.3.464.1003.101.12.1008</span>\n                      </span>\n                      \n                      \n                    \n                  </th>\n                </tr>\n              \n                <tr>\n                  <th>Encounter</th>\n                  <th>http://hl7.org/fhir/us/qicore/StructureDefinition/qicore-encounter</th>\n                  <th>;;</th>\n                  <th>\n                    \n                      <b>code filter: </b>\n                      \n                      <br/>\n                      \n                      \n                      <span style=\"padding-left: 4px;\">\n                          <b>path: </b><span>type</span>\n                      </span>\n                      \n                      <br/>\n                      \n                      \n                      \n                      <span style=\"padding-left: 4px;\">\n                          <b>value set: </b><span>http://cts.nlm.nih.gov/fhir/ValueSet/2.16.840.1.113883.3.464.1003.101.12.1025</span>\n                      </span>\n                      \n                      \n                    \n                  </th>\n                </tr>\n              \n                <tr>\n                  <th>Encounter</th>\n                  <th>http://hl7.org/fhir/us/qicore/StructureDefinition/qicore-encounter</th>\n                  <th>;;</th>\n                  <th>\n                    \n                      <b>code filter: </b>\n                      \n                      <br/>\n                      \n                      \n                      <span style=\"padding-left: 4px;\">\n                          <b>path: </b><span>type</span>\n                      </span>\n                      \n                      <br/>\n                      \n                      \n                      \n                      <span style=\"padding-left: 4px;\">\n                          <b>value set: </b><span>http://cts.nlm.nih.gov/fhir/ValueSet/2.16.840.1.113883.3.464.1003.101.12.1027</span>\n                      </span>\n                      \n                      \n                    \n                  </th>\n                </tr>\n              \n                <tr>\n                  <th>Encounter</th>\n                  <th>http://hl7.org/fhir/us/qicore/StructureDefinition/qicore-encounter</th>\n                  <th>;;</th>\n                  <th>\n                    \n                  </th>\n                </tr>\n              \n                <tr>\n                  <th>Encounter</th>\n                  <th>http://hl7.org/fhir/us/qicore/StructureDefinition/qicore-encounter</th>\n                  <th>;;</th>\n                  <th>\n                    \n                      <b>code filter: </b>\n                      \n                      <br/>\n                      \n                      \n                      <span style=\"padding-left: 4px;\">\n                          <b>path: </b><span>type</span>\n                      </span>\n                      \n                      <br/>\n                      \n                      \n                      \n                      <span style=\"padding-left: 4px;\">\n                          <b>value set: </b><span>http://cts.nlm.nih.gov/fhir/ValueSet/2.16.840.1.113883.3.464.1003.101.12.1022</span>\n                      </span>\n                      \n                      \n                    \n                  </th>\n                </tr>\n              \n                <tr>\n                  <th>Encounter</th>\n                  <th>http://hl7.org/fhir/us/qicore/StructureDefinition/qicore-encounter</th>\n                  <th>;;</th>\n                  <th>\n                    \n                      <b>code filter: </b>\n                      \n                      <br/>\n                      \n                      \n                      <span style=\"padding-left: 4px;\">\n                          <b>path: </b><span>type</span>\n                      </span>\n                      \n                      <br/>\n                      \n                      \n                      \n                      <span style=\"padding-left: 4px;\">\n                          <b>value set: </b><span>http://cts.nlm.nih.gov/fhir/ValueSet/2.16.840.1.113883.3.464.1003.101.12.1026</span>\n                      </span>\n                      \n                      \n                    \n                  </th>\n                </tr>\n              \n                <tr>\n                  <th>Encounter</th>\n                  <th>http://hl7.org/fhir/us/qicore/StructureDefinition/qicore-encounter</th>\n                  <th>;;</th>\n                  <th>\n                    \n                      <b>code filter: </b>\n                      \n                      <br/>\n                      \n                      \n                      <span style=\"padding-left: 4px;\">\n                          <b>path: </b><span>type</span>\n                      </span>\n                      \n                      <br/>\n                      \n                      \n                      \n                      <span style=\"padding-left: 4px;\">\n                          <b>value set: </b><span>http://cts.nlm.nih.gov/fhir/ValueSet/2.16.840.1.113883.3.464.1003.101.12.1023</span>\n                      </span>\n                      \n                      \n                    \n                  </th>\n                </tr>\n              \n                <tr>\n                  <th>Encounter</th>\n                  <th>http://hl7.org/fhir/us/qicore/StructureDefinition/qicore-encounter</th>\n                  <th>;;</th>\n                  <th>\n                    \n                      <b>code filter: </b>\n                      \n                      <br/>\n                      \n                      \n                      <span style=\"padding-left: 4px;\">\n                          <b>path: </b><span>type</span>\n                      </span>\n                      \n                      <br/>\n                      \n                      \n                      \n                      <span style=\"padding-left: 4px;\">\n                          <b>value set: </b><span>http://cts.nlm.nih.gov/fhir/ValueSet/2.16.840.1.113883.3.464.1003.101.12.1024</span>\n                      </span>\n                      \n                      \n                    \n                  </th>\n                </tr>\n              \n                <tr>\n                  <th>Encounter</th>\n                  <th>http://hl7.org/fhir/us/qicore/StructureDefinition/qicore-encounter</th>\n                  <th>;;;;</th>\n                  <th>\n                    \n                      <b>code filter: </b>\n                      \n                      <br/>\n                      \n                      \n                      <span style=\"padding-left: 4px;\">\n                          <b>path: </b><span>type</span>\n                      </span>\n                      \n                      <br/>\n                      \n                      \n                      \n                      <span style=\"padding-left: 4px;\">\n                          <b>value set: </b><span>http://cts.nlm.nih.gov/fhir/ValueSet/2.16.840.1.113883.3.666.5.307</span>\n                      </span>\n                      \n                      \n                    \n                  </th>\n                </tr>\n              \n                <tr>\n                  <th>Encounter</th>\n                  <th>http://hl7.org/fhir/us/qicore/StructureDefinition/qicore-encounter</th>\n                  <th>;;</th>\n                  <th>\n                    \n                      <b>code filter: </b>\n                      \n                      <br/>\n                      \n                      \n                      <span style=\"padding-left: 4px;\">\n                          <b>path: </b><span>type</span>\n                      </span>\n                      \n                      <br/>\n                      \n                      \n                      \n                      <span style=\"padding-left: 4px;\">\n                          <b>value set: </b><span>http://cts.nlm.nih.gov/fhir/ValueSet/2.16.840.1.113883.3.464.1003.1003</span>\n                      </span>\n                      \n                      \n                    \n                  </th>\n                </tr>\n              \n                <tr>\n                  <th>MedicationRequest</th>\n                  <th>http://hl7.org/fhir/us/qicore/StructureDefinition/qicore-medicationrequest</th>\n                  <th>;</th>\n                  <th>\n                    \n                      <b>code filter: </b>\n                      \n                      <br/>\n                      \n                      \n                      <span style=\"padding-left: 4px;\">\n                          <b>path: </b><span>medication</span>\n                      </span>\n                      \n                      <br/>\n                      \n                      \n                      \n                      <span style=\"padding-left: 4px;\">\n                          <b>value set: </b><span>http://cts.nlm.nih.gov/fhir/ValueSet/2.16.840.1.113883.3.464.1003.196.12.1001</span>\n                      </span>\n                      \n                      \n                    \n                  </th>\n                </tr>\n              \n                <tr>\n                  <th>MedicationRequest</th>\n                  <th>http://hl7.org/fhir/us/qicore/StructureDefinition/qicore-medicationrequest</th>\n                  <th>;</th>\n                  <th>\n                    \n                  </th>\n                </tr>\n              \n                <tr>\n                  <th>Medication</th>\n                  <th>http://hl7.org/fhir/us/qicore/StructureDefinition/qicore-medication</th>\n                  <th>;;</th>\n                  <th>\n                    \n                  </th>\n                </tr>\n              \n                <tr>\n                  <th>Condition</th>\n                  <th>http://hl7.org/fhir/us/qicore/StructureDefinition/qicore-condition-encounter-diagnosis</th>\n                  <th>;</th>\n                  <th>\n                    \n                      <b>code filter: </b>\n                      \n                      <br/>\n                      \n                      \n                      <span style=\"padding-left: 4px;\">\n                          <b>path: </b><span>code</span>\n                      </span>\n                      \n                      <br/>\n                      \n                      \n                      \n                      <span style=\"padding-left: 4px;\">\n                          <b>value set: </b><span>http://cts.nlm.nih.gov/fhir/ValueSet/2.16.840.1.113883.3.464.1003.102.12.1011</span>\n                      </span>\n                      \n                      \n                    \n                  </th>\n                </tr>\n              \n                <tr>\n                  <th>Condition</th>\n                  <th>http://hl7.org/fhir/us/qicore/StructureDefinition/qicore-condition-encounter-diagnosis</th>\n                  <th>;</th>\n                  <th>\n                    \n                      <b>code filter: </b>\n                      \n                      <br/>\n                      \n                      \n                      <span style=\"padding-left: 4px;\">\n                          <b>path: </b><span>code</span>\n                      </span>\n                      \n                      <br/>\n                      \n                      \n                      \n                      <span style=\"padding-left: 4px;\">\n                          <b>value set: </b><span>http://cts.nlm.nih.gov/fhir/ValueSet/2.16.840.1.113883.3.464.1003.102.12.1012</span>\n                      </span>\n                      \n                      \n                    \n                  </th>\n                </tr>\n              \n                <tr>\n                  <th>Condition</th>\n                  <th>http://hl7.org/fhir/us/qicore/StructureDefinition/qicore-condition-encounter-diagnosis</th>\n                  <th>;</th>\n                  <th>\n                    \n                      <b>code filter: </b>\n                      \n                      <br/>\n                      \n                      \n                      <span style=\"padding-left: 4px;\">\n                          <b>path: </b><span>code</span>\n                      </span>\n                      \n                      <br/>\n                      \n                      \n                      \n                      <span style=\"padding-left: 4px;\">\n                          <b>value set: </b><span>http://cts.nlm.nih.gov/fhir/ValueSet/2.16.840.1.113883.3.464.1003.1165</span>\n                      </span>\n                      \n                      \n                    \n                  </th>\n                </tr>\n              \n                <tr>\n                  <th>Condition</th>\n                  <th>http://hl7.org/fhir/us/qicore/StructureDefinition/qicore-condition-encounter-diagnosis</th>\n                  <th>;</th>\n                  <th>\n                    \n                      <b>code filter: </b>\n                      \n                      <br/>\n                      \n                      \n                      <span style=\"padding-left: 4px;\">\n                          <b>path: </b><span>code</span>\n                      </span>\n                      \n                      <br/>\n                      \n                      \n                      \n                      <span style=\"padding-left: 4px;\">\n                          <b>value set: </b><span>http://cts.nlm.nih.gov/fhir/ValueSet/2.16.840.1.113883.3.464.1003.102.12.1025</span>\n                      </span>\n                      \n                      \n                    \n                  </th>\n                </tr>\n              \n                <tr>\n                  <th>Condition</th>\n                  <th>http://hl7.org/fhir/us/qicore/StructureDefinition/qicore-condition-encounter-diagnosis</th>\n                  <th>;</th>\n                  <th>\n                    \n                      <b>code filter: </b>\n                      \n                      <br/>\n                      \n                      \n                      <span style=\"padding-left: 4px;\">\n                          <b>path: </b><span>code</span>\n                      </span>\n                      \n                      <br/>\n                      \n                      \n                      \n                      <span style=\"padding-left: 4px;\">\n                          <b>value set: </b><span>http://cts.nlm.nih.gov/fhir/ValueSet/2.16.840.1.113883.3.464.1003.102.12.1017</span>\n                      </span>\n                      \n                      \n                    \n                  </th>\n                </tr>\n              \n                <tr>\n                  <th>Observation</th>\n                  <th>http://hl7.org/fhir/us/qicore/StructureDefinition/qicore-observation-lab</th>\n                  <th>;;;</th>\n                  <th>\n                    \n                      <b>code filter: </b>\n                      \n                      <br/>\n                      \n                      \n                      <span style=\"padding-left: 4px;\">\n                          <b>path: </b><span>code</span>\n                      </span>\n                      \n                      <br/>\n                      \n                      \n                      \n                      <span style=\"padding-left: 4px;\">\n                          <b>value set: </b><span>http://cts.nlm.nih.gov/fhir/ValueSet/2.16.840.1.113883.3.464.1003.198.12.1012</span>\n                      </span>\n                      \n                      \n                    \n                  </th>\n                </tr>\n              \n                <tr>\n                  <th>Coverage</th>\n                  <th>http://hl7.org/fhir/us/qicore/StructureDefinition/qicore-coverage</th>\n                  <th>;;</th>\n                  <th>\n                    \n                      <b>code filter: </b>\n                      \n                      <br/>\n                      \n                      \n                      <span style=\"padding-left: 4px;\">\n                          <b>path: </b><span>type</span>\n                      </span>\n                      \n                      <br/>\n                      \n                      \n                      \n                      <span style=\"padding-left: 4px;\">\n                          <b>value set: </b><span>http://cts.nlm.nih.gov/fhir/ValueSet/2.16.840.1.114222.4.11.3591</span>\n                      </span>\n                      \n                      \n                    \n                  </th>\n                </tr>\n              \n                <tr>\n                  <th>Observation</th>\n                  <th>http://hl7.org/fhir/us/qicore/StructureDefinition/qicore-observation-screening-assessment</th>\n                  <th>;;;</th>\n                  <th>\n                    \n                      <b>code filter: </b>\n                      \n                      <br/>\n                      \n                      \n                      <span style=\"padding-left: 4px;\">\n                          <b>path: </b><span>code</span>\n                      </span>\n                      \n                      <br/>\n                      \n                      \n                      \n                      \n                          \n                          <p style=\"margin-bottom: 5px;\">\n                              <b>system: </b> <span>http://loinc.org</span>\n                          </p>\n                          \n                          \n                          <p style=\"margin-bottom: 5px;\">\n                              <b>code: </b> <span>45755-6</span>\n                          </p>\n                          \n                          \n                          <p style=\"margin-bottom: 5px;\">\n                              <b>display: </b> <span>Hospice care [Minimum Data Set]</span>\n                          </p>\n                          \n                      \n                    \n                  </th>\n                </tr>\n              \n                <tr>\n                  <th>ServiceRequest</th>\n                  <th>http://hl7.org/fhir/us/qicore/StructureDefinition/qicore-servicerequest</th>\n                  <th>;;;</th>\n                  <th>\n                    \n                      <b>code filter: </b>\n                      \n                      <br/>\n                      \n                      \n                      <span style=\"padding-left: 4px;\">\n                          <b>path: </b><span>code</span>\n                      </span>\n                      \n                      <br/>\n                      \n                      \n                      \n                      <span style=\"padding-left: 4px;\">\n                          <b>value set: </b><span>http://cts.nlm.nih.gov/fhir/ValueSet/2.16.840.1.113883.3.526.3.1584</span>\n                      </span>\n                      \n                      \n                    \n                  </th>\n                </tr>\n              \n                <tr>\n                  <th>Procedure</th>\n                  <th>http://hl7.org/fhir/us/qicore/StructureDefinition/qicore-procedure</th>\n                  <th>;;</th>\n                  <th>\n                    \n                      <b>code filter: </b>\n                      \n                      <br/>\n                      \n                      \n                      <span style=\"padding-left: 4px;\">\n                          <b>path: </b><span>code</span>\n                      </span>\n                      \n                      <br/>\n                      \n                      \n                      \n                      <span style=\"padding-left: 4px;\">\n                          <b>value set: </b><span>http://cts.nlm.nih.gov/fhir/ValueSet/2.16.840.1.113883.3.526.3.1584</span>\n                      </span>\n                      \n                      \n                    \n                  </th>\n                </tr>\n              \n                <tr>\n                  <th>Condition</th>\n                  <th>http://hl7.org/fhir/us/qicore/StructureDefinition/qicore-condition-problems-health-concerns</th>\n                  <th>;</th>\n                  <th>\n                    \n                      <b>code filter: </b>\n                      \n                      <br/>\n                      \n                      \n                      <span style=\"padding-left: 4px;\">\n                          <b>path: </b><span>code</span>\n                      </span>\n                      \n                      <br/>\n                      \n                      \n                      \n                      <span style=\"padding-left: 4px;\">\n                          <b>value set: </b><span>http://cts.nlm.nih.gov/fhir/ValueSet/2.16.840.1.113883.3.464.1003.1165</span>\n                      </span>\n                      \n                      \n                    \n                  </th>\n                </tr>\n              \n            </table>\n          </td>\n        </tr>\n        \n\n        \n        \n        <tr>\n          <td colspan=\"2\">\n            <table>\n              <tr><th><a id=\"cql-content\"><b>Content: </b></a> text/cql</th></tr>\n              <tr><td><pre><code class=\"language-cql\">library CMS146FHIRAppropriateTestingforPharyngitis version '0.3.000'\r\n\r\nusing QICore version '6.0.0'\r\n\r\ninclude FHIRHelpers version '4.4.000' called FHIRHelpers\r\ninclude SupplementalDataElements version '5.1.000' called SDE\r\ninclude Hospice version '6.15.000' called Hospice\r\ninclude Antibiotic version '1.9.000' called Antibiotic\r\ninclude Status version '1.13.000' called Status\r\ninclude QICoreCommon version '4.0.000' called QICoreCommon\r\n\r\ncodesystem &quot;CPT&quot;: 'http://www.ama-assn.org/go/cpt'\r\n\r\nvalueset &quot;Acute Pharyngitis&quot;: 'http://cts.nlm.nih.gov/fhir/ValueSet/2.16.840.1.113883.3.464.1003.102.12.1011'\r\nvalueset &quot;Acute Tonsillitis&quot;: 'http://cts.nlm.nih.gov/fhir/ValueSet/2.16.840.1.113883.3.464.1003.102.12.1012'\r\nvalueset &quot;Antibiotic Medications for Pharyngitis&quot;: 'http://cts.nlm.nih.gov/fhir/ValueSet/2.16.840.1.113883.3.464.1003.196.12.1001'\r\nvalueset &quot;Comorbid Conditions for Respiratory Conditions&quot;: 'http://cts.nlm.nih.gov/fhir/ValueSet/2.16.840.1.113883.3.464.1003.102.12.1025'\r\nvalueset &quot;Competing Conditions for Respiratory Conditions&quot;: 'http://cts.nlm.nih.gov/fhir/ValueSet/2.16.840.1.113883.3.464.1003.102.12.1017'\r\nvalueset &quot;Emergency Department Evaluation and Management Visit&quot;: 'http://cts.nlm.nih.gov/fhir/ValueSet/2.16.840.1.113883.3.464.1003.101.12.1010'\r\nvalueset &quot;Group A Streptococcus Test&quot;: 'http://cts.nlm.nih.gov/fhir/ValueSet/2.16.840.1.113883.3.464.1003.198.12.1012'\r\nvalueset &quot;Home Healthcare Services&quot;: 'http://cts.nlm.nih.gov/fhir/ValueSet/2.16.840.1.113883.3.464.1003.101.12.1016'\r\nvalueset &quot;Medical Disability Exam&quot;: 'http://cts.nlm.nih.gov/fhir/ValueSet/2.16.840.1.113883.3.464.1003.101.12.1073'\r\nvalueset &quot;Office Visit&quot;: 'http://cts.nlm.nih.gov/fhir/ValueSet/2.16.840.1.113883.3.464.1003.101.12.1001'\r\nvalueset &quot;Outpatient Consultation&quot;: 'http://cts.nlm.nih.gov/fhir/ValueSet/2.16.840.1.113883.3.464.1003.101.12.1008'\r\nvalueset &quot;Preventive Care Services Established Office Visit, 18 and Up&quot;: 'http://cts.nlm.nih.gov/fhir/ValueSet/2.16.840.1.113883.3.464.1003.101.12.1025'\r\nvalueset &quot;Preventive Care Services Group Counseling&quot;: 'http://cts.nlm.nih.gov/fhir/ValueSet/2.16.840.1.113883.3.464.1003.101.12.1027'\r\nvalueset &quot;Preventive Care Services Individual Counseling&quot;: 'http://cts.nlm.nih.gov/fhir/ValueSet/2.16.840.1.113883.3.464.1003.101.12.1026'\r\nvalueset &quot;Preventive Care Services Initial Office Visit, 18 and Up&quot;: 'http://cts.nlm.nih.gov/fhir/ValueSet/2.16.840.1.113883.3.464.1003.101.12.1023'\r\nvalueset &quot;Preventive Care Services, Initial Office Visit, 0 to 17&quot;: 'http://cts.nlm.nih.gov/fhir/ValueSet/2.16.840.1.113883.3.464.1003.101.12.1022'\r\nvalueset &quot;Preventive Care, Established Office Visit, 0 to 17&quot;: 'http://cts.nlm.nih.gov/fhir/ValueSet/2.16.840.1.113883.3.464.1003.101.12.1024'\r\nvalueset &quot;Telephone Visits&quot;: 'http://cts.nlm.nih.gov/fhir/ValueSet/2.16.840.1.113883.3.464.1003.101.12.1080'\r\nvalueset &quot;Virtual Encounter&quot;: 'http://cts.nlm.nih.gov/fhir/ValueSet/2.16.840.1.113883.3.464.1003.101.12.1089'\r\n\r\ncode &quot;Unlisted preventive medicine service&quot;: '99429' from &quot;CPT&quot; display 'Unlisted preventive medicine service'\r\n\r\nparameter &quot;Measurement Period&quot; Interval&lt;DateTime&gt;\r\n\r\ncontext Patient\r\n\r\ndefine &quot;SDE Ethnicity&quot;:\r\n  SDE.&quot;SDE Ethnicity&quot;\r\n\r\ndefine &quot;SDE Payer&quot;:\r\n  SDE.&quot;SDE Payer&quot;\r\n\r\ndefine &quot;SDE Race&quot;:\r\n  SDE.&quot;SDE Race&quot;\r\n\r\ndefine &quot;SDE Sex&quot;:\r\n  SDE.&quot;SDE Sex&quot;\r\n\r\ndefine &quot;Initial Population&quot;:\r\n  &quot;Encounter With Pharyngitis or Tonsillitis With Antibiotic&quot; EncounterWithPharyngitis\r\n    where AgeInYearsAt(date from start of &quot;Measurement Period&quot;) &gt;= 3\r\n    return EncounterWithPharyngitis\r\n\r\ndefine &quot;Encounter With Pharyngitis or Tonsillitis With Antibiotic&quot;:\r\n  from\r\n    &quot;Encounter With Antibiotic Ordered Within Three Days&quot; VisitWithAntibiotic,\r\n    &quot;Pharyngitis or Tonsillitis&quot; AcutePharyngitisTonsillitis\r\n    where AcutePharyngitisTonsillitis.prevalenceInterval ( ) starts during day of VisitWithAntibiotic.period.toInterval ( )\r\n    return VisitWithAntibiotic\r\n\r\ndefine &quot;Pharyngitis or Tonsillitis&quot;:\r\n  ( [ConditionEncounterDiagnosis: &quot;Acute Pharyngitis&quot;]\r\n      union [ConditionEncounterDiagnosis: &quot;Acute Tonsillitis&quot;]\r\n  )\r\n\r\ndefine &quot;Denominator&quot;:\r\n  &quot;Initial Population&quot;\r\n\r\ndefine &quot;Denominator Exclusions&quot;:\r\n  &quot;Encounters and Assessments with Hospice Patient&quot;\r\n    union Antibiotic.&quot;Has Comorbid Condition History&quot; ( &quot;Encounter With Pharyngitis or Tonsillitis With Antibiotic&quot;, ( [ConditionEncounterDiagnosis: &quot;Comorbid Conditions for Respiratory Conditions&quot;] ) )\r\n    union Antibiotic.&quot;Has Antibiotic Medication History&quot; ( &quot;Encounter With Pharyngitis or Tonsillitis With Antibiotic&quot;, ( [MedicationRequest: &quot;Antibiotic Medications for Pharyngitis&quot;] ).isMedicationActive ( ) )\r\n    union Antibiotic.&quot;Has Competing Diagnosis History&quot; ( &quot;Encounter With Pharyngitis or Tonsillitis With Antibiotic&quot;, ( [ConditionEncounterDiagnosis: &quot;Competing Conditions for Respiratory Conditions&quot;] ) )\r\n\r\ndefine &quot;Encounter With Antibiotic Ordered Within Three Days&quot;:\r\n  &quot;Qualifying Encounters&quot; EDOrAmbulatoryVisit\r\n    with ( ( [MedicationRequest: &quot;Antibiotic Medications for Pharyngitis&quot;] ).isMedicationOrder ( ) ) AntibioticOrdered\r\n      such that EDOrAmbulatoryVisit.period.toInterval ( ) starts 3 days or less on or before day of AntibioticOrdered.authoredOn\r\n\r\ndefine &quot;Encounters and Assessments with Hospice Patient&quot;:\r\n  &quot;Initial Population&quot; EligibleEncounters\r\n    where Hospice.&quot;Has Hospice Services&quot;\r\n\r\ndefine &quot;Qualifying Encounters&quot;:\r\n  ( ( [Encounter: &quot;Emergency Department Evaluation and Management Visit&quot;]\r\n      union [Encounter: &quot;Home Healthcare Services&quot;]\r\n      union [Encounter: &quot;Medical Disability Exam&quot;]\r\n      union [Encounter: &quot;Office Visit&quot;]\r\n      union [Encounter: &quot;Telephone Visits&quot;]\r\n      union [Encounter: &quot;Virtual Encounter&quot;]\r\n      union [Encounter: &quot;Outpatient Consultation&quot;]\r\n      union [Encounter: &quot;Preventive Care Services Established Office Visit, 18 and Up&quot;]\r\n      union [Encounter: &quot;Preventive Care Services Group Counseling&quot;]\r\n      union ( [Encounter] E\r\n          where exists ( ( E.type ) T\r\n              where T ~ &quot;Unlisted preventive medicine service&quot;\r\n          )\r\n      )\r\n      union [Encounter: &quot;Preventive Care Services, Initial Office Visit, 0 to 17&quot;]\r\n      union [Encounter: &quot;Preventive Care Services Individual Counseling&quot;]\r\n      union [Encounter: &quot;Preventive Care Services Initial Office Visit, 18 and Up&quot;]\r\n      union [Encounter: &quot;Preventive Care, Established Office Visit, 0 to 17&quot;]\r\n  ).isEncounterPerformed ( ) ) ValidEncounter\r\n    where ValidEncounter.period.toInterval ( ) ends during day of Interval[( start of &quot;Measurement Period&quot; ), ( end of &quot;Measurement Period&quot; ) - 3 days]\r\n\r\ndefine &quot;Numerator&quot;:\r\n  from\r\n    &quot;Group A Streptococcus Lab Test With Result&quot; GroupAStreptococcusTest,\r\n    &quot;Encounter With Pharyngitis or Tonsillitis With Antibiotic&quot; EncounterWithPharyngitis\r\n    where GroupAStreptococcusTest.effective.toInterval ( ) starts during day of Interval[( end of EncounterWithPharyngitis.period ) - 3 days, ( end of EncounterWithPharyngitis.period ) + 3 days]\r\n    return EncounterWithPharyngitis\r\n\r\ndefine &quot;Group A Streptococcus Lab Test With Result&quot;:\r\n  ( ( [LaboratoryResultObservation: &quot;Group A Streptococcus Test&quot;] ).isLaboratoryTestPerformed ( ) ) GroupAStreptococcusTest\r\n    where GroupAStreptococcusTest.value is not null\r\n\r\ndefine &quot;Stratification 1&quot;:\r\n  &quot;Encounter With Pharyngitis or Tonsillitis With Antibiotic&quot; EncounterWithPharyngitis\r\n    where AgeInYearsAt(date from start of &quot;Measurement Period&quot;) in Interval[3, 17]\r\n    return EncounterWithPharyngitis\r\n\r\ndefine &quot;Stratification 2&quot;:\r\n  &quot;Encounter With Pharyngitis or Tonsillitis With Antibiotic&quot; EncounterWithPharyngitis\r\n    where AgeInYearsAt(date from start of &quot;Measurement Period&quot;) in Interval[18, 64]\r\n    return EncounterWithPharyngitis\r\n\r\ndefine &quot;Stratification 3&quot;:\r\n  &quot;Encounter With Pharyngitis or Tonsillitis With Antibiotic&quot; EncounterWithPharyngitis\r\n    where AgeInYearsAt(date from start of &quot;Measurement Period&quot;) &gt;= 65\r\n    return EncounterWithPharyngitis</code></pre></td></tr>\n            </table>\n          </td>\n        </tr>\n        \n        \n        \n    </table>\n</div>"},"contained":[{"resourceType":"Parameters","id":"options","parameter":[{"name":"translatorVersion","valueString":"3.25.0"},{"name":"option","valueString":"EnableAnnotations"},{"name":"option","valueString":"EnableLocators"},{"name":"option","valueString":"DisableListDemotion"},{"name":"option","valueString":"DisableListPromotion"},{"name":"format","valueString":"JSON"},{"name":"format","valueString":"XML"},{"name":"analyzeDataRequirements","valueBoolean":false},{"name":"collapseDataRequirements","valueBoolean":false},{"name":"compatibilityLevel","valueString":"1.5"},{"name":"enableCqlOnly","valueBoolean":false},{"name":"errorLevel","valueString":"Info"},{"name":"signatureLevel","valueString":"Overloads"},{"name":"validateUnits","valueBoolean":true},{"name":"verifyOnly","valueBoolean":false}]}],"extension":[{"url":"http://hl7.org/fhir/StructureDefinition/cqf-directReferenceCode","valueCoding":{"system":"http://www.ama-assn.org/go/cpt","code":"99429","display":"Unlisted preventive medicine service"}},{"url":"http://hl7.org/fhir/StructureDefinition/cqf-cqlOptions","valueReference":{"reference":"#options"}}],"url":"https://madie.cms.gov/Library/CMS146FHIRAppropriateTestingforPharyngitis","identifier":[{"use":"official","system":"https://madie.cms.gov/login","value":"CMS146FHIRAppropriateTestingforPharyngitis"}],"version":"0.3.000","name":"CMS146FHIRAppropriateTestingforPharyngitis","title":"CMS146FHIRAppropriateTestingforPharyngitis","status":"active","experimental":false,"type":{"coding":[{"system":"http://terminology.hl7.org/CodeSystem/library-type","code":"logic-library"}]},"date":"2025-04-15T20:44:03+00:00","publisher":"National Committee for Quality Assurance","description":"CMS146FHIRAppropriateTestingforPharyngitis","content":[{"contentType":"text/cql","data":""}]},"request":{"method":"PUT","url":"Library/CMS146FHIRAppropriateTestingforPharyngitis"}},{"resource":{"resourceType":"Condition","id":"a874936f-fe54-4e57-9b9c-db3cd8a214c5","meta":{"profile":["http://hl7.org/fhir/us/qicore/StructureDefinition/qicore-condition-encounter-diagnosis"]},"clinicalStatus":{"coding":[{"system":"http://terminology.hl7.org/CodeSystem/condition-clinical","code":"active"}]},"category":[{"coding":[{"system":"http://terminology.hl7.org/CodeSystem/condition-category","code":"problem-list-item","display":"Problem List Item"}]}],"code":{"coding":[{"system":"http://snomed.info/sct","code":"17741008","display":"Acute tonsillitis (disorder)"}]},"subject":{"reference":"Patient/f2d9aa30-e8ae-4b9b-81b8-3a64c5c939ca"},"onsetDateTime":"2026-10-11T12:48:00.000Z"},"request":{"method":"PUT","url":"Condition/a874936f-fe54-4e57-9b9c-db3cd8a214c5"}},{"resource":{"resourceType":"Encounter","id":"216b25f3-c386-47b4-951c-7b54d9f9f007","meta":{"profile":["http://hl7.org/fhir/us/qicore/StructureDefinition/qicore-encounter"]},"status":"finished","class":{"system":"http://terminology.hl7.org/CodeSystem/v3-ActCode","code":"AMB","display":"ambulatory"},"type":[{"coding":[{"system":"http://snomed.info/sct","code":"281036007","display":"Follow-up consultation (procedure)"}]}],"subject":{"reference":"Patient/f2d9aa30-e8ae-4b9b-81b8-3a64c5c939ca"},"period":{"start":"2026-10-11T12:45:00.000Z","end":"2026-10-11T12:59:00.000Z"}},"request":{"method":"PUT","url":"Encounter/216b25f3-c386-47b4-951c-7b54d9f9f007"}},{"resource":{"resourceType":"MeasureReport","id":"098dd030-ac9c-4e95-8acd-f8100e4b8029","meta":{"profile":["http://hl7.org/fhir/us/cqfmeasures/StructureDefinition/test-case-cqfm"]},"contained":[{"resourceType":"Parameters","id":"1b550ec0-08b3-4126-b1c2-f1ce108358a5-parameters","parameter":[{"name":"subject","valueString":"f2d9aa30-e8ae-4b9b-81b8-3a64c5c939ca"}]}],"extension":[{"url":"http://hl7.org/fhir/StructureDefinition/cqf-inputParameters","valueReference":{"reference":"#1b550ec0-08b3-4126-b1c2-f1ce108358a5-parameters"}},{"url":"http://hl7.org/fhir/us/cqfmeasures/StructureDefinition/cqfm-testCaseDescription","valueMarkdown":"Qualifying encounter is Outpatient Consultation"}],"modifierExtension":[{"url":"http://hl7.org/fhir/us/cqfmeasures/StructureDefinition/cqfm-isTestCase","valueBoolean":true}],"status":"complete","type":"individual","measure":"https://madie.cms.gov/Measure/CMS146FHIRAppropriateTestingforPharyngitis","period":{"start":"2026-01-01","end":"2026-12-31"},"group":[{"id":"Group_1","population":[{"id":"InitialPopulation_1","code":{"coding":[{"system":"http://terminology.hl7.org/CodeSystem/measure-population","code":"initial-population","display":"Initial Population"}]},"count":1},{"id":"Denominator_1","code":{"coding":[{"system":"http://terminology.hl7.org/CodeSystem/measure-population","code":"denominator","display":"Denominator"}]},"count":1},{"id":"DenominatorExclusion_1","code":{"coding":[{"system":"http://terminology.hl7.org/CodeSystem/measure-population","code":"denominator-exclusion","display":"Denominator Exclusion"}]},"count":0},{"id":"Numerator_1","code":{"coding":[{"system":"http://terminology.hl7.org/CodeSystem/measure-population","code":"numerator","display":"Numerator"}]},"count":0}],"measureScore":{"value":0.0},"stratifier":[{"id":"Stratification_1_1","code":[{"text":"Strata-1"}],"stratum":[{"value":{"text":"Strata-1"},"population":[{"id":"InitialPopulation_1","code":{"coding":[{"system":"http://terminology.hl7.org/CodeSystem/measure-population","code":"initial-population","display":"Initial Population"}]},"count":1}]}]},{"id":"Stratification_1_2","code":[{"text":"Strata-2"}],"stratum":[{"value":{"text":"Strata-2"},"population":[{"id":"InitialPopulation_1","code":{"coding":[{"system":"http://terminology.hl7.org/CodeSystem/measure-population","code":"initial-population","display":"Initial Population"}]},"count":1}]}]},{"id":"Stratification_1_3","code":[{"text":"Strata-3"}],"stratum":[{"value":{"text":"Strata-3"},"population":[{"id":"InitialPopulation_1","code":{"coding":[{"system":"http://terminology.hl7.org/CodeSystem/measure-population","code":"initial-population","display":"Initial Population"}]},"count":1}]}]}]}],"evaluatedResource":[{"reference":"Patient/f2d9aa30-e8ae-4b9b-81b8-3a64c5c939ca"},{"reference":"Encounter/216b25f3-c386-47b4-951c-7b54d9f9f007"},{"reference":"Condition/a874936f-fe54-4e57-9b9c-db3cd8a214c5"},{"reference":"MedicationRequest/43d5d293-7255-41f9-81e7-1dd8b6a400d7"}]},"request":{"method":"PUT","url":"MeasureReport/098dd030-ac9c-4e95-8acd-f8100e4b8029"}},{"resource":{"resourceType":"MedicationRequest","id":"43d5d293-7255-41f9-81e7-1dd8b6a400d7","meta":{"profile":["http://hl7.org/fhir/us/qicore/StructureDefinition/qicore-medicationrequest"]},"status":"completed","intent":"order","category":[{"coding":[{"system":"http://terminology.hl7.org/CodeSystem/medicationrequest-category","code":"discharge","display":"Discharge"}]}],"medicationCodeableConcept":{"coding":[{"system":"http://www.nlm.nih.gov/research/umls/rxnorm","code":"141963","display":"azithromycin 40 MG/ML Oral Suspension","userSelected":true}]},"subject":{"reference":"Patient/f2d9aa30-e8ae-4b9b-81b8-3a64c5c939ca"},"authoredOn":"2026-10-12T00:00:00.000Z","requester":{"reference":"Practitioner/example"},"dosageInstruction":[{"timing":{"repeat":{"boundsPeriod":{"start":"2026-10-12T00:00:00.000Z","end":"2026-10-20T00:00:00.000Z"}}}}]},"request":{"method":"PUT","url":"MedicationRequest/43d5d293-7255-41f9-81e7-1dd8b6a400d7"}},{"resource":{"resourceType":"Patient","id":"f2d9aa30-e8ae-4b9b-81b8-3a64c5c939ca","meta":{"profile":["http://hl7.org/fhir/us/qicore/StructureDefinition/qicore-patient"]},"extension":[{"url":"http://hl7.org/fhir/us/core/StructureDefinition/us-core-race","extension":[{"url":"ombCategory","valueCoding":{"system":"urn:oid:2.16.840.1.113883.6.238","code":"2028-9","display":"Asian","userSelected":true}},{"url":"text","valueString":"Asian"}]},{"url":"http://hl7.org/fhir/us/core/StructureDefinition/us-core-ethnicity","extension":[{"url":"ombCategory","valueCoding":{"system":"urn:oid:2.16.840.1.113883.6.238","code":"2135-2","display":"Hispanic or Latino","userSelected":true}},{"url":"text","valueString":"Hispanic or Latino"}]}],"identifier":[{"type":{"coding":[{"system":"http://terminology.hl7.org/CodeSystem/v2-0203","code":"MR"}]},"system":"http://hospital.smarthealthit.org","value":"999999995"}],"name":[{"family":"Bertha","given":["Betty"]}],"gender":"male","birthDate":"2021-01-01"},"request":{"method":"PUT","url":"Patient/f2d9aa30-e8ae-4b9b-81b8-3a64c5c939ca"}},{"resource":{"resourceType":"MedicationRequest","id":"165c9998-565e-4093-81ae-9d3fd087f910","meta":{"profile":["http://hl7.org/fhir/us/qicore/StructureDefinition/qicore-medicationrequest"]},"status":"completed","intent":"order","category":[{"coding":[{"system":"http://terminology.hl7.org/CodeSystem/medicationrequest-category","code":"discharge","display":"Discharge"}]}],"medicationCodeableConcept":{"coding":[{"system":"http://www.nlm.nih.gov/research/umls/rxnorm","code":"141963","display":"azithromycin 40 MG/ML Oral Suspension","userSelected":true}]},"subject":{"reference":"Patient/946c9d68-dc7a-449a-a113-d76a735e3403"},"authoredOn":"2026-10-12T00:00:00.000Z","requester":{"reference":"Practitioner/example"},"dosageInstruction":[{"timing":{"repeat":{"boundsPeriod":{"start":"2026-10-12T00:00:00.000Z","end":"2026-10-20T00:00:00.000Z"}}}}]},"request":{"method":"PUT","url":"MedicationRequest/165c9998-565e-4093-81ae-9d3fd087f910"}},{"resource":{"resourceType":"Patient","id":"946c9d68-dc7a-449a-a113-d76a735e3403","meta":{"profile":["http://hl7.org/fhir/us/qicore/StructureDefinition/qicore-patient"]},"extension":[{"url":"http://hl7.org/fhir/us/core/StructureDefinition/us-core-race","extension":[{"url":"ombCategory","valueCoding":{"system":"urn:oid:2.16.840.1.113883.6.238","code":"2028-9","display":"Asian","userSelected":true}},{"url":"text","valueString":"Asian"}]},{"url":"http://hl7.org/fhir/us/core/StructureDefinition/us-core-ethnicity","extension":[{"url":"ombCategory","valueCoding":{"system":"urn:oid:2.16.840.1.113883.6.238","code":"2135-2","display":"Hispanic or Latino","userSelected":true}},{"url":"text","valueString":"Hispanic or Latino"}]}],"identifier":[{"type":{"coding":[{"system":"http://terminology.hl7.org/CodeSystem/v2-0203","code":"MR"}]},"system":"http://hospital.smarthealthit.org","value":"999999995"}],"name":[{"family":"Bertha","given":["Betty"]}],"gender":"male","birthDate":"2021-01-01"},"request":{"method":"PUT","url":"Patient/946c9d68-dc7a-449a-a113-d76a735e3403"}},{"resource":{"resourceType":"MeasureReport","id":"a410fad2-482b-4151-9bae-84cb5f2fd81e","meta":{"profile":["http://hl7.org/fhir/us/cqfmeasures/StructureDefinition/test-case-cqfm"]},"contained":[{"resourceType":"Parameters","id":"a2ffedc4-02d1-488a-90fe-c2886edfe445-parameters","parameter":[{"name":"subject","valueString":"946c9d68-dc7a-449a-a113-d76a735e3403"}]}],"extension":[{"url":"http://hl7.org/fhir/StructureDefinition/cqf-inputParameters","valueReference":{"reference":"#a2ffedc4-02d1-488a-90fe-c2886edfe445-parameters"}},{"url":"http://hl7.org/fhir/us/cqfmeasures/StructureDefinition/cqfm-testCaseDescription","valueMarkdown":"Qualifying encounter is Preventive Care, Established Office Visit, 0 to 17"}],"modifierExtension":[{"url":"http://hl7.org/fhir/us/cqfmeasures/StructureDefinition/cqfm-isTestCase","valueBoolean":true}],"status":"complete","type":"individual","measure":"https://madie.cms.gov/Measure/CMS146FHIRAppropriateTestingforPharyngitis","period":{"start":"2026-01-01","end":"2026-12-31"},"group":[{"id":"Group_1","population":[{"id":"InitialPopulation_1","code":{"coding":[{"system":"http://terminology.hl7.org/CodeSystem/measure-population","code":"initial-population","display":"Initial Population"}]},"count":1},{"id":"Denominator_1","code":{"coding":[{"system":"http://terminology.hl7.org/CodeSystem/measure-population","code":"denominator","display":"Denominator"}]},"count":1},{"id":"DenominatorExclusion_1","code":{"coding":[{"system":"http://terminology.hl7.org/CodeSystem/measure-population","code":"denominator-exclusion","display":"Denominator Exclusion"}]},"count":0},{"id":"Numerator_1","code":{"coding":[{"system":"http://terminology.hl7.org/CodeSystem/measure-population","code":"numerator","display":"Numerator"}]},"count":0}],"measureScore":{"value":0.0},"stratifier":[{"id":"Stratification_1_1","code":[{"text":"Strata-1"}],"stratum":[{"value":{"text":"Strata-1"},"population":[{"id":"InitialPopulation_1","code":{"coding":[{"system":"http://terminology.hl7.org/CodeSystem/measure-population","code":"initial-population","display":"Initial Population"}]},"count":1}]}]},{"id":"Stratification_1_2","code":[{"text":"Strata-2"}],"stratum":[{"value":{"text":"Strata-2"},"population":[{"id":"InitialPopulation_1","code":{"coding":[{"system":"http://terminology.hl7.org/CodeSystem/measure-population","code":"initial-population","display":"Initial Population"}]},"count":1}]}]},{"id":"Stratification_1_3","code":[{"text":"Strata-3"}],"stratum":[{"value":{"text":"Strata-3"},"population":[{"id":"InitialPopulation_1","code":{"coding":[{"system":"http://terminology.hl7.org/CodeSystem/measure-population","code":"initial-population","display":"Initial Population"}]},"count":1}]}]}]}],"evaluatedResource":[{"reference":"Patient/946c9d68-dc7a-449a-a113-d76a735e3403"},{"reference":"Encounter/a78fc8f0-9c87-4eda-9f1c-09905f1c64d8"},{"reference":"Condition/7bdfe387-6d72-4d3e-b176-68572f0787a4"},{"reference":"MedicationRequest/165c9998-565e-4093-81ae-9d3fd087f910"}]},"request":{"method":"PUT","url":"MeasureReport/a410fad2-482b-4151-9bae-84cb5f2fd81e"}},{"resource":{"resourceType":"Encounter","id":"a78fc8f0-9c87-4eda-9f1c-09905f1c64d8","meta":{"profile":["http://hl7.org/fhir/us/qicore/StructureDefinition/qicore-encounter"]},"status":"finished","class":{"system":"http://terminology.hl7.org/CodeSystem/v3-ActCode","code":"AMB","display":"ambulatory"},"type":[{"coding":[{"system":"http://www.ama-assn.org/go/cpt","code":"99393","display":"Periodic comprehensive preventive medicine reevaluation and management of an individual including an age and gender appropriate history, examination, counseling/anticipatory guidance/risk factor reduction interventions, and the ordering of laboratory/diagnostic procedures, established patient; late childhood (age 5 through 11 years)"}]}],"subject":{"reference":"Patient/946c9d68-dc7a-449a-a113-d76a735e3403"},"period":{"start":"2026-10-11T00:00:00.000Z","end":"2026-10-11T23:59:59.000Z"}},"request":{"method":"PUT","url":"Encounter/a78fc8f0-9c87-4eda-9f1c-09905f1c64d8"}},{"resource":{"resourceType":"Condition","id":"7bdfe387-6d72-4d3e-b176-68572f0787a4","meta":{"profile":["http://hl7.org/fhir/us/qicore/StructureDefinition/qicore-condition-encounter-diagnosis"]},"clinicalStatus":{"coding":[{"system":"http://terminology.hl7.org/CodeSystem/condition-clinical","code":"active"}]},"category":[{"coding":[{"system":"http://terminology.hl7.org/CodeSystem/condition-category","code":"problem-list-item","display":"Problem List Item"}]}],"code":{"coding":[{"system":"http://snomed.info/sct","code":"17741008","display":"Acute tonsillitis (disorder)"}]},"subject":{"reference":"Patient/946c9d68-dc7a-449a-a113-d76a735e3403"},"onsetDateTime":"2026-10-11T12:48:00.000Z"},"request":{"method":"PUT","url":"Condition/7bdfe387-6d72-4d3e-b176-68572f0787a4"}},{"resource":{"resourceType":"Encounter","id":"6de88ed8-c9c5-48fc-aac0-63f1d78273d1","meta":{"profile":["http://hl7.org/fhir/us/qicore/StructureDefinition/qicore-encounter"]},"status":"finished","class":{"system":"http://terminology.hl7.org/CodeSystem/v3-ActCode","code":"AMB","display":"ambulatory"},"type":[{"coding":[{"system":"http://www.ama-assn.org/go/cpt","code":"99429","display":"Unlisted preventive medicine service"}]}],"subject":{"reference":"Patient/0b0bcb31-89d5-4246-8b55-fae200385eab"},"period":{"start":"2026-10-11T00:00:00.000Z","end":"2026-10-11T23:59:59.000Z"}},"request":{"method":"PUT","url":"Encounter/6de88ed8-c9c5-48fc-aac0-63f1d78273d1"}},{"resource":{"resourceType":"MeasureReport","id":"bf7a1370-f686-4209-a5b1-4bd4bcc59cfd","meta":{"profile":["http://hl7.org/fhir/us/cqfmeasures/StructureDefinition/test-case-cqfm"]},"contained":[{"resourceType":"Parameters","id":"2635319a-0243-45e8-a357-42af515d7c29-parameters","parameter":[{"name":"subject","valueString":"0b0bcb31-89d5-4246-8b55-fae200385eab"}]}],"extension":[{"url":"http://hl7.org/fhir/StructureDefinition/cqf-inputParameters","valueReference":{"reference":"#2635319a-0243-45e8-a357-42af515d7c29-parameters"}},{"url":"http://hl7.org/fhir/us/cqfmeasures/StructureDefinition/cqfm-testCaseDescription","valueMarkdown":"Qualifying encounter is Unlisted preventive medicine service"}],"modifierExtension":[{"url":"http://hl7.org/fhir/us/cqfmeasures/StructureDefinition/cqfm-isTestCase","valueBoolean":true}],"status":"complete","type":"individual","measure":"https://madie.cms.gov/Measure/CMS146FHIRAppropriateTestingforPharyngitis","period":{"start":"2026-01-01","end":"2026-12-31"},"group":[{"id":"Group_1","population":[{"id":"InitialPopulation_1","code":{"coding":[{"system":"http://terminology.hl7.org/CodeSystem/measure-population","code":"initial-population","display":"Initial Population"}]},"count":1},{"id":"Denominator_1","code":{"coding":[{"system":"http://terminology.hl7.org/CodeSystem/measure-population","code":"denominator","display":"Denominator"}]},"count":1},{"id":"DenominatorExclusion_1","code":{"coding":[{"system":"http://terminology.hl7.org/CodeSystem/measure-population","code":"denominator-exclusion","display":"Denominator Exclusion"}]},"count":0},{"id":"Numerator_1","code":{"coding":[{"system":"http://terminology.hl7.org/CodeSystem/measure-population","code":"numerator","display":"Numerator"}]},"count":0}],"measureScore":{"value":0.0},"stratifier":[{"id":"Stratification_1_1","code":[{"text":"Strata-1"}],"stratum":[{"value":{"text":"Strata-1"},"population":[{"id":"InitialPopulation_1","code":{"coding":[{"system":"http://terminology.hl7.org/CodeSystem/measure-population","code":"initial-population","display":"Initial Population"}]},"count":1}]}]},{"id":"Stratification_1_2","code":[{"text":"Strata-2"}],"stratum":[{"value":{"text":"Strata-2"},"population":[{"id":"InitialPopulation_1","code":{"coding":[{"system":"http://terminology.hl7.org/CodeSystem/measure-population","code":"initial-population","display":"Initial Population"}]},"count":1}]}]},{"id":"Stratification_1_3","code":[{"text":"Strata-3"}],"stratum":[{"value":{"text":"Strata-3"},"population":[{"id":"InitialPopulation_1","code":{"coding":[{"system":"http://terminology.hl7.org/CodeSystem/measure-population","code":"initial-population","display":"Initial Population"}]},"count":1}]}]}]}],"evaluatedResource":[{"reference":"Patient/0b0bcb31-89d5-4246-8b55-fae200385eab"},{"reference":"Encounter/6de88ed8-c9c5-48fc-aac0-63f1d78273d1"},{"reference":"Condition/47754321-a49e-4090-b3a8-d9f85d8e906e"},{"reference":"MedicationRequest/a5fc3354-fae4-4b14-8b1d-46ffd7eafe9d"}]},"request":{"method":"PUT","url":"MeasureReport/bf7a1370-f686-4209-a5b1-4bd4bcc59cfd"}},{"resource":{"resourceType":"Patient","id":"0b0bcb31-89d5-4246-8b55-fae200385eab","meta":{"profile":["http://hl7.org/fhir/us/qicore/StructureDefinition/qicore-patient"]},"extension":[{"url":"http://hl7.org/fhir/us/core/StructureDefinition/us-core-race","extension":[{"url":"ombCategory","valueCoding":{"system":"urn:oid:2.16.840.1.113883.6.238","code":"2028-9","display":"Asian","userSelected":true}},{"url":"text","valueString":"Asian"}]},{"url":"http://hl7.org/fhir/us/core/StructureDefinition/us-core-ethnicity","extension":[{"url":"ombCategory","valueCoding":{"system":"urn:oid:2.16.840.1.113883.6.238","code":"2135-2","display":"Hispanic or Latino","userSelected":true}},{"url":"text","valueString":"Hispanic or Latino"}]}],"identifier":[{"type":{"coding":[{"system":"http://terminology.hl7.org/CodeSystem/v2-0203","code":"MR"}]},"system":"http://hospital.smarthealthit.org","value":"999999995"}],"name":[{"family":"Bertha","given":["Betty"]}],"gender":"male","birthDate":"2021-01-01"},"request":{"method":"PUT","url":"Patient/0b0bcb31-89d5-4246-8b55-fae200385eab"}},{"resource":{"resourceType":"Condition","id":"47754321-a49e-4090-b3a8-d9f85d8e906e","meta":{"profile":["http://hl7.org/fhir/us/qicore/StructureDefinition/qicore-condition-encounter-diagnosis"]},"clinicalStatus":{"coding":[{"system":"http://terminology.hl7.org/CodeSystem/condition-clinical","code":"active"}]},"category":[{"coding":[{"system":"http://terminology.hl7.org/CodeSystem/condition-category","code":"problem-list-item","display":"Problem List Item"}]}],"code":{"coding":[{"system":"http://snomed.info/sct","code":"17741008","display":"Acute tonsillitis (disorder)"}]},"subject":{"reference":"Patient/0b0bcb31-89d5-4246-8b55-fae200385eab"},"onsetDateTime":"2026-10-11T12:48:00.000Z"},"request":{"method":"PUT","url":"Condition/47754321-a49e-4090-b3a8-d9f85d8e906e"}},{"resource":{"resourceType":"MedicationRequest","id":"a5fc3354-fae4-4b14-8b1d-46ffd7eafe9d","meta":{"profile":["http://hl7.org/fhir/us/qicore/StructureDefinition/qicore-medicationrequest"]},"status":"completed","intent":"order","category":[{"coding":[{"system":"http://terminology.hl7.org/CodeSystem/medicationrequest-category","code":"discharge","display":"Discharge"}]}],"medicationCodeableConcept":{"coding":[{"system":"http://www.nlm.nih.gov/research/umls/rxnorm","code":"141963","display":"azithromycin 40 MG/ML Oral Suspension","userSelected":true}]},"subject":{"reference":"Patient/0b0bcb31-89d5-4246-8b55-fae200385eab"},"authoredOn":"2026-10-12T00:00:00.000Z","requester":{"reference":"Practitioner/example"},"dosageInstruction":[{"timing":{"repeat":{"boundsPeriod":{"start":"2026-10-12T00:00:00.000Z","end":"2026-10-20T00:00:00.000Z"}}}}]},"request":{"method":"PUT","url":"MedicationRequest/a5fc3354-fae4-4b14-8b1d-46ffd7eafe9d"}},{"resource":{"resourceType":"Patient","id":"d70985bf-27fc-4f62-b44f-fecfac881b6a","meta":{"profile":["http://hl7.org/fhir/us/qicore/StructureDefinition/qicore-patient"]},"extension":[{"url":"http://hl7.org/fhir/us/core/StructureDefinition/us-core-race","extension":[{"url":"ombCategory","valueCoding":{"system":"urn:oid:2.16.840.1.113883.6.238","code":"2028-9","display":"Asian","userSelected":true}},{"url":"text","valueString":"Asian"}]},{"url":"http://hl7.org/fhir/us/core/StructureDefinition/us-core-ethnicity","extension":[{"url":"ombCategory","valueCoding":{"system":"urn:oid:2.16.840.1.113883.6.238","code":"2135-2","display":"Hispanic or Latino","userSelected":true}},{"url":"text","valueString":"Hispanic or Latino"}]}],"identifier":[{"type":{"coding":[{"system":"http://terminology.hl7.org/CodeSystem/v2-0203","code":"MR"}]},"system":"http://hospital.smarthealthit.org","value":"999999995"}],"name":[{"family":"Bertha","given":["Betty"]}],"gender":"male","birthDate":"2001-01-01"},"request":{"method":"PUT","url":"Patient/d70985bf-27fc-4f62-b44f-fecfac881b6a"}},{"resource":{"resourceType":"MeasureReport","id":"043ca507-4f88-4ce6-9ccb-d566aefbf504","meta":{"profile":["http://hl7.org/fhir/us/cqfmeasures/StructureDefinition/test-case-cqfm"]},"contained":[{"resourceType":"Parameters","id":"98b9d3e0-0a30-41bd-984b-b2e3159d60bb-parameters","parameter":[{"name":"subject","valueString":"d70985bf-27fc-4f62-b44f-fecfac881b6a"}]}],"extension":[{"url":"http://hl7.org/fhir/StructureDefinition/cqf-inputParameters","valueReference":{"reference":"#98b9d3e0-0a30-41bd-984b-b2e3159d60bb-parameters"}},{"url":"http://hl7.org/fhir/us/cqfmeasures/StructureDefinition/cqfm-testCaseDescription","valueMarkdown":"Qualifying encounter is Preventive Care Services Established Office Visit, 18 and Up"}],"modifierExtension":[{"url":"http://hl7.org/fhir/us/cqfmeasures/StructureDefinition/cqfm-isTestCase","valueBoolean":true}],"status":"complete","type":"individual","measure":"https://madie.cms.gov/Measure/CMS146FHIRAppropriateTestingforPharyngitis","period":{"start":"2026-01-01","end":"2026-12-31"},"group":[{"id":"Group_1","population":[{"id":"InitialPopulation_1","code":{"coding":[{"system":"http://terminology.hl7.org/CodeSystem/measure-population","code":"initial-population","display":"Initial Population"}]},"count":1},{"id":"Denominator_1","code":{"coding":[{"system":"http://terminology.hl7.org/CodeSystem/measure-population","code":"denominator","display":"Denominator"}]},"count":1},{"id":"DenominatorExclusion_1","code":{"coding":[{"system":"http://terminology.hl7.org/CodeSystem/measure-population","code":"denominator-exclusion","display":"Denominator Exclusion"}]},"count":0},{"id":"Numerator_1","code":{"coding":[{"system":"http://terminology.hl7.org/CodeSystem/measure-population","code":"numerator","display":"Numerator"}]},"count":0}],"measureScore":{"value":0.0},"stratifier":[{"id":"Stratification_1_1","code":[{"text":"Strata-1"}],"stratum":[{"value":{"text":"Strata-1"},"population":[{"id":"InitialPopulation_1","code":{"coding":[{"system":"http://terminology.hl7.org/CodeSystem/measure-population","code":"initial-population","display":"Initial Population"}]},"count":1}]}]},{"id":"Stratification_1_2","code":[{"text":"Strata-2"}],"stratum":[{"value":{"text":"Strata-2"},"population":[{"id":"InitialPopulation_1","code":{"coding":[{"system":"http://terminology.hl7.org/CodeSystem/measure-population","code":"initial-population","display":"Initial Population"}]},"count":1}]}]},{"id":"Stratification_1_3","code":[{"text":"Strata-3"}],"stratum":[{"value":{"text":"Strata-3"},"population":[{"id":"InitialPopulation_1","code":{"coding":[{"system":"http://terminology.hl7.org/CodeSystem/measure-population","code":"initial-population","display":"Initial Population"}]},"count":1}]}]}]}],"evaluatedResource":[{"reference":"Patient/d70985bf-27fc-4f62-b44f-fecfac881b6a"},{"reference":"Encounter/fbbc8faf-f998-4207-b8d7-1c934183382d"},{"reference":"Condition/642529f6-83d9-4756-ac78-25c1ba636dbe"},{"reference":"MedicationRequest/0ac4d8d4-b5f7-4e52-a131-76dd81b35e9b"}]},"request":{"method":"PUT","url":"MeasureReport/043ca507-4f88-4ce6-9ccb-d566aefbf504"}},{"resource":{"resourceType":"Encounter","id":"fbbc8faf-f998-4207-b8d7-1c934183382d","meta":{"profile":["http://hl7.org/fhir/us/qicore/StructureDefinition/qicore-encounter"]},"status":"finished","class":{"system":"http://terminology.hl7.org/CodeSystem/v3-ActCode","code":"AMB","display":"ambulatory"},"type":[{"coding":[{"system":"http://www.ama-assn.org/go/cpt","code":"99395","display":"\tPeriodic comprehensive preventive medicine reevaluation and management of an individual including an age and gender appropriate history, examination, counseling/anticipatory guidance/risk factor reduction interventions, and the ordering of laboratory/diagnostic procedures, established patient; 18-39 years"}]}],"subject":{"reference":"Patient/d70985bf-27fc-4f62-b44f-fecfac881b6a"},"period":{"start":"2026-10-11T00:00:00.000Z","end":"2026-10-11T23:59:59.000Z"}},"request":{"method":"PUT","url":"Encounter/fbbc8faf-f998-4207-b8d7-1c934183382d"}},{"resource":{"resourceType":"MedicationRequest","id":"0ac4d8d4-b5f7-4e52-a131-76dd81b35e9b","meta":{"profile":["http://hl7.org/fhir/us/qicore/StructureDefinition/qicore-medicationrequest"]},"status":"completed","intent":"order","category":[{"coding":[{"system":"http://terminology.hl7.org/CodeSystem/medicationrequest-category","code":"discharge","display":"Discharge"}]}],"medicationCodeableConcept":{"coding":[{"system":"http://www.nlm.nih.gov/research/umls/rxnorm","code":"141963","display":"azithromycin 40 MG/ML Oral Suspension","userSelected":true}]},"subject":{"reference":"Patient/d70985bf-27fc-4f62-b44f-fecfac881b6a"},"authoredOn":"2026-10-12T00:00:00.000Z","requester":{"reference":"Practitioner/example"},"dosageInstruction":[{"timing":{"repeat":{"boundsPeriod":{"start":"2026-10-12T00:00:00.000Z","end":"2026-10-20T00:00:00.000Z"}}}}]},"request":{"method":"PUT","url":"MedicationRequest/0ac4d8d4-b5f7-4e52-a131-76dd81b35e9b"}},{"resource":{"resourceType":"Condition","id":"642529f6-83d9-4756-ac78-25c1ba636dbe","meta":{"profile":["http://hl7.org/fhir/us/qicore/StructureDefinition/qicore-condition-encounter-diagnosis"]},"clinicalStatus":{"coding":[{"system":"http://terminology.hl7.org/CodeSystem/condition-clinical","code":"active"}]},"category":[{"coding":[{"system":"http://terminology.hl7.org/CodeSystem/condition-category","code":"problem-list-item","display":"Problem List Item"}]}],"code":{"coding":[{"system":"http://snomed.info/sct","code":"17741008","display":"Acute tonsillitis (disorder)"}]},"subject":{"reference":"Patient/d70985bf-27fc-4f62-b44f-fecfac881b6a"},"onsetDateTime":"2026-10-11T12:48:00.000Z"},"request":{"method":"PUT","url":"Condition/642529f6-83d9-4756-ac78-25c1ba636dbe"}},{"resource":{"resourceType":"MeasureReport","id":"5aec5a34-f1a6-4781-b668-d4855036bc37","meta":{"profile":["http://hl7.org/fhir/us/cqfmeasures/StructureDefinition/test-case-cqfm"]},"contained":[{"resourceType":"Parameters","id":"d375f6fa-f0cd-47dd-b8ef-f3b5aef49273-parameters","parameter":[{"name":"subject","valueString":"9c9abe56-16c0-4ba0-b2fa-146256ec0886"}]}],"extension":[{"url":"http://hl7.org/fhir/StructureDefinition/cqf-inputParameters","valueReference":{"reference":"#d375f6fa-f0cd-47dd-b8ef-f3b5aef49273-parameters"}},{"url":"http://hl7.org/fhir/us/cqfmeasures/StructureDefinition/cqfm-testCaseDescription","valueMarkdown":"Qualifying encounter is Preventive Care Services, Initial Office Visit, 0 to 17"}],"modifierExtension":[{"url":"http://hl7.org/fhir/us/cqfmeasures/StructureDefinition/cqfm-isTestCase","valueBoolean":true}],"status":"complete","type":"individual","measure":"https://madie.cms.gov/Measure/CMS146FHIRAppropriateTestingforPharyngitis","period":{"start":"2026-01-01","end":"2026-12-31"},"group":[{"id":"Group_1","population":[{"id":"InitialPopulation_1","code":{"coding":[{"system":"http://terminology.hl7.org/CodeSystem/measure-population","code":"initial-population","display":"Initial Population"}]},"count":1},{"id":"Denominator_1","code":{"coding":[{"system":"http://terminology.hl7.org/CodeSystem/measure-population","code":"denominator","display":"Denominator"}]},"count":1},{"id":"DenominatorExclusion_1","code":{"coding":[{"system":"http://terminology.hl7.org/CodeSystem/measure-population","code":"denominator-exclusion","display":"Denominator Exclusion"}]},"count":0},{"id":"Numerator_1","code":{"coding":[{"system":"http://terminology.hl7.org/CodeSystem/measure-population","code":"numerator","display":"Numerator"}]},"count":0}],"measureScore":{"value":0.0},"stratifier":[{"id":"Stratification_1_1","code":[{"text":"Strata-1"}],"stratum":[{"value":{"text":"Strata-1"},"population":[{"id":"InitialPopulation_1","code":{"coding":[{"system":"http://terminology.hl7.org/CodeSystem/measure-population","code":"initial-population","display":"Initial Population"}]},"count":1}]}]},{"id":"Stratification_1_2","code":[{"text":"Strata-2"}],"stratum":[{"value":{"text":"Strata-2"},"population":[{"id":"InitialPopulation_1","code":{"coding":[{"system":"http://terminology.hl7.org/CodeSystem/measure-population","code":"initial-population","display":"Initial Population"}]},"count":1}]}]},{"id":"Stratification_1_3","code":[{"text":"Strata-3"}],"stratum":[{"value":{"text":"Strata-3"},"population":[{"id":"InitialPopulation_1","code":{"coding":[{"system":"http://terminology.hl7.org/CodeSystem/measure-population","code":"initial-population","display":"Initial Population"}]},"count":1}]}]}]}],"evaluatedResource":[{"reference":"Patient/9c9abe56-16c0-4ba0-b2fa-146256ec0886"},{"reference":"Encounter/6cc6ab8e-9378-43bb-9d94-e05d0cbcf53d"},{"reference":"Condition/9a225d1d-bd5b-477d-8d36-beb2749075d9"},{"reference":"MedicationRequest/9036c92a-17fa-4ec2-8e5e-01cde66244f0"}]},"request":{"method":"PUT","url":"MeasureReport/5aec5a34-f1a6-4781-b668-d4855036bc37"}},{"resource":{"resourceType":"MedicationRequest","id":"9036c92a-17fa-4ec2-8e5e-01cde66244f0","meta":{"profile":["http://hl7.org/fhir/us/qicore/StructureDefinition/qicore-medicationrequest"]},"status":"completed","intent":"order","category":[{"coding":[{"system":"http://terminology.hl7.org/CodeSystem/medicationrequest-category","code":"discharge","display":"Discharge"}]}],"medicationCodeableConcept":{"coding":[{"system":"http://www.nlm.nih.gov/research/umls/rxnorm","code":"141963","display":"azithromycin 40 MG/ML Oral Suspension","userSelected":true}]},"subject":{"reference":"Patient/9c9abe56-16c0-4ba0-b2fa-146256ec0886"},"authoredOn":"2026-10-12T00:00:00.000Z","requester":{"reference":"Practitioner/example"},"dosageInstruction":[{"timing":{"repeat":{"boundsPeriod":{"start":"2026-10-12T00:00:00.000Z","end":"2026-10-20T00:00:00.000Z"}}}}]},"request":{"method":"PUT","url":"MedicationRequest/9036c92a-17fa-4ec2-8e5e-01cde66244f0"}},{"resource":{"resourceType":"Encounter","id":"6cc6ab8e-9378-43bb-9d94-e05d0cbcf53d","meta":{"profile":["http://hl7.org/fhir/us/qicore/StructureDefinition/qicore-encounter"]},"status":"finished","class":{"system":"http://terminology.hl7.org/CodeSystem/v3-ActCode","code":"AMB","display":"ambulatory"},"type":[{"coding":[{"system":"http://www.ama-assn.org/go/cpt","code":"99383","display":"Initial comprehensive preventive medicine evaluation and management of an individual including an age and gender appropriate history, examination, counseling/anticipatory guidance/risk factor reduction interventions, and the ordering of laboratory/diagnostic procedures, new patient; late childhood (age 5 through 11 years)"}]}],"subject":{"reference":"Patient/9c9abe56-16c0-4ba0-b2fa-146256ec0886"},"period":{"start":"2026-10-11T00:00:00.000Z","end":"2026-10-11T23:59:59.000Z"}},"request":{"method":"PUT","url":"Encounter/6cc6ab8e-9378-43bb-9d94-e05d0cbcf53d"}},{"resource":{"resourceType":"Condition","id":"9a225d1d-bd5b-477d-8d36-beb2749075d9","meta":{"profile":["http://hl7.org/fhir/us/qicore/StructureDefinition/qicore-condition-encounter-diagnosis"]},"clinicalStatus":{"coding":[{"system":"http://terminology.hl7.org/CodeSystem/condition-clinical","code":"active"}]},"category":[{"coding":[{"system":"http://terminology.hl7.org/CodeSystem/condition-category","code":"problem-list-item","display":"Problem List Item"}]}],"code":{"coding":[{"system":"http://snomed.info/sct","code":"17741008","display":"Acute tonsillitis (disorder)"}]},"subject":{"reference":"Patient/9c9abe56-16c0-4ba0-b2fa-146256ec0886"},"onsetDateTime":"2026-10-11T12:48:00.000Z"},"request":{"method":"PUT","url":"Condition/9a225d1d-bd5b-477d-8d36-beb2749075d9"}},{"resource":{"resourceType":"Patient","id":"9c9abe56-16c0-4ba0-b2fa-146256ec0886","meta":{"profile":["http://hl7.org/fhir/us/qicore/StructureDefinition/qicore-patient"]},"extension":[{"url":"http://hl7.org/fhir/us/core/StructureDefinition/us-core-race","extension":[{"url":"ombCategory","valueCoding":{"system":"urn:oid:2.16.840.1.113883.6.238","code":"2028-9","display":"Asian","userSelected":true}},{"url":"text","valueString":"Asian"}]},{"url":"http://hl7.org/fhir/us/core/StructureDefinition/us-core-ethnicity","extension":[{"url":"ombCategory","valueCoding":{"system":"urn:oid:2.16.840.1.113883.6.238","code":"2135-2","display":"Hispanic or Latino","userSelected":true}},{"url":"text","valueString":"Hispanic or Latino"}]}],"identifier":[{"type":{"coding":[{"system":"http://terminology.hl7.org/CodeSystem/v2-0203","code":"MR"}]},"system":"http://hospital.smarthealthit.org","value":"999999995"}],"name":[{"family":"Bertha","given":["Betty"]}],"gender":"male","birthDate":"2021-01-01"},"request":{"method":"PUT","url":"Patient/9c9abe56-16c0-4ba0-b2fa-146256ec0886"}},{"resource":{"resourceType":"Condition","id":"ee62b2a8-3ac9-448c-8cbe-23cd98da03c0","meta":{"profile":["http://hl7.org/fhir/us/qicore/StructureDefinition/qicore-condition-encounter-diagnosis"]},"clinicalStatus":{"coding":[{"system":"http://terminology.hl7.org/CodeSystem/condition-clinical","code":"active"}]},"category":[{"coding":[{"system":"http://terminology.hl7.org/CodeSystem/condition-category","code":"problem-list-item","display":"Problem List Item"}]}],"code":{"coding":[{"system":"http://snomed.info/sct","code":"17741008","display":"Acute tonsillitis (disorder)"}]},"subject":{"reference":"Patient/ee64c224-892c-48e9-931a-a00301b5b0e6"},"onsetDateTime":"2026-10-11T12:48:00.000Z"},"request":{"method":"PUT","url":"Condition/ee62b2a8-3ac9-448c-8cbe-23cd98da03c0"}},{"resource":{"resourceType":"MeasureReport","id":"9fa578b2-0aff-43bd-9bda-a7a9bc456756","meta":{"profile":["http://hl7.org/fhir/us/cqfmeasures/StructureDefinition/test-case-cqfm"]},"contained":[{"resourceType":"Parameters","id":"2d46f9b7-7e43-454d-8f58-d48d5ee11ee8-parameters","parameter":[{"name":"subject","valueString":"ee64c224-892c-48e9-931a-a00301b5b0e6"}]}],"extension":[{"url":"http://hl7.org/fhir/StructureDefinition/cqf-inputParameters","valueReference":{"reference":"#2d46f9b7-7e43-454d-8f58-d48d5ee11ee8-parameters"}},{"url":"http://hl7.org/fhir/us/cqfmeasures/StructureDefinition/cqfm-testCaseDescription","valueMarkdown":"Qualifying encounter is Preventive Care Services Individual Counseling"}],"modifierExtension":[{"url":"http://hl7.org/fhir/us/cqfmeasures/StructureDefinition/cqfm-isTestCase","valueBoolean":true}],"status":"complete","type":"individual","measure":"https://madie.cms.gov/Measure/CMS146FHIRAppropriateTestingforPharyngitis","period":{"start":"2026-01-01","end":"2026-12-31"},"group":[{"id":"Group_1","population":[{"id":"InitialPopulation_1","code":{"coding":[{"system":"http://terminology.hl7.org/CodeSystem/measure-population","code":"initial-population","display":"Initial Population"}]},"count":1},{"id":"Denominator_1","code":{"coding":[{"system":"http://terminology.hl7.org/CodeSystem/measure-population","code":"denominator","display":"Denominator"}]},"count":1},{"id":"DenominatorExclusion_1","code":{"coding":[{"system":"http://terminology.hl7.org/CodeSystem/measure-population","code":"denominator-exclusion","display":"Denominator Exclusion"}]},"count":0},{"id":"Numerator_1","code":{"coding":[{"system":"http://terminology.hl7.org/CodeSystem/measure-population","code":"numerator","display":"Numerator"}]},"count":0}],"measureScore":{"value":0.0},"stratifier":[{"id":"Stratification_1_1","code":[{"text":"Strata-1"}],"stratum":[{"value":{"text":"Strata-1"},"population":[{"id":"InitialPopulation_1","code":{"coding":[{"system":"http://terminology.hl7.org/CodeSystem/measure-population","code":"initial-population","display":"Initial Population"}]},"count":1}]}]},{"id":"Stratification_1_2","code":[{"text":"Strata-2"}],"stratum":[{"value":{"text":"Strata-2"},"population":[{"id":"InitialPopulation_1","code":{"coding":[{"system":"http://terminology.hl7.org/CodeSystem/measure-population","code":"initial-population","display":"Initial Population"}]},"count":1}]}]},{"id":"Stratification_1_3","code":[{"text":"Strata-3"}],"stratum":[{"value":{"text":"Strata-3"},"population":[{"id":"InitialPopulation_1","code":{"coding":[{"system":"http://terminology.hl7.org/CodeSystem/measure-population","code":"initial-population","display":"Initial Population"}]},"count":1}]}]}]}],"evaluatedResource":[{"reference":"Patient/ee64c224-892c-48e9-931a-a00301b5b0e6"},{"reference":"Encounter/96c32656-fbe6-4c37-97de-184f37df5774"},{"reference":"Condition/ee62b2a8-3ac9-448c-8cbe-23cd98da03c0"},{"reference":"MedicationRequest/155721bc-206b-47f0-9e0d-90abb739a3c5"}]},"request":{"method":"PUT","url":"MeasureReport/9fa578b2-0aff-43bd-9bda-a7a9bc456756"}},{"resource":{"resourceType":"MedicationRequest","id":"155721bc-206b-47f0-9e0d-90abb739a3c5","meta":{"profile":["http://hl7.org/fhir/us/qicore/StructureDefinition/qicore-medicationrequest"]},"status":"completed","intent":"order","category":[{"coding":[{"system":"http://terminology.hl7.org/CodeSystem/medicationrequest-category","code":"discharge","display":"Discharge"}]}],"medicationCodeableConcept":{"coding":[{"system":"http://www.nlm.nih.gov/research/umls/rxnorm","code":"141963","display":"azithromycin 40 MG/ML Oral Suspension","userSelected":true}]},"subject":{"reference":"Patient/ee64c224-892c-48e9-931a-a00301b5b0e6"},"authoredOn":"2026-10-12T00:00:00.000Z","requester":{"reference":"Practitioner/example"},"dosageInstruction":[{"timing":{"repeat":{"boundsPeriod":{"start":"2026-10-12T00:00:00.000Z","end":"2026-10-20T00:00:00.000Z"}}}}]},"request":{"method":"PUT","url":"MedicationRequest/155721bc-206b-47f0-9e0d-90abb739a3c5"}},{"resource":{"resourceType":"Patient","id":"ee64c224-892c-48e9-931a-a00301b5b0e6","meta":{"profile":["http://hl7.org/fhir/us/qicore/StructureDefinition/qicore-patient"]},"extension":[{"url":"http://hl7.org/fhir/us/core/StructureDefinition/us-core-race","extension":[{"url":"ombCategory","valueCoding":{"system":"urn:oid:2.16.840.1.113883.6.238","code":"2028-9","display":"Asian","userSelected":true}},{"url":"text","valueString":"Asian"}]},{"url":"http://hl7.org/fhir/us/core/StructureDefinition/us-core-ethnicity","extension":[{"url":"ombCategory","valueCoding":{"system":"urn:oid:2.16.840.1.113883.6.238","code":"2135-2","display":"Hispanic or Latino","userSelected":true}},{"url":"text","valueString":"Hispanic or Latino"}]}],"identifier":[{"type":{"coding":[{"system":"http://terminology.hl7.org/CodeSystem/v2-0203","code":"MR"}]},"system":"http://hospital.smarthealthit.org","value":"999999995"}],"name":[{"family":"Bertha","given":["Betty"]}],"gender":"male","birthDate":"2021-01-01"},"request":{"method":"PUT","url":"Patient/ee64c224-892c-48e9-931a-a00301b5b0e6"}},{"resource":{"resourceType":"Encounter","id":"96c32656-fbe6-4c37-97de-184f37df5774","meta":{"profile":["http://hl7.org/fhir/us/qicore/StructureDefinition/qicore-encounter"]},"status":"finished","class":{"system":"http://terminology.hl7.org/CodeSystem/v3-ActCode","code":"AMB","display":"ambulatory"},"type":[{"coding":[{"system":"http://www.ama-assn.org/go/cpt","code":"99401","display":"Preventive medicine counseling and/or risk factor reduction intervention(s) provided to an individual (separate procedure); approximately 15 minutes"}]}],"subject":{"reference":"Patient/ee64c224-892c-48e9-931a-a00301b5b0e6"},"period":{"start":"2026-10-11T00:00:00.000Z","end":"2026-10-11T23:59:59.000Z"}},"request":{"method":"PUT","url":"Encounter/96c32656-fbe6-4c37-97de-184f37df5774"}},{"resource":{"resourceType":"Encounter","id":"019ed070-3122-412e-8b41-49fd4bcc48e8","meta":{"profile":["http://hl7.org/fhir/us/qicore/StructureDefinition/qicore-encounter"]},"status":"finished","class":{"system":"http://terminology.hl7.org/CodeSystem/v3-ActCode","code":"AMB","display":"ambulatory"},"type":[{"coding":[{"system":"http://snomed.info/sct","code":"185463005","display":"Visit out of hours (procedure)"}]}],"subject":{"reference":"Patient/d2f3c4a0-b4bb-4407-9a78-e76775ff5bd1"},"period":{"start":"2026-10-11T12:45:00.000Z","end":"2026-10-11T12:59:00.000Z"}},"request":{"method":"PUT","url":"Encounter/019ed070-3122-412e-8b41-49fd4bcc48e8"}},{"resource":{"resourceType":"Condition","id":"6d929271-acc2-4d72-89ba-2929185e6ad8","meta":{"profile":["http://hl7.org/fhir/us/qicore/StructureDefinition/qicore-condition-encounter-diagnosis"]},"clinicalStatus":{"coding":[{"system":"http://terminology.hl7.org/CodeSystem/condition-clinical","code":"active"}]},"category":[{"coding":[{"system":"http://terminology.hl7.org/CodeSystem/condition-category","code":"problem-list-item","display":"Problem List Item"}]}],"code":{"coding":[{"system":"http://snomed.info/sct","code":"17741008","display":"Acute tonsillitis (disorder)"}]},"subject":{"reference":"Patient/d2f3c4a0-b4bb-4407-9a78-e76775ff5bd1"},"onsetDateTime":"2026-10-11T12:48:00.000Z"},"request":{"method":"PUT","url":"Condition/6d929271-acc2-4d72-89ba-2929185e6ad8"}},{"resource":{"resourceType":"MeasureReport","id":"c96e2610-e03f-4663-b38d-0e12d9bd95a5","meta":{"profile":["http://hl7.org/fhir/us/cqfmeasures/StructureDefinition/test-case-cqfm"]},"contained":[{"resourceType":"Parameters","id":"eb9a91db-acca-4f07-9ce6-a453838f568b-parameters","parameter":[{"name":"subject","valueString":"d2f3c4a0-b4bb-4407-9a78-e76775ff5bd1"}]}],"extension":[{"url":"http://hl7.org/fhir/StructureDefinition/cqf-inputParameters","valueReference":{"reference":"#eb9a91db-acca-4f07-9ce6-a453838f568b-parameters"}},{"url":"http://hl7.org/fhir/us/cqfmeasures/StructureDefinition/cqfm-testCaseDescription","valueMarkdown":"Qualifying encounter is Office Visit"}],"modifierExtension":[{"url":"http://hl7.org/fhir/us/cqfmeasures/StructureDefinition/cqfm-isTestCase","valueBoolean":true}],"status":"complete","type":"individual","measure":"https://madie.cms.gov/Measure/CMS146FHIRAppropriateTestingforPharyngitis","period":{"start":"2026-01-01","end":"2026-12-31"},"group":[{"id":"Group_1","population":[{"id":"InitialPopulation_1","code":{"coding":[{"system":"http://terminology.hl7.org/CodeSystem/measure-population","code":"initial-population","display":"Initial Population"}]},"count":1},{"id":"Denominator_1","code":{"coding":[{"system":"http://terminology.hl7.org/CodeSystem/measure-population","code":"denominator","display":"Denominator"}]},"count":1},{"id":"DenominatorExclusion_1","code":{"coding":[{"system":"http://terminology.hl7.org/CodeSystem/measure-population","code":"denominator-exclusion","display":"Denominator Exclusion"}]},"count":0},{"id":"Numerator_1","code":{"coding":[{"system":"http://terminology.hl7.org/CodeSystem/measure-population","code":"numerator","display":"Numerator"}]},"count":0}],"measureScore":{"value":0.0},"stratifier":[{"id":"Stratification_1_1","code":[{"text":"Strata-1"}],"stratum":[{"value":{"text":"Strata-1"},"population":[{"id":"InitialPopulation_1","code":{"coding":[{"system":"http://terminology.hl7.org/CodeSystem/measure-population","code":"initial-population","display":"Initial Population"}]},"count":1}]}]},{"id":"Stratification_1_2","code":[{"text":"Strata-2"}],"stratum":[{"value":{"text":"Strata-2"},"population":[{"id":"InitialPopulation_1","code":{"coding":[{"system":"http://terminology.hl7.org/CodeSystem/measure-population","code":"initial-population","display":"Initial Population"}]},"count":1}]}]},{"id":"Stratification_1_3","code":[{"text":"Strata-3"}],"stratum":[{"value":{"text":"Strata-3"},"population":[{"id":"InitialPopulation_1","code":{"coding":[{"system":"http://terminology.hl7.org/CodeSystem/measure-population","code":"initial-population","display":"Initial Population"}]},"count":1}]}]}]}],"evaluatedResource":[{"reference":"Patient/d2f3c4a0-b4bb-4407-9a78-e76775ff5bd1"},{"reference":"Encounter/019ed070-3122-412e-8b41-49fd4bcc48e8"},{"reference":"Condition/6d929271-acc2-4d72-89ba-2929185e6ad8"},{"reference":"MedicationRequest/07f56fa9-fadd-4a11-bba3-812732617a37"}]},"request":{"method":"PUT","url":"MeasureReport/c96e2610-e03f-4663-b38d-0e12d9bd95a5"}},{"resource":{"resourceType":"MedicationRequest","id":"07f56fa9-fadd-4a11-bba3-812732617a37","meta":{"profile":["http://hl7.org/fhir/us/qicore/StructureDefinition/qicore-medicationrequest"]},"status":"completed","intent":"order","category":[{"coding":[{"system":"http://terminology.hl7.org/CodeSystem/medicationrequest-category","code":"discharge","display":"Discharge"}]}],"medicationCodeableConcept":{"coding":[{"system":"http://www.nlm.nih.gov/research/umls/rxnorm","code":"141963","display":"azithromycin 40 MG/ML Oral Suspension","userSelected":true}]},"subject":{"reference":"Patient/d2f3c4a0-b4bb-4407-9a78-e76775ff5bd1"},"authoredOn":"2026-10-12T00:00:00.000Z","requester":{"reference":"Practitioner/example"},"dosageInstruction":[{"timing":{"repeat":{"boundsPeriod":{"start":"2026-10-12T00:00:00.000Z","end":"2026-10-20T00:00:00.000Z"}}}}]},"request":{"method":"PUT","url":"MedicationRequest/07f56fa9-fadd-4a11-bba3-812732617a37"}},{"resource":{"resourceType":"Patient","id":"d2f3c4a0-b4bb-4407-9a78-e76775ff5bd1","meta":{"profile":["http://hl7.org/fhir/us/qicore/StructureDefinition/qicore-patient"]},"extension":[{"url":"http://hl7.org/fhir/us/core/StructureDefinition/us-core-race","extension":[{"url":"ombCategory","valueCoding":{"system":"urn:oid:2.16.840.1.113883.6.238","code":"2028-9","display":"Asian","userSelected":true}},{"url":"text","valueString":"Asian"}]},{"url":"http://hl7.org/fhir/us/core/StructureDefinition/us-core-ethnicity","extension":[{"url":"ombCategory","valueCoding":{"system":"urn:oid:2.16.840.1.113883.6.238","code":"2135-2","display":"Hispanic or Latino","userSelected":true}},{"url":"text","valueString":"Hispanic or Latino"}]}],"identifier":[{"type":{"coding":[{"system":"http://terminology.hl7.org/CodeSystem/v2-0203","code":"MR"}]},"system":"http://hospital.smarthealthit.org","value":"999999995"}],"name":[{"family":"Bertha","given":["Betty"]}],"gender":"male","birthDate":"2021-01-01"},"request":{"method":"PUT","url":"Patient/d2f3c4a0-b4bb-4407-9a78-e76775ff5bd1"}},{"resource":{"resourceType":"MedicationRequest","id":"edbd312f-e8a8-4a37-ae08-e3ff14d13354","meta":{"profile":["http://hl7.org/fhir/us/qicore/StructureDefinition/qicore-medicationrequest"]},"status":"completed","intent":"order","category":[{"coding":[{"system":"http://terminology.hl7.org/CodeSystem/medicationrequest-category","code":"discharge","display":"Discharge"}]}],"medicationCodeableConcept":{"coding":[{"system":"http://www.nlm.nih.gov/research/umls/rxnorm","code":"141963","display":"azithromycin 40 MG/ML Oral Suspension","userSelected":true}]},"subject":{"reference":"Patient/35113f5b-7982-4c28-9103-32bbc1d6bfde"},"authoredOn":"2026-10-12T00:00:00.000Z","requester":{"reference":"Practitioner/example"},"dosageInstruction":[{"timing":{"repeat":{"boundsPeriod":{"start":"2026-10-12T00:00:00.000Z","end":"2026-10-20T00:00:00.000Z"}}}}]},"request":{"method":"PUT","url":"MedicationRequest/edbd312f-e8a8-4a37-ae08-e3ff14d13354"}},{"resource":{"resourceType":"Patient","id":"35113f5b-7982-4c28-9103-32bbc1d6bfde","meta":{"profile":["http://hl7.org/fhir/us/qicore/StructureDefinition/qicore-patient"]},"extension":[{"url":"http://hl7.org/fhir/us/core/StructureDefinition/us-core-race","extension":[{"url":"ombCategory","valueCoding":{"system":"urn:oid:2.16.840.1.113883.6.238","code":"2028-9","display":"Asian","userSelected":true}},{"url":"text","valueString":"Asian"}]},{"url":"http://hl7.org/fhir/us/core/StructureDefinition/us-core-ethnicity","extension":[{"url":"ombCategory","valueCoding":{"system":"urn:oid:2.16.840.1.113883.6.238","code":"2135-2","display":"Hispanic or Latino","userSelected":true}},{"url":"text","valueString":"Hispanic or Latino"}]}],"identifier":[{"type":{"coding":[{"system":"http://terminology.hl7.org/CodeSystem/v2-0203","code":"MR"}]},"system":"http://hospital.smarthealthit.org","value":"999999995"}],"name":[{"family":"Bertha","given":["Betty"]}],"gender":"male","birthDate":"2001-01-01"},"request":{"method":"PUT","url":"Patient/35113f5b-7982-4c28-9103-32bbc1d6bfde"}},{"resource":{"resourceType":"Encounter","id":"07799ec0-0236-4b9f-971b-bbb004fee96d","meta":{"profile":["http://hl7.org/fhir/us/qicore/StructureDefinition/qicore-encounter"]},"status":"finished","class":{"system":"http://terminology.hl7.org/CodeSystem/v3-ActCode","code":"AMB","display":"ambulatory"},"type":[{"coding":[{"system":"http://www.ama-assn.org/go/cpt","code":"99385","display":"Initial comprehensive preventive medicine evaluation and management of an individual including an age and gender appropriate history, examination, counseling/anticipatory guidance/risk factor reduction interventions, and the ordering of laboratory/diagnostic procedures, new patient; 18-39 years"}]}],"subject":{"reference":"Patient/35113f5b-7982-4c28-9103-32bbc1d6bfde"},"period":{"start":"2026-10-11T00:00:00.000Z","end":"2026-10-11T23:59:59.000Z"}},"request":{"method":"PUT","url":"Encounter/07799ec0-0236-4b9f-971b-bbb004fee96d"}},{"resource":{"resourceType":"MeasureReport","id":"01d721f4-f1ad-4415-960a-7a8ee02de690","meta":{"profile":["http://hl7.org/fhir/us/cqfmeasures/StructureDefinition/test-case-cqfm"]},"contained":[{"resourceType":"Parameters","id":"7f41de0f-b33a-4a4c-aa39-bbb314478085-parameters","parameter":[{"name":"subject","valueString":"35113f5b-7982-4c28-9103-32bbc1d6bfde"}]}],"extension":[{"url":"http://hl7.org/fhir/StructureDefinition/cqf-inputParameters","valueReference":{"reference":"#7f41de0f-b33a-4a4c-aa39-bbb314478085-parameters"}},{"url":"http://hl7.org/fhir/us/cqfmeasures/StructureDefinition/cqfm-testCaseDescription","valueMarkdown":"Qualifying encounter is Preventive Care Services Initial Office Visit, 18 and Up"}],"modifierExtension":[{"url":"http://hl7.org/fhir/us/cqfmeasures/StructureDefinition/cqfm-isTestCase","valueBoolean":true}],"status":"complete","type":"individual","measure":"https://madie.cms.gov/Measure/CMS146FHIRAppropriateTestingforPharyngitis","period":{"start":"2026-01-01","end":"2026-12-31"},"group":[{"id":"Group_1","population":[{"id":"InitialPopulation_1","code":{"coding":[{"system":"http://terminology.hl7.org/CodeSystem/measure-population","code":"initial-population","display":"Initial Population"}]},"count":1},{"id":"Denominator_1","code":{"coding":[{"system":"http://terminology.hl7.org/CodeSystem/measure-population","code":"denominator","display":"Denominator"}]},"count":1},{"id":"DenominatorExclusion_1","code":{"coding":[{"system":"http://terminology.hl7.org/CodeSystem/measure-population","code":"denominator-exclusion","display":"Denominator Exclusion"}]},"count":0},{"id":"Numerator_1","code":{"coding":[{"system":"http://terminology.hl7.org/CodeSystem/measure-population","code":"numerator","display":"Numerator"}]},"count":0}],"measureScore":{"value":0.0},"stratifier":[{"id":"Stratification_1_1","code":[{"text":"Strata-1"}],"stratum":[{"value":{"text":"Strata-1"},"population":[{"id":"InitialPopulation_1","code":{"coding":[{"system":"http://terminology.hl7.org/CodeSystem/measure-population","code":"initial-population","display":"Initial Population"}]},"count":1}]}]},{"id":"Stratification_1_2","code":[{"text":"Strata-2"}],"stratum":[{"value":{"text":"Strata-2"},"population":[{"id":"InitialPopulation_1","code":{"coding":[{"system":"http://terminology.hl7.org/CodeSystem/measure-population","code":"initial-population","display":"Initial Population"}]},"count":1}]}]},{"id":"Stratification_1_3","code":[{"text":"Strata-3"}],"stratum":[{"value":{"text":"Strata-3"},"population":[{"id":"InitialPopulation_1","code":{"coding":[{"system":"http://terminology.hl7.org/CodeSystem/measure-population","code":"initial-population","display":"Initial Population"}]},"count":1}]}]}]}],"evaluatedResource":[{"reference":"Patient/35113f5b-7982-4c28-9103-32bbc1d6bfde"},{"reference":"Encounter/07799ec0-0236-4b9f-971b-bbb004fee96d"},{"reference":"Condition/1d20cd9a-2064-49bb-b8fc-f14cf80dbe68"},{"reference":"MedicationRequest/edbd312f-e8a8-4a37-ae08-e3ff14d13354"}]},"request":{"method":"PUT","url":"MeasureReport/01d721f4-f1ad-4415-960a-7a8ee02de690"}},{"resource":{"resourceType":"Condition","id":"1d20cd9a-2064-49bb-b8fc-f14cf80dbe68","meta":{"profile":["http://hl7.org/fhir/us/qicore/StructureDefinition/qicore-condition-encounter-diagnosis"]},"clinicalStatus":{"coding":[{"system":"http://terminology.hl7.org/CodeSystem/condition-clinical","code":"active"}]},"category":[{"coding":[{"system":"http://terminology.hl7.org/CodeSystem/condition-category","code":"problem-list-item","display":"Problem List Item"}]}],"code":{"coding":[{"system":"http://snomed.info/sct","code":"17741008","display":"Acute tonsillitis (disorder)"}]},"subject":{"reference":"Patient/35113f5b-7982-4c28-9103-32bbc1d6bfde"},"onsetDateTime":"2026-10-11T12:48:00.000Z"},"request":{"method":"PUT","url":"Condition/1d20cd9a-2064-49bb-b8fc-f14cf80dbe68"}},{"resource":{"resourceType":"Patient","id":"8120cffc-faec-4295-93f9-a30275075ee5","meta":{"profile":["http://hl7.org/fhir/us/qicore/StructureDefinition/qicore-patient"]},"extension":[{"url":"http://hl7.org/fhir/us/core/StructureDefinition/us-core-race","extension":[{"url":"ombCategory","valueCoding":{"system":"urn:oid:2.16.840.1.113883.6.238","code":"2028-9","display":"Asian","userSelected":true}},{"url":"text","valueString":"Asian"}]},{"url":"http://hl7.org/fhir/us/core/StructureDefinition/us-core-ethnicity","extension":[{"url":"ombCategory","valueCoding":{"system":"urn:oid:2.16.840.1.113883.6.238","code":"2135-2","display":"Hispanic or Latino","userSelected":true}},{"url":"text","valueString":"Hispanic or Latino"}]}],"identifier":[{"type":{"coding":[{"system":"http://terminology.hl7.org/CodeSystem/v2-0203","code":"MR"}]},"system":"http://hospital.smarthealthit.org","value":"999999995"}],"name":[{"family":"Bertha","given":["Betty"]}],"gender":"male","birthDate":"2021-01-01"},"request":{"method":"PUT","url":"Patient/8120cffc-faec-4295-93f9-a30275075ee5"}},{"resource":{"resourceType":"MeasureReport","id":"cc906ec5-eee0-45d6-942d-cd199c7e12f7","meta":{"profile":["http://hl7.org/fhir/us/cqfmeasures/StructureDefinition/test-case-cqfm"]},"contained":[{"resourceType":"Parameters","id":"20b71730-7086-4f18-9c52-3bfada804609-parameters","parameter":[{"name":"subject","valueString":"8120cffc-faec-4295-93f9-a30275075ee5"}]}],"extension":[{"url":"http://hl7.org/fhir/StructureDefinition/cqf-inputParameters","valueReference":{"reference":"#20b71730-7086-4f18-9c52-3bfada804609-parameters"}},{"url":"http://hl7.org/fhir/us/cqfmeasures/StructureDefinition/cqfm-testCaseDescription","valueMarkdown":"Qualifying encounter is Preventive Care Services Group Counseling"}],"modifierExtension":[{"url":"http://hl7.org/fhir/us/cqfmeasures/StructureDefinition/cqfm-isTestCase","valueBoolean":true}],"status":"complete","type":"individual","measure":"https://madie.cms.gov/Measure/CMS146FHIRAppropriateTestingforPharyngitis","period":{"start":"2026-01-01","end":"2026-12-31"},"group":[{"id":"Group_1","population":[{"id":"InitialPopulation_1","code":{"coding":[{"system":"http://terminology.hl7.org/CodeSystem/measure-population","code":"initial-population","display":"Initial Population"}]},"count":1},{"id":"Denominator_1","code":{"coding":[{"system":"http://terminology.hl7.org/CodeSystem/measure-population","code":"denominator","display":"Denominator"}]},"count":1},{"id":"DenominatorExclusion_1","code":{"coding":[{"system":"http://terminology.hl7.org/CodeSystem/measure-population","code":"denominator-exclusion","display":"Denominator Exclusion"}]},"count":0},{"id":"Numerator_1","code":{"coding":[{"system":"http://terminology.hl7.org/CodeSystem/measure-population","code":"numerator","display":"Numerator"}]},"count":0}],"measureScore":{"value":0.0},"stratifier":[{"id":"Stratification_1_1","code":[{"text":"Strata-1"}],"stratum":[{"value":{"text":"Strata-1"},"population":[{"id":"InitialPopulation_1","code":{"coding":[{"system":"http://terminology.hl7.org/CodeSystem/measure-population","code":"initial-population","display":"Initial Population"}]},"count":1}]}]},{"id":"Stratification_1_2","code":[{"text":"Strata-2"}],"stratum":[{"value":{"text":"Strata-2"},"population":[{"id":"InitialPopulation_1","code":{"coding":[{"system":"http://terminology.hl7.org/CodeSystem/measure-population","code":"initial-population","display":"Initial Population"}]},"count":1}]}]},{"id":"Stratification_1_3","code":[{"text":"Strata-3"}],"stratum":[{"value":{"text":"Strata-3"},"population":[{"id":"InitialPopulation_1","code":{"coding":[{"system":"http://terminology.hl7.org/CodeSystem/measure-population","code":"initial-population","display":"Initial Population"}]},"count":1}]}]}]}],"evaluatedResource":[{"reference":"Patient/8120cffc-faec-4295-93f9-a30275075ee5"},{"reference":"Encounter/14aaeabf-0a98-4b25-a706-eefd81ede51d"},{"reference":"Condition/0b86440a-967b-433e-9fc8-d5fdfae797c6"},{"reference":"MedicationRequest/5c03f1f9-9d0f-4127-8e67-7ffd5d889f1c"}]},"request":{"method":"PUT","url":"MeasureReport/cc906ec5-eee0-45d6-942d-cd199c7e12f7"}},{"resource":{"resourceType":"MedicationRequest","id":"5c03f1f9-9d0f-4127-8e67-7ffd5d889f1c","meta":{"profile":["http://hl7.org/fhir/us/qicore/StructureDefinition/qicore-medicationrequest"]},"status":"completed","intent":"order","category":[{"coding":[{"system":"http://terminology.hl7.org/CodeSystem/medicationrequest-category","code":"discharge","display":"Discharge"}]}],"medicationCodeableConcept":{"coding":[{"system":"http://www.nlm.nih.gov/research/umls/rxnorm","code":"141963","display":"azithromycin 40 MG/ML Oral Suspension","userSelected":true}]},"subject":{"reference":"Patient/8120cffc-faec-4295-93f9-a30275075ee5"},"authoredOn":"2026-10-12T00:00:00.000Z","requester":{"reference":"Practitioner/example"},"dosageInstruction":[{"timing":{"repeat":{"boundsPeriod":{"start":"2026-10-12T00:00:00.000Z","end":"2026-10-20T00:00:00.000Z"}}}}]},"request":{"method":"PUT","url":"MedicationRequest/5c03f1f9-9d0f-4127-8e67-7ffd5d889f1c"}},{"resource":{"resourceType":"Encounter","id":"14aaeabf-0a98-4b25-a706-eefd81ede51d","meta":{"profile":["http://hl7.org/fhir/us/qicore/StructureDefinition/qicore-encounter"]},"status":"finished","class":{"system":"http://terminology.hl7.org/CodeSystem/v3-ActCode","code":"AMB","display":"ambulatory"},"type":[{"coding":[{"system":"http://www.ama-assn.org/go/cpt","code":"99411","display":"Preventive medicine counseling and/or risk factor reduction intervention(s) provided to individuals in a group setting (separate procedure); approximately 30 minutes"}]}],"subject":{"reference":"Patient/8120cffc-faec-4295-93f9-a30275075ee5"},"period":{"start":"2026-10-11T00:00:00.000Z","end":"2026-10-11T23:59:59.000Z"}},"request":{"method":"PUT","url":"Encounter/14aaeabf-0a98-4b25-a706-eefd81ede51d"}},{"resource":{"resourceType":"Condition","id":"0b86440a-967b-433e-9fc8-d5fdfae797c6","meta":{"profile":["http://hl7.org/fhir/us/qicore/StructureDefinition/qicore-condition-encounter-diagnosis"]},"clinicalStatus":{"coding":[{"system":"http://terminology.hl7.org/CodeSystem/condition-clinical","code":"active"}]},"category":[{"coding":[{"system":"http://terminology.hl7.org/CodeSystem/condition-category","code":"problem-list-item","display":"Problem List Item"}]}],"code":{"coding":[{"system":"http://snomed.info/sct","code":"17741008","display":"Acute tonsillitis (disorder)"}]},"subject":{"reference":"Patient/8120cffc-faec-4295-93f9-a30275075ee5"},"onsetDateTime":"2026-10-11T12:48:00.000Z"},"request":{"method":"PUT","url":"Condition/0b86440a-967b-433e-9fc8-d5fdfae797c6"}},{"resource":{"resourceType":"Encounter","id":"7fe4c0dc-3073-47e9-9329-31d44970986d","meta":{"profile":["http://hl7.org/fhir/us/qicore/StructureDefinition/qicore-encounter"]},"status":"finished","class":{"system":"http://terminology.hl7.org/CodeSystem/v3-ActCode","code":"AMB","display":"ambulatory"},"type":[{"coding":[{"system":"http://www.ama-assn.org/go/cpt","code":"99457","display":"Remote physiologic monitoring treatment management services, clinical staff/physician/other qualified health care professional time in a calendar month requiring interactive communication with the patient/caregiver during the month; first 20 minutes"}]}],"subject":{"reference":"Patient/51cf228c-64f1-465b-9eb0-58d986a27cb7"},"period":{"start":"2026-10-11T00:00:00.000Z","end":"2026-10-11T23:59:59.000Z"}},"request":{"method":"PUT","url":"Encounter/7fe4c0dc-3073-47e9-9329-31d44970986d"}},{"resource":{"resourceType":"MedicationRequest","id":"6fe8c433-e786-4b85-b970-57f42cd9b302","meta":{"profile":["http://hl7.org/fhir/us/qicore/StructureDefinition/qicore-medicationrequest"]},"status":"completed","intent":"order","category":[{"coding":[{"system":"http://terminology.hl7.org/CodeSystem/medicationrequest-category","code":"discharge","display":"Discharge"}]}],"medicationCodeableConcept":{"coding":[{"system":"http://www.nlm.nih.gov/research/umls/rxnorm","code":"141963","display":"azithromycin 40 MG/ML Oral Suspension","userSelected":true}]},"subject":{"reference":"Patient/51cf228c-64f1-465b-9eb0-58d986a27cb7"},"authoredOn":"2026-10-12T00:00:00.000Z","requester":{"reference":"Practitioner/example"},"dosageInstruction":[{"timing":{"repeat":{"boundsPeriod":{"start":"2026-10-12T00:00:00.000Z","end":"2026-10-20T00:00:00.000Z"}}}}]},"request":{"method":"PUT","url":"MedicationRequest/6fe8c433-e786-4b85-b970-57f42cd9b302"}},{"resource":{"resourceType":"MeasureReport","id":"547b114c-03c1-43d5-848f-d0dbd9ca75d9","meta":{"profile":["http://hl7.org/fhir/us/cqfmeasures/StructureDefinition/test-case-cqfm"]},"contained":[{"resourceType":"Parameters","id":"e5bb2871-37c2-426e-9ff8-fca34eb4b664-parameters","parameter":[{"name":"subject","valueString":"51cf228c-64f1-465b-9eb0-58d986a27cb7"}]}],"extension":[{"url":"http://hl7.org/fhir/StructureDefinition/cqf-inputParameters","valueReference":{"reference":"#e5bb2871-37c2-426e-9ff8-fca34eb4b664-parameters"}},{"url":"http://hl7.org/fhir/us/cqfmeasures/StructureDefinition/cqfm-testCaseDescription","valueMarkdown":"Qualifying encounter is Virtual Encounter"}],"modifierExtension":[{"url":"http://hl7.org/fhir/us/cqfmeasures/StructureDefinition/cqfm-isTestCase","valueBoolean":true}],"status":"complete","type":"individual","measure":"https://madie.cms.gov/Measure/CMS146FHIRAppropriateTestingforPharyngitis","period":{"start":"2026-01-01","end":"2026-12-31"},"group":[{"id":"Group_1","population":[{"id":"InitialPopulation_1","code":{"coding":[{"system":"http://terminology.hl7.org/CodeSystem/measure-population","code":"initial-population","display":"Initial Population"}]},"count":1},{"id":"Denominator_1","code":{"coding":[{"system":"http://terminology.hl7.org/CodeSystem/measure-population","code":"denominator","display":"Denominator"}]},"count":1},{"id":"DenominatorExclusion_1","code":{"coding":[{"system":"http://terminology.hl7.org/CodeSystem/measure-population","code":"denominator-exclusion","display":"Denominator Exclusion"}]},"count":0},{"id":"Numerator_1","code":{"coding":[{"system":"http://terminology.hl7.org/CodeSystem/measure-population","code":"numerator","display":"Numerator"}]},"count":0}],"measureScore":{"value":0.0},"stratifier":[{"id":"Stratification_1_1","code":[{"text":"Strata-1"}],"stratum":[{"value":{"text":"Strata-1"},"population":[{"id":"InitialPopulation_1","code":{"coding":[{"system":"http://terminology.hl7.org/CodeSystem/measure-population","code":"initial-population","display":"Initial Population"}]},"count":1}]}]},{"id":"Stratification_1_2","code":[{"text":"Strata-2"}],"stratum":[{"value":{"text":"Strata-2"},"population":[{"id":"InitialPopulation_1","code":{"coding":[{"system":"http://terminology.hl7.org/CodeSystem/measure-population","code":"initial-population","display":"Initial Population"}]},"count":1}]}]},{"id":"Stratification_1_3","code":[{"text":"Strata-3"}],"stratum":[{"value":{"text":"Strata-3"},"population":[{"id":"InitialPopulation_1","code":{"coding":[{"system":"http://terminology.hl7.org/CodeSystem/measure-population","code":"initial-population","display":"Initial Population"}]},"count":1}]}]}]}],"evaluatedResource":[{"reference":"Patient/51cf228c-64f1-465b-9eb0-58d986a27cb7"},{"reference":"Encounter/7fe4c0dc-3073-47e9-9329-31d44970986d"},{"reference":"Condition/5590aa61-8e67-4fa0-8ca0-61cbee4948a5"},{"reference":"MedicationRequest/6fe8c433-e786-4b85-b970-57f42cd9b302"}]},"request":{"method":"PUT","url":"MeasureReport/547b114c-03c1-43d5-848f-d0dbd9ca75d9"}},{"resource":{"resourceType":"Condition","id":"5590aa61-8e67-4fa0-8ca0-61cbee4948a5","meta":{"profile":["http://hl7.org/fhir/us/qicore/StructureDefinition/qicore-condition-encounter-diagnosis"]},"clinicalStatus":{"coding":[{"system":"http://terminology.hl7.org/CodeSystem/condition-clinical","code":"active"}]},"category":[{"coding":[{"system":"http://terminology.hl7.org/CodeSystem/condition-category","code":"problem-list-item","display":"Problem List Item"}]}],"code":{"coding":[{"system":"http://snomed.info/sct","code":"17741008","display":"Acute tonsillitis (disorder)"}]},"subject":{"reference":"Patient/51cf228c-64f1-465b-9eb0-58d986a27cb7"},"onsetDateTime":"2026-10-11T12:48:00.000Z"},"request":{"method":"PUT","url":"Condition/5590aa61-8e67-4fa0-8ca0-61cbee4948a5"}},{"resource":{"resourceType":"Patient","id":"51cf228c-64f1-465b-9eb0-58d986a27cb7","meta":{"profile":["http://hl7.org/fhir/us/qicore/StructureDefinition/qicore-patient"]},"extension":[{"url":"http://hl7.org/fhir/us/core/StructureDefinition/us-core-race","extension":[{"url":"ombCategory","valueCoding":{"system":"urn:oid:2.16.840.1.113883.6.238","code":"2028-9","display":"Asian","userSelected":true}},{"url":"text","valueString":"Asian"}]},{"url":"http://hl7.org/fhir/us/core/StructureDefinition/us-core-ethnicity","extension":[{"url":"ombCategory","valueCoding":{"system":"urn:oid:2.16.840.1.113883.6.238","code":"2135-2","display":"Hispanic or Latino","userSelected":true}},{"url":"text","valueString":"Hispanic or Latino"}]}],"identifier":[{"type":{"coding":[{"system":"http://terminology.hl7.org/CodeSystem/v2-0203","code":"MR"}]},"system":"http://hospital.smarthealthit.org","value":"999999995"}],"name":[{"family":"Bertha","given":["Betty"]}],"gender":"male","birthDate":"2021-01-01"},"request":{"method":"PUT","url":"Patient/51cf228c-64f1-465b-9eb0-58d986a27cb7"}},{"resource":{"resourceType":"Measure","id":"CMS146FHIRAppropriateTestingforPharyngitis","meta":{"profile":["http://hl7.org/fhir/uv/crmi/StructureDefinition/crmi-shareablemeasure","http://hl7.org/fhir/us/cqfmeasures/StructureDefinition/computable-measure-cqfm","http://hl7.org/fhir/us/cqfmeasures/StructureDefinition/publishable-measure-cqfm","http://hl7.org/fhir/us/cqfmeasures/StructureDefinition/executable-measure-cqfm","http://hl7.org/fhir/us/cqfmeasures/StructureDefinition/cql-measure-cqfm","http://hl7.org/fhir/us/cqfmeasures/StructureDefinition/elm-measure-cqfm","http://hl7.org/fhir/us/cqfmeasures/StructureDefinition/proportion-measure-cqfm"]},"contained":[{"resourceType":"Library","id":"effective-data-requirements","extension":[{"url":"http://hl7.org/fhir/us/cqfmeasures/StructureDefinition/cqfm-directReferenceCode","valueCoding":{"system":"http://snomed.info/sct","code":"248153007","display":"Male (finding)"}},{"url":"http://hl7.org/fhir/us/cqfmeasures/StructureDefinition/cqfm-directReferenceCode","valueCoding":{"system":"http://snomed.info/sct","code":"248152002","display":"Female (finding)"}},{"url":"http://hl7.org/fhir/us/cqfmeasures/StructureDefinition/cqfm-directReferenceCode","valueCoding":{"system":"http://www.ama-assn.org/go/cpt","code":"99429","display":"Unlisted preventive medicine service"}},{"url":"http://hl7.org/fhir/us/cqfmeasures/StructureDefinition/cqfm-directReferenceCode","valueCoding":{"system":"http://terminology.hl7.org/CodeSystem/condition-clinical","code":"active","display":"Active"}},{"url":"http://hl7.org/fhir/us/cqfmeasures/StructureDefinition/cqfm-directReferenceCode","valueCoding":{"system":"http://terminology.hl7.org/CodeSystem/condition-clinical","code":"recurrence","display":"Recurrence"}},{"url":"http://hl7.org/fhir/us/cqfmeasures/StructureDefinition/cqfm-directReferenceCode","valueCoding":{"system":"http://terminology.hl7.org/CodeSystem/condition-clinical","code":"relapse","display":"Relapse"}},{"url":"http://hl7.org/fhir/us/cqfmeasures/StructureDefinition/cqfm-directReferenceCode","valueCoding":{"system":"http://snomed.info/sct","code":"428361000124107","display":"Discharge to home for hospice care (procedure)"}},{"url":"http://hl7.org/fhir/us/cqfmeasures/StructureDefinition/cqfm-directReferenceCode","valueCoding":{"system":"http://snomed.info/sct","code":"428371000124100","display":"Discharge to healthcare facility for hospice care (procedure)"}},{"url":"http://hl7.org/fhir/us/cqfmeasures/StructureDefinition/cqfm-directReferenceCode","valueCoding":{"system":"http://loinc.org","code":"45755-6","display":"Hospice care [Minimum Data Set]"}},{"url":"http://hl7.org/fhir/us/cqfmeasures/StructureDefinition/cqfm-directReferenceCode","valueCoding":{"system":"http://snomed.info/sct","code":"373066001","display":"Yes (qualifier value)"}},{"url":"http://hl7.org/fhir/us/cqfmeasures/StructureDefinition/cqfm-logicDefinition","extension":[{"url":"libraryName","valueString":"SupplementalDataElements"},{"url":"name","valueString":"SDE Sex"},{"url":"statement","valueString":"define \"SDE Sex\":\n  case\n    when Patient.sex = '248153007' then \"Male (finding)\"\n    when Patient.sex = '248152002' then \"Female (finding)\"\n    else null\n  end"},{"url":"displaySequence","valueInteger":0}]},{"url":"http://hl7.org/fhir/us/cqfmeasures/StructureDefinition/cqfm-logicDefinition","extension":[{"url":"libraryName","valueString":"CMS146FHIRAppropriateTestingforPharyngitis"},{"url":"name","valueString":"SDE Sex"},{"url":"statement","valueString":"define \"SDE Sex\":\n  SDE.\"SDE Sex\""},{"url":"displaySequence","valueInteger":1}]},{"url":"http://hl7.org/fhir/us/cqfmeasures/StructureDefinition/cqfm-logicDefinition","extension":[{"url":"libraryName","valueString":"CMS146FHIRAppropriateTestingforPharyngitis"},{"url":"name","valueString":"Group A Streptococcus Lab Test With Result"},{"url":"statement","valueString":"define \"Group A Streptococcus Lab Test With Result\":\n  ( ( [LaboratoryResultObservation: \"Group A Streptococcus Test\"] ).isLaboratoryTestPerformed ( ) ) GroupAStreptococcusTest\n    where GroupAStreptococcusTest.value is not null"},{"url":"displaySequence","valueInteger":2}]},{"url":"http://hl7.org/fhir/us/cqfmeasures/StructureDefinition/cqfm-logicDefinition","extension":[{"url":"libraryName","valueString":"CMS146FHIRAppropriateTestingforPharyngitis"},{"url":"name","valueString":"Qualifying Encounters"},{"url":"statement","valueString":"define \"Qualifying Encounters\":\n  ( ( [Encounter: \"Emergency Department Evaluation and Management Visit\"]\n      union [Encounter: \"Home Healthcare Services\"]\n      union [Encounter: \"Medical Disability Exam\"]\n      union [Encounter: \"Office Visit\"]\n      union [Encounter: \"Telephone Visits\"]\n      union [Encounter: \"Virtual Encounter\"]\n      union [Encounter: \"Outpatient Consultation\"]\n      union [Encounter: \"Preventive Care Services Established Office Visit, 18 and Up\"]\n      union [Encounter: \"Preventive Care Services Group Counseling\"]\n      union ( [Encounter] E\n          where exists ( ( E.type ) T\n              where T ~ \"Unlisted preventive medicine service\"\n          )\n      )\n      union [Encounter: \"Preventive Care Services, Initial Office Visit, 0 to 17\"]\n      union [Encounter: \"Preventive Care Services Individual Counseling\"]\n      union [Encounter: \"Preventive Care Services Initial Office Visit, 18 and Up\"]\n      union [Encounter: \"Preventive Care, Established Office Visit, 0 to 17\"]\n  ).isEncounterPerformed ( ) ) ValidEncounter\n    where ValidEncounter.period.toInterval ( ) ends during day of Interval[( start of \"Measurement Period\" ), ( end of \"Measurement Period\" ) - 3 days]"},{"url":"displaySequence","valueInteger":3}]},{"url":"http://hl7.org/fhir/us/cqfmeasures/StructureDefinition/cqfm-logicDefinition","extension":[{"url":"libraryName","valueString":"CMS146FHIRAppropriateTestingforPharyngitis"},{"url":"name","valueString":"Encounter With Antibiotic Ordered Within Three Days"},{"url":"statement","valueString":"define \"Encounter With Antibiotic Ordered Within Three Days\":\n  \"Qualifying Encounters\" EDOrAmbulatoryVisit\n    with ( ( [MedicationRequest: \"Antibiotic Medications for Pharyngitis\"] ).isMedicationOrder ( ) ) AntibioticOrdered\n      such that EDOrAmbulatoryVisit.period.toInterval ( ) starts 3 days or less on or before day of AntibioticOrdered.authoredOn"},{"url":"displaySequence","valueInteger":4}]},{"url":"http://hl7.org/fhir/us/cqfmeasures/StructureDefinition/cqfm-logicDefinition","extension":[{"url":"libraryName","valueString":"CMS146FHIRAppropriateTestingforPharyngitis"},{"url":"name","valueString":"Pharyngitis or Tonsillitis"},{"url":"statement","valueString":"define \"Pharyngitis or Tonsillitis\":\n  ( [ConditionEncounterDiagnosis: \"Acute Pharyngitis\"]\n      union [ConditionEncounterDiagnosis: \"Acute Tonsillitis\"]\n  )"},{"url":"displaySequence","valueInteger":5}]},{"url":"http://hl7.org/fhir/us/cqfmeasures/StructureDefinition/cqfm-logicDefinition","extension":[{"url":"libraryName","valueString":"CMS146FHIRAppropriateTestingforPharyngitis"},{"url":"name","valueString":"Encounter With Pharyngitis or Tonsillitis With Antibiotic"},{"url":"statement","valueString":"define \"Encounter With Pharyngitis or Tonsillitis With Antibiotic\":\n  from\n    \"Encounter With Antibiotic Ordered Within Three Days\" VisitWithAntibiotic,\n    \"Pharyngitis or Tonsillitis\" AcutePharyngitisTonsillitis\n    where AcutePharyngitisTonsillitis.prevalenceInterval ( ) starts during day of VisitWithAntibiotic.period.toInterval ( )\n    return VisitWithAntibiotic"},{"url":"displaySequence","valueInteger":6}]},{"url":"http://hl7.org/fhir/us/cqfmeasures/StructureDefinition/cqfm-logicDefinition","extension":[{"url":"libraryName","valueString":"CMS146FHIRAppropriateTestingforPharyngitis"},{"url":"name","valueString":"Numerator"},{"url":"statement","valueString":"define \"Numerator\":\n  from\n    \"Group A Streptococcus Lab Test With Result\" GroupAStreptococcusTest,\n    \"Encounter With Pharyngitis or Tonsillitis With Antibiotic\" EncounterWithPharyngitis\n    where GroupAStreptococcusTest.effective.toInterval ( ) starts during day of Interval[( end of EncounterWithPharyngitis.period ) - 3 days, ( end of EncounterWithPharyngitis.period ) + 3 days]\n    return EncounterWithPharyngitis"},{"url":"displaySequence","valueInteger":7}]},{"url":"http://hl7.org/fhir/us/cqfmeasures/StructureDefinition/cqfm-logicDefinition","extension":[{"url":"libraryName","valueString":"CMS146FHIRAppropriateTestingforPharyngitis"},{"url":"name","valueString":"Initial Population"},{"url":"statement","valueString":"define \"Initial Population\":\n  \"Encounter With Pharyngitis or Tonsillitis With Antibiotic\" EncounterWithPharyngitis\n    where AgeInYearsAt(date from start of \"Measurement Period\") >= 3\n    return EncounterWithPharyngitis"},{"url":"displaySequence","valueInteger":8}]},{"url":"http://hl7.org/fhir/us/cqfmeasures/StructureDefinition/cqfm-logicDefinition","extension":[{"url":"libraryName","valueString":"CMS146FHIRAppropriateTestingforPharyngitis"},{"url":"name","valueString":"Denominator"},{"url":"statement","valueString":"define \"Denominator\":\n  \"Initial Population\""},{"url":"displaySequence","valueInteger":9}]},{"url":"http://hl7.org/fhir/us/cqfmeasures/StructureDefinition/cqfm-logicDefinition","extension":[{"url":"libraryName","valueString":"SupplementalDataElements"},{"url":"name","valueString":"SDE Payer"},{"url":"statement","valueString":"define \"SDE Payer\":\n  [Coverage: type in \"Payer Type\"] Payer\n    return {\n      code: Payer.type,\n      period: Payer.period\n    }"},{"url":"displaySequence","valueInteger":10}]},{"url":"http://hl7.org/fhir/us/cqfmeasures/StructureDefinition/cqfm-logicDefinition","extension":[{"url":"libraryName","valueString":"CMS146FHIRAppropriateTestingforPharyngitis"},{"url":"name","valueString":"SDE Payer"},{"url":"statement","valueString":"define \"SDE Payer\":\n  SDE.\"SDE Payer\""},{"url":"displaySequence","valueInteger":11}]},{"url":"http://hl7.org/fhir/us/cqfmeasures/StructureDefinition/cqfm-logicDefinition","extension":[{"url":"libraryName","valueString":"CMS146FHIRAppropriateTestingforPharyngitis"},{"url":"name","valueString":"Initial Population"},{"url":"statement","valueString":"define \"Initial Population\":\n  \"Encounter With Pharyngitis or Tonsillitis With Antibiotic\" EncounterWithPharyngitis\n    where AgeInYearsAt(date from start of \"Measurement Period\") >= 3\n    return EncounterWithPharyngitis"},{"url":"displaySequence","valueInteger":12}]},{"url":"http://hl7.org/fhir/us/cqfmeasures/StructureDefinition/cqfm-logicDefinition","extension":[{"url":"libraryName","valueString":"CMS146FHIRAppropriateTestingforPharyngitis"},{"url":"name","valueString":"Encounter With Pharyngitis or Tonsillitis With Antibiotic"},{"url":"statement","valueString":"define \"Encounter With Pharyngitis or Tonsillitis With Antibiotic\":\n  from\n    \"Encounter With Antibiotic Ordered Within Three Days\" VisitWithAntibiotic,\n    \"Pharyngitis or Tonsillitis\" AcutePharyngitisTonsillitis\n    where AcutePharyngitisTonsillitis.prevalenceInterval ( ) starts during day of VisitWithAntibiotic.period.toInterval ( )\n    return VisitWithAntibiotic"},{"url":"displaySequence","valueInteger":13}]},{"url":"http://hl7.org/fhir/us/cqfmeasures/StructureDefinition/cqfm-logicDefinition","extension":[{"url":"libraryName","valueString":"SupplementalDataElements"},{"url":"name","valueString":"SDE Ethnicity"},{"url":"statement","valueString":"define \"SDE Ethnicity\":\n  Patient.ethnicity E\n    return Tuple {\n      codes: { E.ombCategory } union E.detailed,\n      display: E.text\n    }"},{"url":"displaySequence","valueInteger":14}]},{"url":"http://hl7.org/fhir/us/cqfmeasures/StructureDefinition/cqfm-logicDefinition","extension":[{"url":"libraryName","valueString":"CMS146FHIRAppropriateTestingforPharyngitis"},{"url":"name","valueString":"SDE Ethnicity"},{"url":"statement","valueString":"define \"SDE Ethnicity\":\n  SDE.\"SDE Ethnicity\""},{"url":"displaySequence","valueInteger":15}]},{"url":"http://hl7.org/fhir/us/cqfmeasures/StructureDefinition/cqfm-logicDefinition","extension":[{"url":"libraryName","valueString":"Hospice"},{"url":"name","valueString":"Has Hospice Services"},{"url":"statement","valueString":"define \"Has Hospice Services\":\n  exists ((([Encounter: \"Encounter Inpatient\"]).isEncounterPerformed()) InpatientEncounter\n      where (InpatientEncounter.hospitalization.dischargeDisposition ~ \"Discharge to home for hospice care (procedure)\"\n          or InpatientEncounter.hospitalization.dischargeDisposition ~ \"Discharge to healthcare facility for hospice care (procedure)\"\n      )\n        and InpatientEncounter.period.toInterval() ends during day of \"Measurement Period\"\n  )\n    or exists ((([Encounter: \"Hospice Encounter\"]).isEncounterPerformed()) HospiceEncounter\n        where HospiceEncounter.period.toInterval() overlaps day of \"Measurement Period\"\n    )\n    or exists ((([ObservationScreeningAssessment: \"Hospice care [Minimum Data Set]\"]).isAssessmentPerformed()) HospiceAssessment\n        where HospiceAssessment.value ~ \"Yes (qualifier value)\"\n          and HospiceAssessment.effective.toInterval() overlaps day of \"Measurement Period\"\n    )\n    or exists ((([ServiceRequest: \"Hospice Care Ambulatory\"]).isInterventionOrder()) HospiceOrder\n        where HospiceOrder.authoredOn.toInterval() during day of \"Measurement Period\"\n    )\n    or exists ((([Procedure: \"Hospice Care Ambulatory\"]).isInterventionPerformed()) HospicePerformed\n        where HospicePerformed.performed.toInterval() overlaps day of \"Measurement Period\"\n    )\n    or exists ((([ConditionProblemsHealthConcerns: \"Hospice Diagnosis\"])\n        union ([ConditionEncounterDiagnosis: \"Hospice Diagnosis\"])) HospiceCareDiagnosis\n        where HospiceCareDiagnosis.prevalenceInterval() overlaps day of \"Measurement Period\"\n    )"},{"url":"displaySequence","valueInteger":16}]},{"url":"http://hl7.org/fhir/us/cqfmeasures/StructureDefinition/cqfm-logicDefinition","extension":[{"url":"libraryName","valueString":"CMS146FHIRAppropriateTestingforPharyngitis"},{"url":"name","valueString":"Encounters and Assessments with Hospice Patient"},{"url":"statement","valueString":"define \"Encounters and Assessments with Hospice Patient\":\n  \"Initial Population\" EligibleEncounters\n    where Hospice.\"Has Hospice Services\""},{"url":"displaySequence","valueInteger":17}]},{"url":"http://hl7.org/fhir/us/cqfmeasures/StructureDefinition/cqfm-logicDefinition","extension":[{"url":"libraryName","valueString":"CMS146FHIRAppropriateTestingforPharyngitis"},{"url":"name","valueString":"Denominator Exclusions"},{"url":"statement","valueString":"define \"Denominator Exclusions\":\n  \"Encounters and Assessments with Hospice Patient\"\n    union Antibiotic.\"Has Comorbid Condition History\" ( \"Encounter With Pharyngitis or Tonsillitis With Antibiotic\", ( [ConditionEncounterDiagnosis: \"Comorbid Conditions for Respiratory Conditions\"] ) )\n    union Antibiotic.\"Has Antibiotic Medication History\" ( \"Encounter With Pharyngitis or Tonsillitis With Antibiotic\", ( [MedicationRequest: \"Antibiotic Medications for Pharyngitis\"] ).isMedicationActive ( ) )\n    union Antibiotic.\"Has Competing Diagnosis History\" ( \"Encounter With Pharyngitis or Tonsillitis With Antibiotic\", ( [ConditionEncounterDiagnosis: \"Competing Conditions for Respiratory Conditions\"] ) )"},{"url":"displaySequence","valueInteger":18}]},{"url":"http://hl7.org/fhir/us/cqfmeasures/StructureDefinition/cqfm-logicDefinition","extension":[{"url":"libraryName","valueString":"SupplementalDataElements"},{"url":"name","valueString":"SDE Race"},{"url":"statement","valueString":"define \"SDE Race\":\n  Patient.race R\n    return Tuple {\n      codes: R.ombCategory union R.detailed,\n      display: R.text\n    }"},{"url":"displaySequence","valueInteger":19}]},{"url":"http://hl7.org/fhir/us/cqfmeasures/StructureDefinition/cqfm-logicDefinition","extension":[{"url":"libraryName","valueString":"CMS146FHIRAppropriateTestingforPharyngitis"},{"url":"name","valueString":"SDE Race"},{"url":"statement","valueString":"define \"SDE Race\":\n  SDE.\"SDE Race\""},{"url":"displaySequence","valueInteger":20}]},{"url":"http://hl7.org/fhir/us/cqfmeasures/StructureDefinition/cqfm-logicDefinition","extension":[{"url":"libraryName","valueString":"FHIRHelpers"},{"url":"name","valueString":"ToString"},{"url":"statement","valueString":"define function ToString(value uri): value.value"},{"url":"displaySequence","valueInteger":21}]},{"url":"http://hl7.org/fhir/us/cqfmeasures/StructureDefinition/cqfm-logicDefinition","extension":[{"url":"libraryName","valueString":"Status"},{"url":"name","valueString":"isLaboratoryTestPerformed"},{"url":"statement","valueString":"//Laboratory Test, Performed\ndefine fluent function isLaboratoryTestPerformed(Obs List<LaboratoryResultObservation>):\n  Obs O\n    where O.status in { 'final', 'amended', 'corrected' }"},{"url":"displaySequence","valueInteger":22}]},{"url":"http://hl7.org/fhir/us/cqfmeasures/StructureDefinition/cqfm-logicDefinition","extension":[{"url":"libraryName","valueString":"Status"},{"url":"name","valueString":"isEncounterPerformed"},{"url":"statement","valueString":"//Encounter, Performed\n//General usage unless required otherwise by measure intent (e.g., follow-up encounters)\ndefine fluent function isEncounterPerformed(Enc List<Encounter>):\n  Enc E\n    where E.status in {'finished', 'arrived', 'triaged', 'in-progress', 'onleave'}"},{"url":"displaySequence","valueInteger":23}]},{"url":"http://hl7.org/fhir/us/cqfmeasures/StructureDefinition/cqfm-logicDefinition","extension":[{"url":"libraryName","valueString":"FHIRHelpers"},{"url":"name","valueString":"ToConcept"},{"url":"statement","valueString":"/*\n@description: Converts the given FHIR [CodeableConcept](https://hl7.org/fhir/datatypes.html#CodeableConcept) value to a CQL Concept.\n*/\ndefine function ToConcept(concept FHIR.CodeableConcept):\n    if concept is null then\n        null\n    else\n        System.Concept {\n            codes: concept.coding C return ToCode(C),\n            display: concept.text.value\n        }"},{"url":"displaySequence","valueInteger":24}]},{"url":"http://hl7.org/fhir/us/cqfmeasures/StructureDefinition/cqfm-logicDefinition","extension":[{"url":"libraryName","valueString":"FHIRHelpers"},{"url":"name","valueString":"ToCode"},{"url":"statement","valueString":"/*\n@description: Converts the given FHIR [Coding](https://hl7.org/fhir/datatypes.html#Coding) value to a CQL Code.\n*/\ndefine function ToCode(coding FHIR.Coding):\n    if coding is null then\n        null\n    else\n        System.Code {\n          code: coding.code.value,\n          system: coding.system.value,\n          version: coding.version.value,\n          display: coding.display.value\n        }"},{"url":"displaySequence","valueInteger":25}]},{"url":"http://hl7.org/fhir/us/cqfmeasures/StructureDefinition/cqfm-logicDefinition","extension":[{"url":"libraryName","valueString":"QICoreCommon"},{"url":"name","valueString":"toInterval"},{"url":"statement","valueString":"/*\n@description: Normalizes a value that is a choice of timing-valued types to an equivalent interval\n@comment: Normalizes a choice type of DateTime, Quanitty, Interval<DateTime>, or Interval<Quantity> types\nto an equivalent interval. This selection of choice types is a superset of the majority of choice types that are used as possible\nrepresentations for timing-valued elements in QICore, allowing this function to be used across any resource.\nThe input can be provided as a DateTime, Quantity, Interval<DateTime> or Interval<Quantity>.\nThe intent of this function is to provide a clear and concise mechanism to treat single\nelements that have multiple possible representations as intervals so that logic doesn't have to account\nfor the variability. More complex calculations (such as medication request period or dispense period\ncalculation) need specific guidance and consideration. That guidance may make use of this function, but\nthe focus of this function is on single element calculations where the semantics are unambiguous.\nIf the input is a DateTime, the result a DateTime Interval beginning and ending on that DateTime.\nIf the input is a Quantity, the quantity is expected to be a calendar-duration interpreted as an Age,\nand the result is a DateTime Interval beginning on the Date the patient turned that age and ending immediately before one year later.\nIf the input is a DateTime Interval, the result is the input.\nIf the input is a Quantity Interval, the quantities are expected to be calendar-durations interpreted as an Age, and the result\nis a DateTime Interval beginning on the date the patient turned the age given as the start of the quantity interval, and ending\nimmediately before one year later than the date the patient turned the age given as the end of the quantity interval.\nIf the input is a Timing, an error will be thrown indicating that Timing calculations are not implemented. Any other input will reslt in a null DateTime Interval\n*/\ndefine fluent function toInterval(choice Choice<DateTime, Quantity, Interval<DateTime>, Interval<Quantity>, Timing>):\n  case\n\t  when choice is DateTime then\n    \tInterval[choice as DateTime, choice as DateTime]\n\t\twhen choice is Interval<DateTime> then\n  \t\tchoice as Interval<DateTime>\n\t\twhen choice is Quantity then\n\t\t  Interval[Patient.birthDate + (choice as Quantity),\n\t\t\t  Patient.birthDate + (choice as Quantity) + 1 year)\n\t\twhen choice is Interval<Quantity> then\n\t\t  Interval[Patient.birthDate + (choice.low as Quantity),\n\t\t\t  Patient.birthDate + (choice.high as Quantity) + 1 year)\n\t\twhen choice is Timing then\n      Message(null, true, 'NOT_IMPLEMENTED', 'Error', 'Calculation of an interval from a Timing value is not supported') as Interval<DateTime>\n\t\telse\n\t\t\tnull as Interval<DateTime>\n\tend"},{"url":"displaySequence","valueInteger":26}]},{"url":"http://hl7.org/fhir/us/cqfmeasures/StructureDefinition/cqfm-logicDefinition","extension":[{"url":"libraryName","valueString":"FHIRHelpers"},{"url":"name","valueString":"ToInterval"},{"url":"statement","valueString":"/*\n@description: Converts the given [Period](https://hl7.org/fhir/datatypes.html#Period)\nvalue to a CQL DateTime Interval\n@comment: If the start value of the given period is unspecified, the starting\nboundary of the resulting interval will be open (meaning the start of the interval\nis unknown, as opposed to interpreted as the beginning of time).\n*/\ndefine function ToInterval(period FHIR.Period):\n    if period is null then\n        null\n    else\n        if period.\"start\" is null then\n            Interval(period.\"start\".value, period.\"end\".value]\n        else\n            Interval[period.\"start\".value, period.\"end\".value]"},{"url":"displaySequence","valueInteger":27}]},{"url":"http://hl7.org/fhir/us/cqfmeasures/StructureDefinition/cqfm-logicDefinition","extension":[{"url":"libraryName","valueString":"Status"},{"url":"name","valueString":"isMedicationOrder"},{"url":"statement","valueString":"//Medication, Order\ndefine fluent function isMedicationOrder(MedicationRequest List<MedicationRequest>):\n  MedicationRequest M\n    where M.status in { 'active', 'completed' }\n      and M.intent = 'order'"},{"url":"displaySequence","valueInteger":28}]},{"url":"http://hl7.org/fhir/us/cqfmeasures/StructureDefinition/cqfm-logicDefinition","extension":[{"url":"libraryName","valueString":"QICoreCommon"},{"url":"name","valueString":"prevalenceInterval"},{"url":"statement","valueString":"/*\n@description: Returns an interval representing the normalized prevalence period of a given Condition.\n@comment: Uses the ToInterval and ToAbatementInterval functions to determine the widest potential interval from\nonset to abatement as specified in the given Condition. If the condition is active, or has an abatement date the resulting \ninterval will have a closed ending boundary. Otherwise, the resulting interval will have an open ending boundary.\n*/\ndefine fluent function prevalenceInterval(condition Choice<\"ConditionEncounterDiagnosis\", \"ConditionProblemsHealthConcerns\">):\nif condition.clinicalStatus ~ \"active\"\n  or condition.clinicalStatus ~ \"recurrence\"\n  or condition.clinicalStatus ~ \"relapse\" then\n  Interval[start of condition.onset.toInterval(), end of condition.abatementInterval()]\nelse\n    (end of condition.abatementInterval()) abatementDate\n    return if abatementDate is null then\n      Interval[start of condition.onset.toInterval(), abatementDate)\n    else\n      Interval[start of condition.onset.toInterval(), abatementDate]"},{"url":"displaySequence","valueInteger":29}]},{"url":"http://hl7.org/fhir/us/cqfmeasures/StructureDefinition/cqfm-logicDefinition","extension":[{"url":"libraryName","valueString":"QICoreCommon"},{"url":"name","valueString":"abatementInterval"},{"url":"statement","valueString":"/*\n@description: Returns an interval representing the normalized abatement of a given Condition.\n@comment: If the abatement element of the Condition is represented as a DateTime, the result\nis an interval beginning and ending on that DateTime.\nIf the abatement is represented as a Quantity, the quantity is expected to be a calendar-duration and is interpreted as the age of the patient. The\nresult is an interval from the date the patient turned that age to immediately before one year later.\nIf the abatement is represented as a Quantity Interval, the quantities are expected to be calendar-durations and are interpreted as an age range during\nwhich the abatement occurred. The result is an interval from the date the patient turned the starting age of the quantity interval, and ending immediately\nbefore one year later than the date the patient turned the ending age of the quantity interval.\n*/\ndefine fluent function abatementInterval(condition Choice<\"ConditionEncounterDiagnosis\", \"ConditionProblemsHealthConcerns\">):\n\tif condition.abatement is DateTime then\n\t  Interval[condition.abatement as DateTime, condition.abatement as DateTime]\n\telse if condition.abatement is Quantity then\n\t\tInterval[Patient.birthDate + (condition.abatement as Quantity),\n\t\t\tPatient.birthDate + (condition.abatement as Quantity) + 1 year)\n\telse if condition.abatement is Interval<Quantity> then\n\t  Interval[Patient.birthDate + (condition.abatement.low as Quantity),\n\t\t  Patient.birthDate + (condition.abatement.high as Quantity) + 1 year)\n\telse if condition.abatement is Interval<DateTime> then\n\t  Interval[condition.abatement.low, condition.abatement.high)\n\telse null as Interval<DateTime>"},{"url":"displaySequence","valueInteger":30}]},{"url":"http://hl7.org/fhir/us/cqfmeasures/StructureDefinition/cqfm-logicDefinition","extension":[{"url":"libraryName","valueString":"Status"},{"url":"name","valueString":"isAssessmentPerformed"},{"url":"statement","valueString":"//This library contains functions used to constrain FHIR resource elements for measures authored by NCQA, based on QICore 6.0.0 resources including IG and authoring patterns. The functions may appear similar to some QICoreCommon functions but differ in that they have constraints that are relevant for measures authored by NCQA.\n\n//Assessment, Performed\ndefine fluent function isAssessmentPerformed(Obs List<ObservationScreeningAssessment>):\n  Obs O\n    where O.status in { 'final', 'amended', 'corrected' }"},{"url":"displaySequence","valueInteger":31}]},{"url":"http://hl7.org/fhir/us/cqfmeasures/StructureDefinition/cqfm-logicDefinition","extension":[{"url":"libraryName","valueString":"Status"},{"url":"name","valueString":"isInterventionOrder"},{"url":"statement","valueString":"//Intervention, Order\ndefine fluent function isInterventionOrder(ServiceRequest List<ServiceRequest>):\n  ServiceRequest S\n    where S.status in { 'active', 'completed' }\n      and S.intent = 'order'"},{"url":"displaySequence","valueInteger":32}]},{"url":"http://hl7.org/fhir/us/cqfmeasures/StructureDefinition/cqfm-logicDefinition","extension":[{"url":"libraryName","valueString":"Status"},{"url":"name","valueString":"isInterventionPerformed"},{"url":"statement","valueString":"//Intervention, Performed\ndefine fluent function isInterventionPerformed(Proc List<Procedure>):\n  Proc P\n    where P.status ~ 'completed'"},{"url":"displaySequence","valueInteger":33}]},{"url":"http://hl7.org/fhir/us/cqfmeasures/StructureDefinition/cqfm-logicDefinition","extension":[{"url":"libraryName","valueString":"Antibiotic"},{"url":"name","valueString":"Has Comorbid Condition History"},{"url":"statement","valueString":"define function \"Has Comorbid Condition History\"(episodeDate List<Encounter>, comorbidConditions List<ConditionEncounterDiagnosis>):\n  episodeDate eDate\n      with comorbidConditions comcondition\n        such that date from start of comcondition.prevalenceInterval() during Interval[date from start of eDate.period.toInterval() - 1 year, date from start of eDate.period.toInterval()]\n      return eDate"},{"url":"displaySequence","valueInteger":34}]},{"url":"http://hl7.org/fhir/us/cqfmeasures/StructureDefinition/cqfm-logicDefinition","extension":[{"url":"libraryName","valueString":"Antibiotic"},{"url":"name","valueString":"Has Antibiotic Medication History"},{"url":"statement","valueString":"define function \"Has Antibiotic Medication History\"(episodeDate List<Encounter>, antibioticMedications List<MedicationRequest>):\n   episodeDate DateOfEpisode\n    with antibioticMedications ActiveMedication\n      such that ActiveMedication.medicationRequestPeriod() overlaps day of Interval[date from start of DateOfEpisode.period.toInterval()  - 30 days, date from start of DateOfEpisode.period.toInterval() - 1 day]"},{"url":"displaySequence","valueInteger":35}]},{"url":"http://hl7.org/fhir/us/cqfmeasures/StructureDefinition/cqfm-logicDefinition","extension":[{"url":"libraryName","valueString":"CumulativeMedicationDuration"},{"url":"name","valueString":"medicationRequestPeriod"},{"url":"statement","valueString":"define fluent function medicationRequestPeriod(Request \"MedicationRequest\"):\n  Request R\n    let\n      dosage: singleton from R.dosageInstruction,\n      doseAndRate: singleton from dosage.doseAndRate,\n      timing: dosage.timing,\n      frequency: Coalesce(timing.repeat.frequencyMax, timing.repeat.frequency),\n      period: Quantity(timing.repeat.period, timing.repeat.periodUnit),\n      doseRange: doseAndRate.dose,\n      doseQuantity: doseAndRate.dose,\n      dose: Coalesce(end of doseRange, doseQuantity),\n      dosesPerDay: Coalesce(ToDaily(frequency, period), Count(timing.repeat.timeOfDay), 1.0),\n      boundsPeriod: timing.repeat.bounds as Interval<DateTime>,\n      daysSupply: (convert R.dispenseRequest.expectedSupplyDuration to days).value,\n      quantity: R.dispenseRequest.quantity,\n      refills: Coalesce(R.dispenseRequest.numberOfRepeatsAllowed, 0),\n      startDate:\n        Coalesce(\n          date from start of boundsPeriod,\n          date from R.authoredOn,\n          date from start of R.dispenseRequest.validityPeriod\n        ),\n      totalDaysSupplied: Coalesce(daysSupply, quantity.value / (dose.value * dosesPerDay)) * (1 + refills)\n    return\n      if startDate is not null and totalDaysSupplied is not null then\n        Interval[startDate, startDate + Quantity(totalDaysSupplied - 1, 'day') ]\n      else if startDate is not null and boundsPeriod.\"high\" is not null then\n        Interval[startDate, date from end of boundsPeriod]\n      else\n        null"},{"url":"displaySequence","valueInteger":36}]},{"url":"http://hl7.org/fhir/us/cqfmeasures/StructureDefinition/cqfm-logicDefinition","extension":[{"url":"libraryName","valueString":"CumulativeMedicationDuration"},{"url":"name","valueString":"Quantity"},{"url":"statement","valueString":"/**********************************************************************/\n/* Functions in this region are copied from opioid-mme-r4             */\n/**********************************************************************/\n\ndefine function Quantity(value Decimal, unit String):\n  if value is not null then\n    System.Quantity { value: value, unit: unit }\n  else\n    null"},{"url":"displaySequence","valueInteger":37}]},{"url":"http://hl7.org/fhir/us/cqfmeasures/StructureDefinition/cqfm-logicDefinition","extension":[{"url":"libraryName","valueString":"CumulativeMedicationDuration"},{"url":"name","valueString":"ToDaily"},{"url":"statement","valueString":"/*\n Goal is to get to number of days\n Two broad approaches to the calculation:\n  1) Based on supply and frequency, calculate the number of expected days the medication will cover/has covered\n  2) Based on relevant period, determine a covered interval and calculate the length of that interval in days\nThis topic covers several use cases and illustrates how to calculate Cumulative\nMedication Duration for each type of medication resource using the supply and\nfrequency approach.\n*/\n\n/*\n  For the first approach, we need to get from frequency to a frequency/day\n  So we define ToDaily\n*/\n\n/*\n  Calculates daily frequency given frequency within a period\n*/\ndefine function ToDaily(frequency System.Integer, period System.Quantity):\n  case period.unit\n    when 'h' then frequency * (24.0 / period.value)\n    when 'min' then frequency * (24.0 / period.value) * 60\n    when 's' then frequency * (24.0 / period.value) * 60 * 60\n    when 'd' then frequency * (24.0 / period.value) / 24\n    when 'wk' then frequency * (24.0 / period.value) / (24 * 7)\n    when 'mo' then frequency * (24.0 / period.value) / (24 * 30) /* assuming 30 days in month */\n    when 'a' then frequency * (24.0 / period.value) / (24 * 365) /* assuming 365 days in year */\n    when 'hour' then frequency * (24.0 / period.value)\n    when 'minute' then frequency * (24.0 / period.value) * 60\n    when 'second' then frequency * (24.0 / period.value) * 60 * 60\n    when 'day' then frequency * (24.0 / period.value) / 24\n    when 'week' then frequency * (24.0 / period.value) / (24 * 7)\n    when 'month' then frequency * (24.0 / period.value) / (24 * 30) /* assuming 30 days in month */\n    when 'year' then frequency * (24.0 / period.value) / (24 * 365) /* assuming 365 days in year */\n    when 'hours' then frequency * (24.0 / period.value)\n    when 'minutes' then frequency * (24.0 / period.value) * 60\n    when 'seconds' then frequency * (24.0 / period.value) * 60 * 60\n    when 'days' then frequency * (24.0 / period.value) / 24\n    when 'weeks' then frequency * (24.0 / period.value) / (24 * 7)\n    when 'months' then frequency * (24.0 / period.value) / (24 * 30) /* assuming 30 days in month */\n    when 'years' then frequency * (24.0 / period.value) / (24 * 365) /* assuming 365 days in year */\n    else Message(null, true, 'CMDLogic.ToDaily.UnknownUnit', ErrorLevel, 'Unknown unit ' & period.unit)\n  end"},{"url":"displaySequence","valueInteger":38}]},{"url":"http://hl7.org/fhir/us/cqfmeasures/StructureDefinition/cqfm-logicDefinition","extension":[{"url":"libraryName","valueString":"Status"},{"url":"name","valueString":"isMedicationActive"},{"url":"statement","valueString":"//Medication, Active\ndefine fluent function isMedicationActive(MedicationRequest List<MedicationRequest>):\n  MedicationRequest M\n    where M.status = 'active'\n      and M.intent = 'order'"},{"url":"displaySequence","valueInteger":39}]},{"url":"http://hl7.org/fhir/us/cqfmeasures/StructureDefinition/cqfm-logicDefinition","extension":[{"url":"libraryName","valueString":"Antibiotic"},{"url":"name","valueString":"Has Competing Diagnosis History"},{"url":"statement","valueString":"define function \"Has Competing Diagnosis History\"(episodeDate List<Encounter>, competingConditions List<ConditionEncounterDiagnosis>):\n  episodeDate eDate\n      with competingConditions competcondition\n        such that competcondition.prevalenceInterval() starts 3 days or less on or after day of start of eDate.period\n      return eDate"},{"url":"displaySequence","valueInteger":40}]}],"name":"EffectiveDataRequirements","status":"active","type":{"coding":[{"system":"http://terminology.hl7.org/CodeSystem/library-type","code":"module-definition"}]},"relatedArtifact":[{"type":"depends-on","display":"Library SDE","resource":"Library/SupplementalDataElements|5.1.000"},{"type":"depends-on","display":"Library FHIRHelpers","resource":"Library/FHIRHelpers|4.4.000"},{"type":"depends-on","display":"Library Status","resource":"Library/Status|1.13.000"},{"type":"depends-on","display":"Library FHIRHelpers","resource":"Library/FHIRHelpers|4.4.000"},{"type":"depends-on","display":"Library QICoreCommon","resource":"Library/QICoreCommon|4.0.000"},{"type":"depends-on","display":"Library FHIRHelpers","resource":"Library/FHIRHelpers|4.4.000"},{"type":"depends-on","display":"Library Hospice","resource":"Library/Hospice|6.15.000"},{"type":"depends-on","display":"Library Status","resource":"Library/Status|1.13.000"},{"type":"depends-on","display":"Library FHIRHelpers","resource":"Library/FHIRHelpers|4.4.000"},{"type":"depends-on","display":"Library QICoreCommon","resource":"Library/QICoreCommon|4.0.000"},{"type":"depends-on","display":"Library Antibiotic","resource":"Library/Antibiotic|1.9.000"},{"type":"depends-on","display":"Library QICoreCommon","resource":"Library/QICoreCommon|4.0.000"},{"type":"depends-on","display":"Library FHIRHelpers","resource":"Library/FHIRHelpers|4.4.000"},{"type":"depends-on","display":"Library CMD","resource":"Library/CumulativeMedicationDuration|6.0.000"},{"type":"depends-on","display":"Library FHIRHelpers","resource":"Library/FHIRHelpers|4.4.000"},{"type":"depends-on","display":"Code system SNOMEDCT","resource":"http://snomed.info/sct"},{"type":"depends-on","display":"Code system CPT","resource":"http://www.ama-assn.org/go/cpt"},{"type":"depends-on","display":"Code system ConditionClinicalStatusCodes","resource":"http://terminology.hl7.org/CodeSystem/condition-clinical"},{"type":"depends-on","display":"Code system SNOMEDCT","resource":"http://snomed.info/sct"},{"type":"depends-on","display":"Code system LOINC","resource":"http://loinc.org"},{"type":"depends-on","display":"Value set Group A Streptococcus Test","resource":"http://cts.nlm.nih.gov/fhir/ValueSet/2.16.840.1.113883.3.464.1003.198.12.1012"},{"type":"depends-on","display":"Value set Emergency Department Evaluation and Management Visit","resource":"http://cts.nlm.nih.gov/fhir/ValueSet/2.16.840.1.113883.3.464.1003.101.12.1010"},{"type":"depends-on","display":"Value set Home Healthcare Services","resource":"http://cts.nlm.nih.gov/fhir/ValueSet/2.16.840.1.113883.3.464.1003.101.12.1016"},{"type":"depends-on","display":"Value set Medical Disability Exam","resource":"http://cts.nlm.nih.gov/fhir/ValueSet/2.16.840.1.113883.3.464.1003.101.12.1073"},{"type":"depends-on","display":"Value set Office Visit","resource":"http://cts.nlm.nih.gov/fhir/ValueSet/2.16.840.1.113883.3.464.1003.101.12.1001"},{"type":"depends-on","display":"Value set Telephone Visits","resource":"http://cts.nlm.nih.gov/fhir/ValueSet/2.16.840.1.113883.3.464.1003.101.12.1080"},{"type":"depends-on","display":"Value set Virtual Encounter","resource":"http://cts.nlm.nih.gov/fhir/ValueSet/2.16.840.1.113883.3.464.1003.101.12.1089"},{"type":"depends-on","display":"Value set Outpatient Consultation","resource":"http://cts.nlm.nih.gov/fhir/ValueSet/2.16.840.1.113883.3.464.1003.101.12.1008"},{"type":"depends-on","display":"Value set Preventive Care Services Established Office Visit, 18 and Up","resource":"http://cts.nlm.nih.gov/fhir/ValueSet/2.16.840.1.113883.3.464.1003.101.12.1025"},{"type":"depends-on","display":"Value set Preventive Care Services Group Counseling","resource":"http://cts.nlm.nih.gov/fhir/ValueSet/2.16.840.1.113883.3.464.1003.101.12.1027"},{"type":"depends-on","display":"Value set Preventive Care Services, Initial Office Visit, 0 to 17","resource":"http://cts.nlm.nih.gov/fhir/ValueSet/2.16.840.1.113883.3.464.1003.101.12.1022"},{"type":"depends-on","display":"Value set Preventive Care Services Individual Counseling","resource":"http://cts.nlm.nih.gov/fhir/ValueSet/2.16.840.1.113883.3.464.1003.101.12.1026"},{"type":"depends-on","display":"Value set Preventive Care Services Initial Office Visit, 18 and Up","resource":"http://cts.nlm.nih.gov/fhir/ValueSet/2.16.840.1.113883.3.464.1003.101.12.1023"},{"type":"depends-on","display":"Value set Preventive Care, Established Office Visit, 0 to 17","resource":"http://cts.nlm.nih.gov/fhir/ValueSet/2.16.840.1.113883.3.464.1003.101.12.1024"},{"type":"depends-on","display":"Value set Antibiotic Medications for Pharyngitis","resource":"http://cts.nlm.nih.gov/fhir/ValueSet/2.16.840.1.113883.3.464.1003.196.12.1001"},{"type":"depends-on","display":"Value set Acute Pharyngitis","resource":"http://cts.nlm.nih.gov/fhir/ValueSet/2.16.840.1.113883.3.464.1003.102.12.1011"},{"type":"depends-on","display":"Value set Acute Tonsillitis","resource":"http://cts.nlm.nih.gov/fhir/ValueSet/2.16.840.1.113883.3.464.1003.102.12.1012"},{"type":"depends-on","display":"Value set Payer Type","resource":"http://cts.nlm.nih.gov/fhir/ValueSet/2.16.840.1.114222.4.11.3591"},{"type":"depends-on","display":"Value set Encounter Inpatient","resource":"http://cts.nlm.nih.gov/fhir/ValueSet/2.16.840.1.113883.3.666.5.307"},{"type":"depends-on","display":"Value set Hospice Encounter","resource":"http://cts.nlm.nih.gov/fhir/ValueSet/2.16.840.1.113883.3.464.1003.1003"},{"type":"depends-on","display":"Value set Hospice Care Ambulatory","resource":"http://cts.nlm.nih.gov/fhir/ValueSet/2.16.840.1.113883.3.526.3.1584"},{"type":"depends-on","display":"Value set Hospice Diagnosis","resource":"http://cts.nlm.nih.gov/fhir/ValueSet/2.16.840.1.113883.3.464.1003.1165"},{"type":"depends-on","display":"Value set Comorbid Conditions for Respiratory Conditions","resource":"http://cts.nlm.nih.gov/fhir/ValueSet/2.16.840.1.113883.3.464.1003.102.12.1025"},{"type":"depends-on","display":"Value set Competing Conditions for Respiratory Conditions","resource":"http://cts.nlm.nih.gov/fhir/ValueSet/2.16.840.1.113883.3.464.1003.102.12.1017"}],"parameter":[{"name":"Measurement Period","use":"in","min":0,"max":"1","type":"Period"},{"name":"ErrorLevel","use":"in","min":0,"max":"1","type":"string"},{"name":"SDE Sex","use":"out","min":0,"max":"1","type":"Coding"},{"name":"Numerator","use":"out","min":0,"max":"*","type":"Resource"},{"name":"Denominator","use":"out","min":0,"max":"*","type":"Resource"},{"name":"SDE Payer","use":"out","min":0,"max":"*","type":"Resource"},{"name":"Initial Population","use":"out","min":0,"max":"*","type":"Resource"},{"name":"Encounter With Pharyngitis or Tonsillitis With Antibiotic","use":"out","min":0,"max":"*","type":"Resource"},{"name":"SDE Ethnicity","use":"out","min":0,"max":"1","type":"Resource"},{"name":"Denominator Exclusions","use":"out","min":0,"max":"*","type":"Resource"},{"name":"SDE Race","use":"out","min":0,"max":"1","type":"Resource"}],"dataRequirement":[{"type":"Patient","profile":["http://hl7.org/fhir/us/qicore/StructureDefinition/qicore-patient"]},{"type":"Patient","profile":["http://hl7.org/fhir/us/qicore/StructureDefinition/qicore-patient"],"mustSupport":["url","value.value"]},{"type":"Patient","profile":["http://hl7.org/fhir/us/qicore/StructureDefinition/qicore-patient"],"mustSupport":["url","value.value"]},{"type":"Observation","profile":["http://hl7.org/fhir/us/qicore/StructureDefinition/qicore-observation-lab"],"mustSupport":["code","value"],"codeFilter":[{"path":"code","valueSet":"http://cts.nlm.nih.gov/fhir/ValueSet/2.16.840.1.113883.3.464.1003.198.12.1012"}]},{"type":"Patient","profile":["http://hl7.org/fhir/us/qicore/StructureDefinition/qicore-patient"]},{"type":"Encounter","profile":["http://hl7.org/fhir/us/qicore/StructureDefinition/qicore-encounter"],"mustSupport":["type"],"codeFilter":[{"path":"type","valueSet":"http://cts.nlm.nih.gov/fhir/ValueSet/2.16.840.1.113883.3.464.1003.101.12.1010"}]},{"type":"Encounter","profile":["http://hl7.org/fhir/us/qicore/StructureDefinition/qicore-encounter"],"mustSupport":["type"],"codeFilter":[{"path":"type","valueSet":"http://cts.nlm.nih.gov/fhir/ValueSet/2.16.840.1.113883.3.464.1003.101.12.1016"}]},{"type":"Encounter","profile":["http://hl7.org/fhir/us/qicore/StructureDefinition/qicore-encounter"],"mustSupport":["type"],"codeFilter":[{"path":"type","valueSet":"http://cts.nlm.nih.gov/fhir/ValueSet/2.16.840.1.113883.3.464.1003.101.12.1073"}]},{"type":"Encounter","profile":["http://hl7.org/fhir/us/qicore/StructureDefinition/qicore-encounter"],"mustSupport":["type"],"codeFilter":[{"path":"type","valueSet":"http://cts.nlm.nih.gov/fhir/ValueSet/2.16.840.1.113883.3.464.1003.101.12.1001"}]},{"type":"Encounter","profile":["http://hl7.org/fhir/us/qicore/StructureDefinition/qicore-encounter"],"mustSupport":["type"],"codeFilter":[{"path":"type","valueSet":"http://cts.nlm.nih.gov/fhir/ValueSet/2.16.840.1.113883.3.464.1003.101.12.1080"}]},{"type":"Encounter","profile":["http://hl7.org/fhir/us/qicore/StructureDefinition/qicore-encounter"],"mustSupport":["type"],"codeFilter":[{"path":"type","valueSet":"http://cts.nlm.nih.gov/fhir/ValueSet/2.16.840.1.113883.3.464.1003.101.12.1089"}]},{"type":"Encounter","profile":["http://hl7.org/fhir/us/qicore/StructureDefinition/qicore-encounter"],"mustSupport":["type"],"codeFilter":[{"path":"type","valueSet":"http://cts.nlm.nih.gov/fhir/ValueSet/2.16.840.1.113883.3.464.1003.101.12.1008"}]},{"type":"Encounter","profile":["http://hl7.org/fhir/us/qicore/StructureDefinition/qicore-encounter"],"mustSupport":["type"],"codeFilter":[{"path":"type","valueSet":"http://cts.nlm.nih.gov/fhir/ValueSet/2.16.840.1.113883.3.464.1003.101.12.1025"}]},{"type":"Encounter","profile":["http://hl7.org/fhir/us/qicore/StructureDefinition/qicore-encounter"],"mustSupport":["type"],"codeFilter":[{"path":"type","valueSet":"http://cts.nlm.nih.gov/fhir/ValueSet/2.16.840.1.113883.3.464.1003.101.12.1027"}]},{"type":"Encounter","profile":["http://hl7.org/fhir/us/qicore/StructureDefinition/qicore-encounter"],"mustSupport":["type"]},{"type":"Encounter","profile":["http://hl7.org/fhir/us/qicore/StructureDefinition/qicore-encounter"],"mustSupport":["type"],"codeFilter":[{"path":"type","valueSet":"http://cts.nlm.nih.gov/fhir/ValueSet/2.16.840.1.113883.3.464.1003.101.12.1022"}]},{"type":"Encounter","profile":["http://hl7.org/fhir/us/qicore/StructureDefinition/qicore-encounter"],"mustSupport":["type"],"codeFilter":[{"path":"type","valueSet":"http://cts.nlm.nih.gov/fhir/ValueSet/2.16.840.1.113883.3.464.1003.101.12.1026"}]},{"type":"Encounter","profile":["http://hl7.org/fhir/us/qicore/StructureDefinition/qicore-encounter"],"mustSupport":["type"],"codeFilter":[{"path":"type","valueSet":"http://cts.nlm.nih.gov/fhir/ValueSet/2.16.840.1.113883.3.464.1003.101.12.1023"}]},{"type":"Encounter","profile":["http://hl7.org/fhir/us/qicore/StructureDefinition/qicore-encounter"],"mustSupport":["type"],"codeFilter":[{"path":"type","valueSet":"http://cts.nlm.nih.gov/fhir/ValueSet/2.16.840.1.113883.3.464.1003.101.12.1024"}]},{"type":"MedicationRequest","profile":["http://hl7.org/fhir/us/qicore/StructureDefinition/qicore-medicationrequest"],"mustSupport":["medication"],"codeFilter":[{"path":"medication","valueSet":"http://cts.nlm.nih.gov/fhir/ValueSet/2.16.840.1.113883.3.464.1003.196.12.1001"}]},{"type":"MedicationRequest","profile":["http://hl7.org/fhir/us/qicore/StructureDefinition/qicore-medicationrequest"],"mustSupport":["medication.reference.value"]},{"type":"Medication","profile":["http://hl7.org/fhir/us/qicore/StructureDefinition/qicore-medication"],"mustSupport":["id.value","code"]},{"type":"Condition","profile":["http://hl7.org/fhir/us/qicore/StructureDefinition/qicore-condition-encounter-diagnosis"],"mustSupport":["code"],"codeFilter":[{"path":"code","valueSet":"http://cts.nlm.nih.gov/fhir/ValueSet/2.16.840.1.113883.3.464.1003.102.12.1011"}]},{"type":"Condition","profile":["http://hl7.org/fhir/us/qicore/StructureDefinition/qicore-condition-encounter-diagnosis"],"mustSupport":["code"],"codeFilter":[{"path":"code","valueSet":"http://cts.nlm.nih.gov/fhir/ValueSet/2.16.840.1.113883.3.464.1003.102.12.1012"}]},{"type":"Observation","profile":["http://hl7.org/fhir/us/qicore/StructureDefinition/qicore-observation-lab"],"mustSupport":["code","value","effective"],"codeFilter":[{"path":"code","valueSet":"http://cts.nlm.nih.gov/fhir/ValueSet/2.16.840.1.113883.3.464.1003.198.12.1012"}]},{"type":"Patient","profile":["http://hl7.org/fhir/us/qicore/StructureDefinition/qicore-patient"]},{"type":"Coverage","profile":["http://hl7.org/fhir/us/qicore/StructureDefinition/qicore-coverage"],"mustSupport":["type","period"],"codeFilter":[{"path":"type","valueSet":"http://cts.nlm.nih.gov/fhir/ValueSet/2.16.840.1.114222.4.11.3591"}]},{"type":"Patient","profile":["http://hl7.org/fhir/us/qicore/StructureDefinition/qicore-patient"],"mustSupport":["url"]},{"type":"Patient","profile":["http://hl7.org/fhir/us/qicore/StructureDefinition/qicore-patient"],"mustSupport":["url","extension"]},{"type":"Encounter","profile":["http://hl7.org/fhir/us/qicore/StructureDefinition/qicore-encounter"],"mustSupport":["type","hospitalization","hospitalization.dischargeDisposition","period"],"codeFilter":[{"path":"type","valueSet":"http://cts.nlm.nih.gov/fhir/ValueSet/2.16.840.1.113883.3.666.5.307"}]},{"type":"Encounter","profile":["http://hl7.org/fhir/us/qicore/StructureDefinition/qicore-encounter"],"mustSupport":["type","period"],"codeFilter":[{"path":"type","valueSet":"http://cts.nlm.nih.gov/fhir/ValueSet/2.16.840.1.113883.3.464.1003.1003"}]},{"type":"Observation","profile":["http://hl7.org/fhir/us/qicore/StructureDefinition/qicore-observation-screening-assessment"],"mustSupport":["code","value","effective"],"codeFilter":[{"path":"code","code":[{"system":"http://loinc.org","code":"45755-6","display":"Hospice care [Minimum Data Set]"}]}]},{"type":"ServiceRequest","profile":["http://hl7.org/fhir/us/qicore/StructureDefinition/qicore-servicerequest"],"mustSupport":["code","authoredOn","authoredOn.value"],"codeFilter":[{"path":"code","valueSet":"http://cts.nlm.nih.gov/fhir/ValueSet/2.16.840.1.113883.3.526.3.1584"}]},{"type":"Procedure","profile":["http://hl7.org/fhir/us/qicore/StructureDefinition/qicore-procedure"],"mustSupport":["code","performed"],"codeFilter":[{"path":"code","valueSet":"http://cts.nlm.nih.gov/fhir/ValueSet/2.16.840.1.113883.3.526.3.1584"}]},{"type":"Condition","profile":["http://hl7.org/fhir/us/qicore/StructureDefinition/qicore-condition-problems-health-concerns"],"mustSupport":["code"],"codeFilter":[{"path":"code","valueSet":"http://cts.nlm.nih.gov/fhir/ValueSet/2.16.840.1.113883.3.464.1003.1165"}]},{"type":"Condition","profile":["http://hl7.org/fhir/us/qicore/StructureDefinition/qicore-condition-encounter-diagnosis"],"mustSupport":["code"],"codeFilter":[{"path":"code","valueSet":"http://cts.nlm.nih.gov/fhir/ValueSet/2.16.840.1.113883.3.464.1003.1165"}]},{"type":"Condition","profile":["http://hl7.org/fhir/us/qicore/StructureDefinition/qicore-condition-encounter-diagnosis"],"mustSupport":["code"],"codeFilter":[{"path":"code","valueSet":"http://cts.nlm.nih.gov/fhir/ValueSet/2.16.840.1.113883.3.464.1003.102.12.1025"}]},{"type":"MedicationRequest","profile":["http://hl7.org/fhir/us/qicore/StructureDefinition/qicore-medicationrequest"],"mustSupport":["medication"],"codeFilter":[{"path":"medication","valueSet":"http://cts.nlm.nih.gov/fhir/ValueSet/2.16.840.1.113883.3.464.1003.196.12.1001"}]},{"type":"MedicationRequest","profile":["http://hl7.org/fhir/us/qicore/StructureDefinition/qicore-medicationrequest"],"mustSupport":["medication.reference.value"]},{"type":"Medication","profile":["http://hl7.org/fhir/us/qicore/StructureDefinition/qicore-medication"],"mustSupport":["id.value","code"]},{"type":"Condition","profile":["http://hl7.org/fhir/us/qicore/StructureDefinition/qicore-condition-encounter-diagnosis"],"mustSupport":["code"],"codeFilter":[{"path":"code","valueSet":"http://cts.nlm.nih.gov/fhir/ValueSet/2.16.840.1.113883.3.464.1003.102.12.1017"}]},{"type":"Patient","profile":["http://hl7.org/fhir/us/qicore/StructureDefinition/qicore-patient"],"mustSupport":["url"]},{"type":"Patient","profile":["http://hl7.org/fhir/us/qicore/StructureDefinition/qicore-patient"],"mustSupport":["url","extension"]},{"type":"Coverage","profile":["http://hl7.org/fhir/us/qicore/StructureDefinition/qicore-coverage"],"mustSupport":["type","period"],"codeFilter":[{"path":"type","valueSet":"http://cts.nlm.nih.gov/fhir/ValueSet/2.16.840.1.114222.4.11.3591"}]},{"type":"Patient","profile":["http://hl7.org/fhir/us/qicore/StructureDefinition/qicore-patient"],"mustSupport":["url","extension"]},{"type":"Patient","profile":["http://hl7.org/fhir/us/qicore/StructureDefinition/qicore-patient"],"mustSupport":["url","extension"]}]}],"extension":[{"id":"supplementalDataGuidance","url":"http://hl7.org/fhir/us/cqfmeasures/StructureDefinition/cqfm-supplementalDataGuidance","extension":[{"url":"guidance","valueString":"For every patient evaluated by this measure also identify payer, race, ethnicity and sex"},{"url":"usage","valueCodeableConcept":{"coding":[{"system":"http://terminology.hl7.org/CodeSystem/measure-data-usage","code":"supplemental-data","display":"Supplemental Data"}],"text":"Supplemental Data Guidance"}}]},{"url":"http://hl7.org/fhir/uv/crmi/StructureDefinition/crmi-effectiveDataRequirements","valueCanonical":"#effective-data-requirements"},{"id":"effective-data-requirements","url":"http://hl7.org/fhir/us/cqfmeasures/StructureDefinition/cqfm-effectiveDataRequirements","valueReference":{"reference":"#effective-data-requirements"}},{"url":"http://hl7.org/fhir/uv/crmi/StructureDefinition/crmi-softwaresystem","valueReference":{"reference":"Device/cqf-tooling"}}],"url":"https://madie.cms.gov/Measure/CMS146FHIRAppropriateTestingforPharyngitis","identifier":[{"use":"usual","type":{"coding":[{"system":"http://terminology.hl7.org/CodeSystem/artifact-identifier-type","code":"short-name","display":"Short Name"}]},"system":"https://madie.cms.gov/measure/shortName","value":"CMS146FHIR"},{"use":"official","type":{"coding":[{"system":"http://terminology.hl7.org/CodeSystem/artifact-identifier-type","code":"version-independent","display":"Version Independent"}]},"system":"urn:ietf:rfc:3986","value":"urn:uuid:9012731d-f909-4733-aca5-b14e66fe9acd"},{"use":"official","type":{"coding":[{"system":"http://terminology.hl7.org/CodeSystem/artifact-identifier-type","code":"version-specific","display":"Version Specific"}]},"system":"urn:ietf:rfc:3986","value":"urn:uuid:a2e2e358-13e5-4702-9f80-0df2e27f32ab"},{"use":"official","type":{"coding":[{"system":"http://terminology.hl7.org/CodeSystem/artifact-identifier-type","code":"publisher","display":"Publisher"}]},"system":"https://madie.cms.gov/measure/cmsId","value":"146FHIR","assigner":{"display":"CMS"}}],"version":"0.3.000","name":"CMS146FHIRAppropriateTestingforPharyngitis","title":"Appropriate Testing for PharyngitisFHIR","status":"active","experimental":false,"date":"2025-06-26T19:30:08+00:00","publisher":"National Committee for Quality Assurance","contact":[{"telecom":[{"system":"url","value":"https://www.ncqa.org/"}]}],"description":"The percentage of episodes for patients 3 years and older with a diagnosis of pharyngitis that resulted in an antibiotic order on or three days after the episode date and a group A streptococcus (strep) test in the seven-day period from three days prior to the episode date through three days after the episode date","usage":"This is an episode of care measure that examines all eligible episodes for the patient. The intent is to determine whether antibiotics are being ordered appropriately. Antibiotics should only be ordered if a strep test has been performed to confirm a bacterial infection. Antibiotics should not be ordered for viral infections. Antibiotics should be ordered on or three days after the episode date.\n\nThis eCQM is an episode-based measure. An episode is defined as each eligible encounter for patients aged 3 years and older with a diagnosis of pharyngitis that resulted in an antibiotic order from January 1 to December 28 of the measurement period.\n\nThis FHIR-based measure has been derived from the QDM-based measure: CMS146v13. \n\nPlease refer to the HL7 QI-Core Implementation Guide (https://hl7.org/fhir/us/qicore/STU4.1.1/) for more information on QI-Core and mapping recommendations from QDM to QI-Core 4.1.1 (https://hl7.org/fhir/us/qicore/STU4.1.1/qdm-to-qicore.html).","copyright":"This Physician Performance Measure (Measure) and related data specifications are owned and were developed by the National Committee for Quality Assurance (NCQA). NCQA is not responsible for any use of the Measure. NCQA makes no representations, warranties, or endorsement about the quality of any organization or physician that uses or reports performance measures and NCQA has no liability to anyone who relies on such measures or specifications. NCQA holds a copyright in the Measure. The Measure can be reproduced and distributed, without modification, for noncommercial purposes (e.g., use by healthcare providers in connection with their practices) without obtaining approval from NCQA. Commercial use is defined as the sale, licensing, or distribution of the Measure for commercial gain, or incorporation of the Measure into a product or service that is sold, licensed or distributed for commercial gain. All commercial uses or requests for modification must be approved by NCQA and are subject to a license at the discretion of NCQA. (C) 2012-2024 National Committee for Quality Assurance. All Rights Reserved.\n\nLimited proprietary coding is contained in the Measure specifications for user convenience. Users of proprietary code sets should obtain all necessary licenses from the owners of the code sets. NCQA disclaims all liability for use or accuracy of any third-party codes contained in the specifications.\n\nCPT(R) codes, descriptions and other data are copyright 2024. American Medical Association. All rights reserved. CPT is a trademark of the American Medical Association. Fee schedules, relative value units, conversion factors and/or related components are not assigned by the AMA, are not part of CPT, and the AMA is not recommending their use. The AMA does not directly or indirectly practice medicine or dispense medical services. The AMA assumes no liability for data contained or not contained herein. Applicable FARS/DFARS restrictions apply to government use.\n\nSome measure specifications contain coding from LOINC(R) (http://loinc.org). The LOINC table, LOINC codes, LOINC panels and form file, LOINC linguistic variants file, LOINC/RSNA Radiology Playbook, and LOINC/IEEE Medical Device Code Mapping Table are copyright 2004-2024 Regenstrief Institute, Inc. and the Logical Observation Identifiers Names and Codes (LOINC) Committee, and are available at no cost under the license at http://loinc.org/terms-of-use.\n\nThis material contains SNOMED Clinical Terms(R) (SNOMED CT[R]) copyright 2004-2023 International Health Terminology Standards Development Organisation.\n\nICD-10 copyright 2024 World Health Organization. All Rights Reserved.\n\nSome measures use RxNorm, a standardized nomenclature and coding for clinical drugs and drug delivery devices, which is made publicly available courtesy of the U.S. National Library of Medicine (NLM), National Institutes of Health, Department of Health and Human Services. NLM is not responsible for the measures and does not endorse or recommend this or any other product.\n\n“HL7” is the registered trademark of Health Level Seven International.","effectivePeriod":{"start":"2026-01-01","end":"2026-12-31"},"author":[{"name":"National Committee for Quality Assurance","telecom":[{"system":"url","value":"https://www.ncqa.org/"}]}],"library":["https://madie.cms.gov/Library/CMS146FHIRAppropriateTestingforPharyngitis"],"disclaimer":"The performance Measure is not a clinical guideline and does not establish a standard of medical care, and has not been tested for all potential applications. THE MEASURE AND SPECIFICATIONS ARE PROVIDED \"AS IS\" WITHOUT WARRANTY OF ANY KIND.\n \nDue to technical limitations, registered trademarks are indicated by (R) or [R] and unregistered trademarks are indicated by (TM) or [TM].","rationale":"Group A streptococcal (GAS) bacterial infections and other infections that cause pharyngitis (which are most often viral) often produce the same signs and symptoms (Shulman et al., 2012). The American Academy of Pediatrics, the Centers for Disease Control and Prevention, and the Infectious Diseases Society of America all recommend a diagnostic test for Strep A to improve diagnostic accuracy and avoid unnecessary antibiotic treatment (Linder et al., 2005).\n\nEstimated economic costs of pediatric streptococcal pharyngitis in the United States range from $224 million to $539 million per year, including indirect costs related to parental work losses. At a higher level, the economic cost of antibiotic resistance varies but has extended as high as $20 billion in excess direct healthcare costs, with additional costs to society for lost productivity as high as $35 billion a year (2008 dollars) (Pfoh et al., 2008).","clinicalRecommendationStatement":"Infectious Disease Society of America (Shulman et al., 2012) \n\nThe Infectious Diseases Society of America \"recommends swabbing the throat and testing for GAS pharyngitis by rapid antigen detection test (RADT) and/or culture because the clinical features alone do not reliably discriminate between GAS and viral pharyngitis except when overt viral features like rhinorrhea, cough, oral ulcers, and/or hoarseness are present\"","guidance":"This is an episode of care measure that examines all eligible episodes for the patient. The intent is to determine whether antibiotics are being ordered appropriately. Antibiotics should only be ordered if a strep test has been performed to confirm a bacterial infection. Antibiotics should not be ordered for viral infections. Antibiotics should be ordered on or three days after the episode date.\n\nThis eCQM is an episode-based measure. An episode is defined as each eligible encounter for patients aged 3 years and older with a diagnosis of pharyngitis that resulted in an antibiotic order from January 1 to December 28 of the measurement period.\n\nThis FHIR-based measure has been derived from the QDM-based measure: CMS146v13. \n\nPlease refer to the HL7 QI-Core Implementation Guide (https://hl7.org/fhir/us/qicore/STU4.1.1/) for more information on QI-Core and mapping recommendations from QDM to QI-Core 4.1.1 (https://hl7.org/fhir/us/qicore/STU4.1.1/qdm-to-qicore.html).","group":[{"id":"Group_1","extension":[{"url":"http://hl7.org/fhir/us/cqfmeasures/StructureDefinition/cqfm-scoring","valueCodeableConcept":{"coding":[{"system":"http://terminology.hl7.org/CodeSystem/measure-scoring","code":"proportion","display":"Proportion"}]}},{"url":"http://hl7.org/fhir/us/cqfmeasures/StructureDefinition/cqfm-populationBasis","valueCode":"Encounter"},{"url":"http://hl7.org/fhir/us/cqfmeasures/StructureDefinition/cqfm-type","valueCodeableConcept":{"coding":[{"system":"http://terminology.hl7.org/CodeSystem/measure-type","code":"process","display":"Process"}]}},{"url":"http://hl7.org/fhir/us/cqfmeasures/StructureDefinition/cqfm-rateAggregation","valueCode":"None"},{"url":"http://hl7.org/fhir/us/cqfmeasures/StructureDefinition/cqfm-improvementNotation","valueCodeableConcept":{"coding":[{"system":"http://terminology.hl7.org/CodeSystem/measure-improvement-notation","code":"increase","display":"Increased score indicates improvement"}]}}],"population":[{"id":"InitialPopulation_1","code":{"coding":[{"system":"http://terminology.hl7.org/CodeSystem/measure-population","code":"initial-population","display":"Initial Population"}]},"description":"Outpatient, telephone, virtual encounter (i.e., e-visit or virtual check-in), or emergency department (ED) visits with a diagnosis of pharyngitis or tonsillitis from January 1 to December 28 of the measurement period and an antibiotic order on or three days after the episode date among patients 3 years or older ","criteria":{"language":"text/cql-identifier","expression":"Initial Population"}},{"id":"Denominator_1","code":{"coding":[{"system":"http://terminology.hl7.org/CodeSystem/measure-population","code":"denominator","display":"Denominator"}]},"description":"Equals Initial Population","criteria":{"language":"text/cql-identifier","expression":"Denominator"}},{"id":"DenominatorExclusion_1","code":{"coding":[{"system":"http://terminology.hl7.org/CodeSystem/measure-population","code":"denominator-exclusion","display":"Denominator Exclusion"}]},"description":"Exclude pharyngitis episodes when the patient had hospice care for any part of the measurement period.\n\nExclude pharyngitis episodes when the patient had a comorbid condition during the 12 months prior to or on the episode date.\n\nExclude pharyngitis episodes where the patient is taking antibiotics in the 30 days prior to the episode date.\n\nExclude pharyngitis episodes where the patient had a competing diagnosis on or three days after the episode date.","criteria":{"language":"text/cql-identifier","expression":"Denominator Exclusions"}},{"id":"Numerator_1","code":{"coding":[{"system":"http://terminology.hl7.org/CodeSystem/measure-population","code":"numerator","display":"Numerator"}]},"description":"A group A streptococcus test in the seven-day period from three days prior to the episode date through three days after the episode date","criteria":{"language":"text/cql-identifier","expression":"Numerator"}}],"stratifier":[{"id":"Stratification_1_1","extension":[{"url":"http://hl7.org/fhir/us/cqfmeasures/StructureDefinition/cqfm-appliesTo","valueCodeableConcept":{"coding":[{"system":"http://terminology.hl7.org/CodeSystem/measure-population","code":"initial-population","display":"Initial Population"}]}}],"description":"- 3-17 years ","criteria":{"language":"text/cql-identifier","expression":"Encounter With Pharyngitis or Tonsillitis With Antibiotic"}},{"id":"Stratification_1_2","extension":[{"url":"http://hl7.org/fhir/us/cqfmeasures/StructureDefinition/cqfm-appliesTo","valueCodeableConcept":{"coding":[{"system":"http://terminology.hl7.org/CodeSystem/measure-population","code":"initial-population","display":"Initial Population"}]}}],"description":"- 18-64 years","criteria":{"language":"text/cql-identifier","expression":"Encounter With Pharyngitis or Tonsillitis With Antibiotic"}},{"id":"Stratification_1_3","extension":[{"url":"http://hl7.org/fhir/us/cqfmeasures/StructureDefinition/cqfm-appliesTo","valueCodeableConcept":{"coding":[{"system":"http://terminology.hl7.org/CodeSystem/measure-population","code":"initial-population","display":"Initial Population"}]}}],"description":"- 65 years and older","criteria":{"language":"text/cql-identifier","expression":"Encounter With Pharyngitis or Tonsillitis With Antibiotic"}}]}],"supplementalData":[{"id":"sde-ethnicity","usage":[{"coding":[{"system":"http://terminology.hl7.org/CodeSystem/measure-data-usage","code":"supplemental-data"}]}],"description":"SDE Ethnicity","criteria":{"language":"text/cql-identifier","expression":"SDE Ethnicity"}},{"id":"sde-payer","usage":[{"coding":[{"system":"http://terminology.hl7.org/CodeSystem/measure-data-usage","code":"supplemental-data"}]}],"description":"SDE Payer","criteria":{"language":"text/cql-identifier","expression":"SDE Payer"}},{"id":"sde-race","usage":[{"coding":[{"system":"http://terminology.hl7.org/CodeSystem/measure-data-usage","code":"supplemental-data"}]}],"description":"SDE Race","criteria":{"language":"text/cql-identifier","expression":"SDE Race"}},{"id":"sde-sex","usage":[{"coding":[{"system":"http://terminology.hl7.org/CodeSystem/measure-data-usage","code":"supplemental-data"}]}],"description":"SDE Sex","criteria":{"language":"text/cql-identifier","expression":"SDE Sex"}}]},"request":{"method":"PUT","url":"Measure/CMS146FHIRAppropriateTestingforPharyngitis"}}]}