{
  "resourceType": "Bundle",
  "id": "633b3f9f0968f80122503cdb",
  "type": "transaction",
  "entry": [ {
    "fullUrl": "https://madie.cms.gov/Patient/66beff7a-68d0-4040-8558-b9bdd5b00120",
    "resource": {
      "resourceType": "Patient",
      "id": "66beff7a-68d0-4040-8558-b9bdd5b00120",
      "meta": {
        "profile": [ "http://hl7.org/fhir/us/qicore/StructureDefinition/qicore-patient" ]
      },
      "text": {
        "status": "generated",
        "div": "<div xmlns=\"http://www.w3.org/1999/xhtml\"><div class=\"hapiHeaderText\">BldTxRelvDtTimeMNDayEncEnds<b>NUMFail</b></div><table class=\"hapiPropertyTable\"><tbody><tr><td>Date of birth</td><td><span>01 February 2004</span></td></tr></tbody></table></div>"
      },
      "extension": [ {
        "url": "http://hl7.org/fhir/us/core/StructureDefinition/us-core-race",
        "extension": [ {
          "url": "ombCategory",
          "valueCoding": {
            "system": "urn:oid:2.16.840.1.113883.6.238",
            "code": "1002-5",
            "display": "American Indian or Alaska Native",
            "userSelected": true
          }
        }, {
          "url": "text",
          "valueString": "American Indian or Alaska Native"
        } ]
      }, {
        "url": "http://hl7.org/fhir/us/core/StructureDefinition/us-core-ethnicity",
        "extension": [ {
          "url": "ombCategory",
          "valueCoding": {
            "system": "urn:oid:2.16.840.1.113883.6.238",
            "code": "2135-2",
            "display": "Hispanic or Latino",
            "userSelected": true
          }
        }, {
          "url": "text",
          "valueString": "Hispanic or Latino"
        } ]
      } ],
      "identifier": [ {
        "type": {
          "coding": [ {
            "system": "http://terminology.hl7.org/CodeSystem/v2-0203",
            "code": "MR"
          } ]
        },
        "system": "https://bonnie-fhir.healthit.gov/",
        "value": "633b3f9f0968f80122503cdb"
      } ],
      "active": true,
      "name": [ {
        "use": "usual",
        "family": "NUMFail",
        "given": [ "BldTxRelvDtTimeMNDayEncEnds" ]
      } ],
      "gender": "female",
      "birthDate": "2005-02-01"
    },
    "request": {
      "method": "PUT",
      "url": "Patient/66beff7a-68d0-4040-8558-b9bdd5b00120"
    }
  }, {
    "fullUrl": "https://madie.cms.gov/Observation/92a76ebe-6816-4a74-acd7-2335cc04b1b7",
    "resource": {
      "resourceType": "Observation",
      "id": "92a76ebe-6816-4a74-acd7-2335cc04b1b7",
      "meta": {
        "profile": [ "http://hl7.org/fhir/us/qicore/StructureDefinition/qicore-simple-observation" ]
      },
      "status": "final",
      "category": [ {
        "coding": [ {
          "system": "http://terminology.hl7.org/CodeSystem/observation-category",
          "code": "exam",
          "display": "exam",
          "userSelected": true
        } ]
      } ],
      "code": {
        "coding": [ {
          "system": "http://loinc.org",
          "code": "93857-1"
        } ]
      },
      "subject": {
        "reference": "Patient/66beff7a-68d0-4040-8558-b9bdd5b00120"
      },
      "effectiveDateTime": "2026-02-01T08:00:00Z",
      "performer": [ {
        "reference": "Organization/example1",
        "display": "Hendricks Country Hospital"
      } ],
      "valueDateTime": "2026-02-01T08:00:00.000+00:00"
    },
    "request": {
      "method": "PUT",
      "url": "Observation/92a76ebe-6816-4a74-acd7-2335cc04b1b7"
    }
  }, {
    "fullUrl": "https://madie.cms.gov/Observation/f633822a-c3ce-492d-8024-41b188017bb0",
    "resource": {
      "resourceType": "Observation",
      "id": "f633822a-c3ce-492d-8024-41b188017bb0",
      "meta": {
        "profile": [ "http://hl7.org/fhir/us/qicore/StructureDefinition/qicore-simple-observation" ]
      },
      "status": "final",
      "category": [ {
        "coding": [ {
          "system": "http://terminology.hl7.org/CodeSystem/observation-category",
          "code": "exam",
          "display": "exam",
          "userSelected": true
        } ]
      } ],
      "code": {
        "coding": [ {
          "system": "http://loinc.org",
          "code": "11884-4"
        } ]
      },
      "subject": {
        "reference": "Patient/66beff7a-68d0-4040-8558-b9bdd5b00120"
      },
      "effectiveDateTime": "2026-02-01T08:00:00Z",
      "performer": [ {
        "reference": "Organization/example1",
        "display": "Hendricks Country Hospital"
      } ],
      "valueQuantity": {
        "value": 20,
        "system": "http://unitsofmeasure.org",
        "code": "wk"
      }
    },
    "request": {
      "method": "PUT",
      "url": "Observation/f633822a-c3ce-492d-8024-41b188017bb0"
    }
  }, {
    "fullUrl": "https://madie.cms.gov/Observation/30d642c2-eb47-427c-8450-40202dd93d0b",
    "resource": {
      "resourceType": "Observation",
      "id": "30d642c2-eb47-427c-8450-40202dd93d0b",
      "meta": {
        "profile": [ "http://hl7.org/fhir/us/qicore/StructureDefinition/qicore-simple-observation" ]
      },
      "status": "final",
      "category": [ {
        "coding": [ {
          "system": "http://terminology.hl7.org/CodeSystem/observation-category",
          "code": "exam",
          "display": "exam",
          "userSelected": true
        } ]
      } ],
      "code": {
        "coding": [ {
          "system": "http://loinc.org",
          "code": "11884-4"
        } ]
      },
      "subject": {
        "reference": "Patient/66beff7a-68d0-4040-8558-b9bdd5b00120"
      },
      "effectiveDateTime": "2026-02-01T08:01:00Z",
      "performer": [ {
        "reference": "Organization/example1",
        "display": "Hendricks Country Hospital"
      } ]
    },
    "request": {
      "method": "PUT",
      "url": "Observation/30d642c2-eb47-427c-8450-40202dd93d0b"
    }
  }, {
    "fullUrl": "https://madie.cms.gov/Encounter/af978cf3-14c3-4c58-8159-da01652c925a",
    "resource": {
      "resourceType": "Encounter",
      "id": "af978cf3-14c3-4c58-8159-da01652c925a",
      "meta": {
        "profile": [ "http://hl7.org/fhir/us/qicore/StructureDefinition/qicore-encounter" ]
      },
      "status": "finished",
      "class": {
        "system": "http://terminology.hl7.org/CodeSystem/v3-ActCode",
        "code": "IMP",
        "display": "inpatient encounter"
      },
      "type": [ {
        "coding": [ {
          "system": "http://snomed.info/sct",
          "code": "183452005"
        } ]
      } ],
      "subject": {
        "reference": "Patient/66beff7a-68d0-4040-8558-b9bdd5b00120"
      },
      "period": {
        "start": "2026-02-01T08:00:00Z",
        "end": "2026-02-05T08:15:00.000+00:00"
      }
    },
    "request": {
      "method": "PUT",
      "url": "Encounter/af978cf3-14c3-4c58-8159-da01652c925a"
    }
  }, {
    "fullUrl": "https://madie.cms.gov/Coverage/f39d1dfe-b060-435a-bc57-8e30a011958a",
    "resource": {
      "resourceType": "Coverage",
      "id": "f39d1dfe-b060-435a-bc57-8e30a011958a",
      "status": "active",
      "subscriberId": "523435",
      "beneficiary": {
        "reference": "Patient/66beff7a-68d0-4040-8558-b9bdd5b00120"
      },
      "relationship": {
        "coding": [ {
          "system": "http://terminology.hl7.org/CodeSystem/subscriber-relationship",
          "code": "self"
        } ]
      },
      "period": {
        "start": "2005-02-01T08:00:00Z"
      },
      "payor": [ {
        "reference": "Organization/d4a249f3-b7b4-4495-83cf-24caee59a511"
      } ]
    },
    "request": {
      "method": "PUT",
      "url": "Coverage/f39d1dfe-b060-435a-bc57-8e30a011958a"
    }
  }, {
    "fullUrl": "https://madie.cms.gov/Procedure/7ec18953-7cd6-4c42-8f4f-605129045801",
    "resource": {
      "resourceType": "Procedure",
      "id": "7ec18953-7cd6-4c42-8f4f-605129045801",
      "meta": {
        "profile": [ "http://hl7.org/fhir/us/qicore/StructureDefinition/qicore-procedure" ]
      },
      "extension": [ {
        "url": "http://hl7.org/fhir/us/qicore/StructureDefinition/qicore-recorded",
        "valueDateTime": "2014-04-05T13:35:00Z"
      } ],
      "status": "completed",
      "code": {
        "coding": [ {
          "system": "http://snomed.info/sct",
          "code": "10745001"
        } ]
      },
      "subject": {
        "reference": "Patient/66beff7a-68d0-4040-8558-b9bdd5b00120"
      },
      "performedPeriod": {
        "start": "2026-02-01T08:00:00Z",
        "end": "2026-02-05T08:15:00.000+00:00"
      }
    },
    "request": {
      "method": "PUT",
      "url": "Procedure/7ec18953-7cd6-4c42-8f4f-605129045801"
    }
  }, {
    "fullUrl": "https://madie.cms.gov/Procedure/bf7adca7-cb28-4089-9d8a-2f52de6a7bd7",
    "resource": {
      "resourceType": "Procedure",
      "id": "bf7adca7-cb28-4089-9d8a-2f52de6a7bd7",
      "meta": {
        "profile": [ "http://hl7.org/fhir/us/qicore/StructureDefinition/qicore-procedure" ]
      },
      "extension": [ {
        "url": "http://hl7.org/fhir/us/qicore/StructureDefinition/qicore-recorded",
        "valueDateTime": "2026-02-01T04:01:00Z"
      } ],
      "status": "completed",
      "code": {
        "coding": [ {
          "system": "http://snomed.info/sct",
          "code": "11397000"
        } ]
      },
      "subject": {
        "reference": "Patient/66beff7a-68d0-4040-8558-b9bdd5b00120"
      },
      "performedPeriod": {
        "start": "2026-02-06T00:00:00Z",
        "end": "2026-02-06T11:59:00.000+00:00"
      }
    },
    "request": {
      "method": "PUT",
      "url": "Procedure/bf7adca7-cb28-4089-9d8a-2f52de6a7bd7"
    }
  }, {
    "fullUrl": "https://madie.cms.gov/Organization/d4a249f3-b7b4-4495-83cf-24caee59a511",
    "resource": {
      "resourceType": "Organization",
      "id": "d4a249f3-b7b4-4495-83cf-24caee59a511",
      "meta": {
        "profile": [ "http://hl7.org/fhir/us/qicore/StructureDefinition/qicore-organization" ]
      },
      "identifier": [ {
        "use": "temp",
        "system": "urn:oid:2.16.840.1.113883.4.4",
        "value": "21-3259825"
      } ],
      "active": true,
      "type": [ {
        "coding": [ {
          "system": "http://terminology.hl7.org/CodeSystem/organization-type",
          "code": "pay",
          "display": "Payer"
        } ]
      } ],
      "name": "Blue Cross Blue Shield of Texas",
      "telecom": [ {
        "system": "phone",
        "value": "(+1) 972-766-6900"
      } ],
      "address": [ {
        "use": "billing",
        "type": "postal",
        "line": [ "P.O. Box 660044" ],
        "city": "Dallas",
        "state": "TX",
        "postalCode": "75266-0044",
        "country": "USA"
      } ]
    },
    "request": {
      "method": "PUT",
      "url": "Organization/d4a249f3-b7b4-4495-83cf-24caee59a511"
    }
  }, {
    "fullUrl": "https://madie.cms.gov/Practitioner/c3b04ff6-edb1-4a25-a880-6d0d29780378",
    "resource": {
      "resourceType": "Practitioner",
      "id": "c3b04ff6-edb1-4a25-a880-6d0d29780378",
      "meta": {
        "profile": [ "http://hl7.org/fhir/us/qicore/StructureDefinition/qicore-practitioner" ]
      },
      "identifier": [ {
        "system": "http://hl7.org/fhir/sid/us-npi",
        "value": "9999999896"
      } ],
      "name": [ {
        "family": "Evil",
        "prefix": [ "Dr" ]
      } ]
    },
    "request": {
      "method": "PUT",
      "url": "Practitioner/c3b04ff6-edb1-4a25-a880-6d0d29780378"
    }
  }, {
    "fullUrl": "https://madie.cms.gov/MeasureReport/0f117a49-168c-4d39-be0b-87b0c71adffd",
    "resource": {
      "resourceType": "MeasureReport",
      "id": "0f117a49-168c-4d39-be0b-87b0c71adffd",
      "meta": {
        "profile": [ "http://hl7.org/fhir/us/cqfmeasures/StructureDefinition/test-case-cqfm" ]
      },
      "contained": [ {
        "resourceType": "Parameters",
        "id": "1196fc70-4736-4c88-b5f1-fb68b567d8dc-parameters",
        "parameter": [ {
          "name": "subject",
          "valueString": "66beff7a-68d0-4040-8558-b9bdd5b00120"
        } ]
      } ],
      "extension": [ {
        "url": "http://hl7.org/fhir/StructureDefinition/cqf-inputParameters",
        "valueReference": {
          "reference": "#1196fc70-4736-4c88-b5f1-fb68b567d8dc-parameters"
        }
      }, {
        "url": "http://hl7.org/fhir/us/cqfmeasures/StructureDefinition/cqfm-testCaseDescription",
        "valueMarkdown": "Blood Transfusion Relevant Date Time midnight day encounter ends\n"
      } ],
      "modifierExtension": [ {
        "url": "http://hl7.org/fhir/us/cqfmeasures/StructureDefinition/cqfm-isTestCase",
        "valueBoolean": true
      } ],
      "status": "complete",
      "type": "individual",
      "measure": "https://madie.cms.gov/Measure/CMS1028FHIRPCSevereOBComps",
      "period": {
        "start": "2026-01-01",
        "end": "2026-12-31"
      },
      "group": [ {
        "id": "Group_1",
        "population": [ {
          "id": "InitialPopulation_1",
          "code": {
            "coding": [ {
              "system": "http://terminology.hl7.org/CodeSystem/measure-population",
              "code": "initial-population",
              "display": "Initial Population"
            } ]
          },
          "count": 1
        }, {
          "id": "Denominator_1",
          "code": {
            "coding": [ {
              "system": "http://terminology.hl7.org/CodeSystem/measure-population",
              "code": "denominator",
              "display": "Denominator"
            } ]
          },
          "count": 1
        }, {
          "id": "Numerator_1",
          "code": {
            "coding": [ {
              "system": "http://terminology.hl7.org/CodeSystem/measure-population",
              "code": "numerator",
              "display": "Numerator"
            } ]
          },
          "count": 0
        }, {
          "id": "NumeratorExclusion_1",
          "code": {
            "coding": [ {
              "system": "http://terminology.hl7.org/CodeSystem/measure-population",
              "code": "numerator-exclusion",
              "display": "Numerator Exclusion"
            } ]
          },
          "count": 0
        } ],
        "measureScore": {
          "value": 0.0
        }
      }, {
        "id": "Group_2",
        "population": [ {
          "id": "InitialPopulation_2",
          "code": {
            "coding": [ {
              "system": "http://terminology.hl7.org/CodeSystem/measure-population",
              "code": "initial-population",
              "display": "Initial Population"
            } ]
          },
          "count": 1
        }, {
          "id": "Denominator_2",
          "code": {
            "coding": [ {
              "system": "http://terminology.hl7.org/CodeSystem/measure-population",
              "code": "denominator",
              "display": "Denominator"
            } ]
          },
          "count": 1
        }, {
          "id": "Numerator_2",
          "code": {
            "coding": [ {
              "system": "http://terminology.hl7.org/CodeSystem/measure-population",
              "code": "numerator",
              "display": "Numerator"
            } ]
          },
          "count": 0
        }, {
          "id": "NumeratorExclusion_2",
          "code": {
            "coding": [ {
              "system": "http://terminology.hl7.org/CodeSystem/measure-population",
              "code": "numerator-exclusion",
              "display": "Numerator Exclusion"
            } ]
          },
          "count": 0
        } ],
        "measureScore": {
          "value": 0.0
        }
      } ],
      "evaluatedResource": [ {
        "reference": "Patient/66beff7a-68d0-4040-8558-b9bdd5b00120"
      }, {
        "reference": "Observation/92a76ebe-6816-4a74-acd7-2335cc04b1b7"
      }, {
        "reference": "Observation/f633822a-c3ce-492d-8024-41b188017bb0"
      }, {
        "reference": "Observation/30d642c2-eb47-427c-8450-40202dd93d0b"
      }, {
        "reference": "Encounter/af978cf3-14c3-4c58-8159-da01652c925a"
      }, {
        "reference": "Coverage/f39d1dfe-b060-435a-bc57-8e30a011958a"
      }, {
        "reference": "Procedure/7ec18953-7cd6-4c42-8f4f-605129045801"
      }, {
        "reference": "Procedure/bf7adca7-cb28-4089-9d8a-2f52de6a7bd7"
      }, {
        "reference": "Organization/d4a249f3-b7b4-4495-83cf-24caee59a511"
      }, {
        "reference": "Practitioner/c3b04ff6-edb1-4a25-a880-6d0d29780378"
      } ]
    },
    "request": {
      "method": "PUT",
      "url": "MeasureReport/0f117a49-168c-4d39-be0b-87b0c71adffd"
    }
  } ]
}