{
    "entry": [
        {
            "request": {
                "method": "PUT",
                "url": "Patient/6924b5e5-412b-4135-b74e-7f400676c8bd"
            },
            "resource": {
                "identifier": [{
                    "system": "https://bonnie-fhir.healthit.gov/",
                    "type": {"coding": [{
                        "system": "http://terminology.hl7.org/CodeSystem/v2-0203",
                        "code": "MR"
                    }]},
                    "value": "62fa895dd13907679e12d617"
                }],
                "extension": [
                    {
                        "extension": [
                            {
                                "valueCoding": {
                                    "system": "urn:oid:2.16.840.1.113883.6.238",
                                    "code": "2106-3",
                                    "userSelected": true,
                                    "display": "White"
                                },
                                "url": "ombCategory"
                            },
                            {
                                "valueString": "White",
                                "url": "text"
                            }
                        ],
                        "url": "http://hl7.org/fhir/us/core/StructureDefinition/us-core-race"
                    },
                    {
                        "extension": [
                            {
                                "valueCoding": {
                                    "system": "urn:oid:2.16.840.1.113883.6.238",
                                    "code": "2186-5",
                                    "userSelected": true,
                                    "display": "Not Hispanic or Latino"
                                },
                                "url": "ombCategory"
                            },
                            {
                                "valueString": "Not Hispanic or Latino",
                                "url": "text"
                            }
                        ],
                        "url": "http://hl7.org/fhir/us/core/StructureDefinition/us-core-ethnicity"
                    }
                ],
                "gender": "male",
                "meta": {"profile": ["http://hl7.org/fhir/us/qicore/StructureDefinition/qicore-patient"]},
                "name": [{
                    "given": ["ElevatedDeclineFUIntentPlan"],
                    "family": "DENEXCEPFail"
                }],
                "id": "6924b5e5-412b-4135-b74e-7f400676c8bd",
                "birthDate": "2006-01-31",
                "resourceType": "Patient"
            },
            "fullUrl": "https://madie.cms.gov/Patient/6924b5e5-412b-4135-b74e-7f400676c8bd"
        },
        {
            "request": {
                "method": "PUT",
                "url": "Encounter/51983909-c3a0-4887-9d92-2381984d56bc"
            },
            "resource": {
                "period": {
                    "start": "2026-12-31T08:00:00.000+00:00",
                    "end": "2026-12-31T08:30:00.000+00:00"
                },
                "meta": {"profile": ["http://hl7.org/fhir/us/qicore/StructureDefinition/qicore-encounter"]},
                "subject": {"reference": "Patient/6924b5e5-412b-4135-b74e-7f400676c8bd"},
                "id": "51983909-c3a0-4887-9d92-2381984d56bc",
                "type": [{"coding": [{
                    "system": "http://snomed.info/sct",
                    "code": "103705002",
                    "userSelected": true,
                    "display": "Patient status observation (procedure)",
                    "version": "2023-03"
                }]}],
                "class": {
                    "system": "http://terminology.hl7.org/CodeSystem/v3-ActCode",
                    "code": "AMB",
                    "display": "ambulatory"
                },
                "resourceType": "Encounter",
                "status": "finished"
            },
            "fullUrl": "https://madie.cms.gov/Encounter/51983909-c3a0-4887-9d92-2381984d56bc"
        },
        {
            "request": {
                "method": "PUT",
                "url": "Observation/3064d50a-42e6-4502-beca-c22a3c610e36"
            },
            "resource": {
                "component": [
                    {
                        "code": {
                            "coding": [{
                                "system": "http://loinc.org",
                                "code": "8480-6",
                                "display": "Systolic blood pressure"
                            }],
                            "text": "Systolic blood pressure"
                        },
                        "valueQuantity": {
                            "unit": "mmHg",
                            "system": "http://unitsofmeasure.org",
                            "code": "mm[Hg]",
                            "value": 120
                        }
                    },
                    {
                        "code": {
                            "coding": [{
                                "system": "http://loinc.org",
                                "code": "8462-4",
                                "display": "Diastolic blood pressure"
                            }],
                            "text": "Diastolic blood pressure"
                        },
                        "valueQuantity": {
                            "unit": "mmHg",
                            "system": "http://unitsofmeasure.org",
                            "code": "mm[Hg]",
                            "value": 79
                        }
                    }
                ],
                "code": {
                    "coding": [{
                        "system": "http://loinc.org",
                        "code": "85354-9",
                        "display": "Blood pressure panel with all children optional"
                    }],
                    "text": "Blood pressure systolic and diastolic"
                },
                "effectiveDateTime": "2026-12-31T08:05:00.000+00:00",
                "meta": {"profile": ["http://hl7.org/fhir/us/core/StructureDefinition/us-core-blood-pressure"]},
                "subject": {"reference": "Patient/6924b5e5-412b-4135-b74e-7f400676c8bd"},
                "id": "3064d50a-42e6-4502-beca-c22a3c610e36",
                "category": [{
                    "coding": [{
                        "system": "http://terminology.hl7.org/CodeSystem/observation-category",
                        "code": "vital-signs",
                        "display": "Vital Signs"
                    }],
                    "text": "Vital Signs"
                }],
                "resourceType": "Observation",
                "status": "final"
            },
            "fullUrl": "https://madie.cms.gov/Observation/3064d50a-42e6-4502-beca-c22a3c610e36"
        },
        {
            "request": {
                "method": "PUT",
                "url": "ServiceRequest/9e784f1e-c374-4a22-a8d0-b3f361b0be95"
            },
            "resource": {
                "extension": [{
                    "valueCodeableConcept": {"coding": [{
                        "system": "http://snomed.info/sct",
                        "code": "105480006",
                        "userSelected": true,
                        "display": "Procedure declined by patient (situation)"
                    }]},
                    "url": "http://hl7.org/fhir/us/qicore/StructureDefinition/qicore-doNotPerformReason"
                }],
                "code": {"coding": [{
                    "system": "http://snomed.info/sct",
                    "code": "183624006",
                    "userSelected": true,
                    "display": "Follow-up 2-3 months (finding)"
                }]},
                "authoredOn": "2026-12-31T08:20:00.000+00:00",
                "meta": {"profile": ["http://hl7.org/fhir/us/qicore/StructureDefinition/qicore-servicenotrequested"]},
                "subject": {"reference": "Patient/6924b5e5-412b-4135-b74e-7f400676c8bd"},
                "id": "9e784f1e-c374-4a22-a8d0-b3f361b0be95",
                "doNotPerform": true,
                "intent": "plan",
                "resourceType": "ServiceRequest",
                "status": "completed"
            },
            "fullUrl": "https://madie.cms.gov/ServiceRequest/9e784f1e-c374-4a22-a8d0-b3f361b0be95"
        },
        {
            "request": {
                "method": "PUT",
                "url": "Coverage/0e505fd7-b942-42a4-925e-c9b82edc9de5"
            },
            "resource": {
                "payor": [{"reference": "Organization/d7a8a634-02da-4702-ac6b-2b8b2f5e3a03"}],
                "beneficiary": {"reference": "Patient/6924b5e5-412b-4135-b74e-7f400676c8bd"},
                "meta": {"profile": ["http://hl7.org/fhir/us/qicore/StructureDefinition/qicore-coverage"]},
                "id": "0e505fd7-b942-42a4-925e-c9b82edc9de5",
                "resourceType": "Coverage",
                "status": "active"
            },
            "fullUrl": "https://madie.cms.gov/Coverage/0e505fd7-b942-42a4-925e-c9b82edc9de5"
        },
        {
            "request": {
                "method": "PUT",
                "url": "Organization/d7a8a634-02da-4702-ac6b-2b8b2f5e3a03"
            },
            "resource": {
                "identifier": [{
                    "system": "urn:oid:2.16.840.1.113883.4.4",
                    "use": "temp",
                    "value": "21-3259825"
                }],
                "address": [{
                    "country": "USA",
                    "city": "Dallas",
                    "use": "billing",
                    "line": ["P.O. Box 660044"],
                    "postalCode": "75266-0044",
                    "state": "TX",
                    "type": "postal"
                }],
                "meta": {"profile": ["http://hl7.org/fhir/us/qicore/StructureDefinition/qicore-organization"]},
                "name": "Blue Cross Blue Shield of Texas",
                "active": true,
                "telecom": [{
                    "system": "phone",
                    "value": "(+1) 972-766-6900"
                }],
                "id": "d7a8a634-02da-4702-ac6b-2b8b2f5e3a03",
                "type": [{"coding": [{
                    "system": "http://terminology.hl7.org/CodeSystem/organization-type",
                    "code": "pay",
                    "display": "Payer"
                }]}],
                "resourceType": "Organization"
            },
            "fullUrl": "https://madie.cms.gov/Organization/d7a8a634-02da-4702-ac6b-2b8b2f5e3a03"
        },
        {
            "request": {
                "method": "PUT",
                "url": "Practitioner/72a80a9a-b912-4cd1-a503-ecda5c9d2311"
            },
            "resource": {
                "identifier": [{
                    "system": "http://hl7.org/fhir/sid/us-npi",
                    "value": "123456"
                }],
                "meta": {"profile": ["http://hl7.org/fhir/us/qicore/StructureDefinition/qicore-practitioner"]},
                "name": [{
                    "prefix": ["Dr"],
                    "family": "Evil"
                }],
                "id": "72a80a9a-b912-4cd1-a503-ecda5c9d2311",
                "resourceType": "Practitioner"
            },
            "fullUrl": "https://madie.cms.gov/Practitioner/72a80a9a-b912-4cd1-a503-ecda5c9d2311"
        },
        {
            "request": {
                "method": "PUT",
                "url": "MeasureReport/018c5253-4b84-48ac-b5e1-f3687ef8b48a"
            },
            "resource": {
                "contained": [{
                    "parameter": [{
                        "valueString": "6924b5e5-412b-4135-b74e-7f400676c8bd",
                        "name": "subject"
                    }],
                    "id": "f433d667-3e59-4c4b-a0f3-7ccededad640-parameters",
                    "resourceType": "Parameters"
                }],
                "extension": [
                    {
                        "valueReference": {"reference": "#f433d667-3e59-4c4b-a0f3-7ccededad640-parameters"},
                        "url": "http://hl7.org/fhir/StructureDefinition/cqf-inputParameters"
                    },
                    {
                        "valueMarkdown": "Enc last day of MP, age 20, BP 120/79, declined f/u in 2-3 months, fails because 'intent' was a plan, not an order. ",
                        "url": "http://hl7.org/fhir/us/cqfmeasures/StructureDefinition/cqfm-testCaseDescription"
                    }
                ],
                "period": {
                    "start": "2026-01-01",
                    "end": "2026-12-31"
                },
                "measure": "https://madie.cms.gov/Measure/CMS22FHIRPCSBPScreeningFollowUp",
                "meta": {"profile": ["http://hl7.org/fhir/us/cqfmeasures/StructureDefinition/test-case-cqfm"]},
                "modifierExtension": [{
                    "valueBoolean": true,
                    "url": "http://hl7.org/fhir/us/cqfmeasures/StructureDefinition/cqfm-isTestCase"
                }],
                "id": "018c5253-4b84-48ac-b5e1-f3687ef8b48a",
                "evaluatedResource": [
                    {"reference": "Patient/6924b5e5-412b-4135-b74e-7f400676c8bd"},
                    {"reference": "Encounter/51983909-c3a0-4887-9d92-2381984d56bc"},
                    {"reference": "Observation/3064d50a-42e6-4502-beca-c22a3c610e36"},
                    {"reference": "ServiceRequest/9e784f1e-c374-4a22-a8d0-b3f361b0be95"},
                    {"reference": "Coverage/0e505fd7-b942-42a4-925e-c9b82edc9de5"},
                    {"reference": "Organization/d7a8a634-02da-4702-ac6b-2b8b2f5e3a03"},
                    {"reference": "Practitioner/72a80a9a-b912-4cd1-a503-ecda5c9d2311"}
                ],
                "type": "individual",
                "resourceType": "MeasureReport",
                "status": "complete",
                "group": [{
                    "id": "Group_1",
                    "measureScore": {"value": 0},
                    "population": [
                        {
                            "code": {"coding": [{
                                "system": "http://terminology.hl7.org/CodeSystem/measure-population",
                                "code": "initial-population",
                                "display": "Initial Population"
                            }]},
                            "count": 1,
                            "id": "InitialPopulation_1"
                        },
                        {
                            "code": {"coding": [{
                                "system": "http://terminology.hl7.org/CodeSystem/measure-population",
                                "code": "denominator",
                                "display": "Denominator"
                            }]},
                            "count": 1,
                            "id": "Denominator_1"
                        },
                        {
                            "code": {"coding": [{
                                "system": "http://terminology.hl7.org/CodeSystem/measure-population",
                                "code": "denominator-exclusion",
                                "display": "Denominator Exclusion"
                            }]},
                            "count": 0,
                            "id": "DenominatorExclusion_1"
                        },
                        {
                            "code": {"coding": [{
                                "system": "http://terminology.hl7.org/CodeSystem/measure-population",
                                "code": "numerator",
                                "display": "Numerator"
                            }]},
                            "count": 0,
                            "id": "Numerator_1"
                        },
                        {
                            "code": {"coding": [{
                                "system": "http://terminology.hl7.org/CodeSystem/measure-population",
                                "code": "denominator-exception",
                                "display": "Denominator Exception"
                            }]},
                            "count": 0,
                            "id": "DenominatorException_1"
                        }
                    ]
                }]
            },
            "fullUrl": "https://madie.cms.gov/MeasureReport/018c5253-4b84-48ac-b5e1-f3687ef8b48a"
        }
    ],
    "id": "62fa895dd13907679e12d617",
    "type": "transaction",
    "resourceType": "Bundle"
}