{
  "resourceType": "Bundle",
  "id": "Patient-47-DENEXPass-PalliativeCareDiagnosisDuringMP2",
  "type": "transaction",
  "entry": [ {
    "fullUrl": "https://madie.cms.gov/Patient/91986c00-e45b-4e7c-afa7-734d6fe43d16",
    "resource": {
      "resourceType": "Patient",
      "id": "91986c00-e45b-4e7c-afa7-734d6fe43d16",
      "meta": {
        "profile": [ "http://hl7.org/fhir/us/qicore/StructureDefinition/qicore-patient" ]
      },
      "extension": [ {
        "url": "http://hl7.org/fhir/us/core/StructureDefinition/us-core-race",
        "extension": [ {
          "url": "ombCategory",
          "valueCoding": {
            "system": "urn:oid:2.16.840.1.113883.6.238",
            "code": "2028-9",
            "display": "Asian"
          }
        }, {
          "url": "text",
          "valueString": "Asian"
        } ]
      }, {
        "url": "http://hl7.org/fhir/us/core/StructureDefinition/us-core-ethnicity",
        "extension": [ {
          "url": "ombCategory",
          "valueCoding": {
            "system": "urn:oid:2.16.840.1.113883.6.238",
            "code": "2135-2",
            "display": "Hispanic or Latino"
          }
        }, {
          "url": "text",
          "valueString": "Hispanic or Latino"
        } ]
      } ],
      "identifier": [ {
        "system": "http://hospital.smarthealthit.org",
        "value": "999999995"
      } ],
      "name": [ {
        "family": "Bertha",
        "given": [ "Betty" ]
      } ],
      "gender": "female",
      "birthDate": "2007-01-01"
    },
    "request": {
      "method": "PUT",
      "url": "Patient/91986c00-e45b-4e7c-afa7-734d6fe43d16"
    }
  }, {
    "fullUrl": "https://madie.cms.gov/Encounter/c5ea8bc5-7c54-472a-9af7-955ce2642bbe",
    "resource": {
      "resourceType": "Encounter",
      "id": "c5ea8bc5-7c54-472a-9af7-955ce2642bbe",
      "meta": {
        "profile": [ "http://hl7.org/fhir/us/qicore/StructureDefinition/qicore-encounter" ]
      },
      "status": "finished",
      "class": {
        "system": "http://terminology.hl7.org/CodeSystem/v3-ActCode",
        "code": "AMB",
        "display": "ambulatory"
      },
      "type": [ {
        "coding": [ {
          "system": "http://snomed.info/sct",
          "code": "185460008",
          "display": "Home visit request by patient (procedure)"
        } ]
      } ],
      "subject": {
        "reference": "Patient/91986c00-e45b-4e7c-afa7-734d6fe43d16"
      },
      "period": {
        "start": "2026-01-01T00:00:00Z",
        "end": "2026-01-01T00:15:00Z"
      }
    },
    "request": {
      "method": "PUT",
      "url": "Encounter/c5ea8bc5-7c54-472a-9af7-955ce2642bbe"
    }
  }, {
    "fullUrl": "https://madie.cms.gov/Condition/01dea69f-7f70-4f81-b0db-86c47181469a",
    "resource": {
      "resourceType": "Condition",
      "id": "01dea69f-7f70-4f81-b0db-86c47181469a",
      "meta": {
        "profile": [ "http://hl7.org/fhir/us/qicore/StructureDefinition/qicore-condition-encounter-diagnosis" ]
      },
      "clinicalStatus": {
        "coding": [ {
          "system": "http://terminology.hl7.org/CodeSystem/condition-clinical",
          "code": "active"
        } ]
      },
      "category": [ {
        "coding": [ {
          "system": "http://terminology.hl7.org/CodeSystem/condition-category",
          "code": "encounter-diagnosis",
          "display": "Encounter Diagnosis"
        } ]
      } ],
      "code": {
        "coding": [ {
          "system": "http://snomed.info/sct",
          "code": "102781000119107",
          "display": "Sensory neuropathy due to type 1 diabetes mellitus (disorder)"
        } ]
      },
      "subject": {
        "reference": "Patient/91986c00-e45b-4e7c-afa7-734d6fe43d16"
      },
      "onsetDateTime": "2026-01-01T23:59:00Z"
    },
    "request": {
      "method": "PUT",
      "url": "Condition/01dea69f-7f70-4f81-b0db-86c47181469a"
    }
  }, {
    "fullUrl": "https://madie.cms.gov/Condition/31962743-18cd-4a6c-9291-d7eb3fb91700",
    "resource": {
      "resourceType": "Condition",
      "id": "31962743-18cd-4a6c-9291-d7eb3fb91700",
      "meta": {
        "profile": [ "http://hl7.org/fhir/us/qicore/StructureDefinition/qicore-condition-problems-health-concerns" ]
      },
      "clinicalStatus": {
        "coding": [ {
          "system": "http://terminology.hl7.org/CodeSystem/condition-clinical",
          "code": "active"
        } ]
      },
      "category": [ {
        "coding": [ {
          "system": "http://terminology.hl7.org/CodeSystem/condition-category",
          "code": "problem-list-item",
          "display": "Problem List Item"
        } ]
      } ],
      "code": {
        "coding": [ {
          "system": "http://snomed.info/sct",
          "code": "441874000",
          "display": "Seen by palliative care service (finding)"
        } ]
      },
      "subject": {
        "reference": "Patient/91986c00-e45b-4e7c-afa7-734d6fe43d16"
      },
      "onsetDateTime": "2026-12-31T23:59:59Z"
    },
    "request": {
      "method": "PUT",
      "url": "Condition/31962743-18cd-4a6c-9291-d7eb3fb91700"
    }
  }, {
    "fullUrl": "https://madie.cms.gov/MeasureReport/10353022-6e86-40b2-8aa0-82b7b97e0ed1",
    "resource": {
      "resourceType": "MeasureReport",
      "id": "10353022-6e86-40b2-8aa0-82b7b97e0ed1",
      "meta": {
        "profile": [ "http://hl7.org/fhir/us/cqfmeasures/StructureDefinition/test-case-cqfm" ]
      },
      "contained": [ {
        "resourceType": "Parameters",
        "id": "81bf4ea5-cb8d-4f29-b2dc-1d081eaa2592-parameters",
        "parameter": [ {
          "name": "subject",
          "valueString": "91986c00-e45b-4e7c-afa7-734d6fe43d16"
        } ]
      } ],
      "extension": [ {
        "url": "http://hl7.org/fhir/StructureDefinition/cqf-inputParameters",
        "valueReference": {
          "reference": "#81bf4ea5-cb8d-4f29-b2dc-1d081eaa2592-parameters"
        }
      }, {
        "url": "http://hl7.org/fhir/us/cqfmeasures/StructureDefinition/cqfm-testCaseDescription",
        "valueMarkdown": "Palliative care diagnosis during the MP"
      } ],
      "modifierExtension": [ {
        "url": "http://hl7.org/fhir/us/cqfmeasures/StructureDefinition/cqfm-isTestCase",
        "valueBoolean": true
      } ],
      "status": "complete",
      "type": "individual",
      "measure": "https://madie.cms.gov/Measure/CMS122FHIRDiabetesAssessGreaterThan9Percent",
      "period": {
        "start": "2026-01-01",
        "end": "2026-12-31"
      },
      "group": [ {
        "id": "Group_1",
        "population": [ {
          "id": "InitialPopulation_1",
          "code": {
            "coding": [ {
              "system": "http://terminology.hl7.org/CodeSystem/measure-population",
              "code": "initial-population",
              "display": "Initial Population"
            } ]
          },
          "count": 1
        }, {
          "id": "Denominator_1",
          "code": {
            "coding": [ {
              "system": "http://terminology.hl7.org/CodeSystem/measure-population",
              "code": "denominator",
              "display": "Denominator"
            } ]
          },
          "count": 1
        }, {
          "id": "DenominatorExclusion_1",
          "code": {
            "coding": [ {
              "system": "http://terminology.hl7.org/CodeSystem/measure-population",
              "code": "denominator-exclusion",
              "display": "Denominator Exclusion"
            } ]
          },
          "count": 1
        }, {
          "id": "Numerator_1",
          "code": {
            "coding": [ {
              "system": "http://terminology.hl7.org/CodeSystem/measure-population",
              "code": "numerator",
              "display": "Numerator"
            } ]
          },
          "count": 0
        } ],
        "measureScore": {
          "value": 1.0
        }
      } ],
      "evaluatedResource": [ {
        "reference": "Patient/91986c00-e45b-4e7c-afa7-734d6fe43d16"
      }, {
        "reference": "Encounter/c5ea8bc5-7c54-472a-9af7-955ce2642bbe"
      }, {
        "reference": "Condition/01dea69f-7f70-4f81-b0db-86c47181469a"
      }, {
        "reference": "Condition/31962743-18cd-4a6c-9291-d7eb3fb91700"
      } ]
    },
    "request": {
      "method": "PUT",
      "url": "MeasureReport/10353022-6e86-40b2-8aa0-82b7b97e0ed1"
    }
  } ]
}