{
  "resourceType": "Bundle",
  "id": "61095b0998086b53805591a5",
  "type": "transaction",
  "entry": [ {
    "fullUrl": "https://madie.cms.gov/Patient/6f8ca86b-372b-4f16-b22b-f1bcc2053878",
    "resource": {
      "resourceType": "Patient",
      "id": "6f8ca86b-372b-4f16-b22b-f1bcc2053878",
      "meta": {
        "profile": [ "http://hl7.org/fhir/us/qicore/StructureDefinition/qicore-patient" ]
      },
      "text": {
        "status": "generated",
        "div": "<div xmlns=\"http://www.w3.org/1999/xhtml\"><div class=\"hapiHeaderText\">Age@18 <b>DENOMPASS </b></div><table class=\"hapiPropertyTable\"><tbody><tr><td>Identifier</td><td>67f3e33acf17bcb386e754d726ed064ccd48ba21ff0ffb2eb678740a684398be</td></tr><tr><td>Date of birth</td><td><span>01 January 1994</span></td></tr></tbody></table></div>"
      },
      "extension": [ {
        "url": "http://hl7.org/fhir/us/core/StructureDefinition/us-core-race",
        "extension": [ {
          "url": "ombCategory",
          "valueCoding": {
            "system": "urn:oid:2.16.840.1.113883.6.238",
            "code": "1002-5",
            "display": "American Indian or Alaska Native",
            "userSelected": true
          }
        }, {
          "url": "text",
          "valueString": "American Indian or Alaska Native"
        } ]
      }, {
        "url": "http://hl7.org/fhir/us/core/StructureDefinition/us-core-ethnicity",
        "extension": [ {
          "url": "ombCategory",
          "valueCoding": {
            "system": "urn:oid:2.16.840.1.113883.6.238",
            "code": "2135-2",
            "display": "Hispanic or Latino",
            "userSelected": true
          }
        }, {
          "url": "text",
          "valueString": "Hispanic or Latino"
        } ]
      } ],
      "identifier": [ {
        "type": {
          "coding": [ {
            "system": "http://terminology.hl7.org/CodeSystem/v2-0203",
            "code": "MR"
          } ]
        },
        "system": "https://bonnie-fhir.healthit.gov/",
        "value": "61095b0998086b53805591a5"
      } ],
      "active": true,
      "name": [ {
        "use": "usual",
        "family": "DENEXPASS",
        "given": [ "GlaucomaWithCatSurg" ]
      } ],
      "gender": "female",
      "birthDate": "1996-01-01"
    },
    "request": {
      "method": "PUT",
      "url": "Patient/6f8ca86b-372b-4f16-b22b-f1bcc2053878"
    }
  }, {
    "fullUrl": "https://madie.cms.gov/Observation/b243a948-b83c-41bf-a112-ac26ad6b6898",
    "resource": {
      "resourceType": "Observation",
      "id": "b243a948-b83c-41bf-a112-ac26ad6b6898",
      "meta": {
        "profile": [ "http://hl7.org/fhir/us/qicore/StructureDefinition/qicore-observation-clinical-result" ]
      },
      "status": "final",
      "category": [ {
        "coding": [ {
          "system": "http://terminology.hl7.org/CodeSystem/observation-category",
          "code": "exam",
          "display": "exam"
        } ]
      } ],
      "code": {
        "coding": [ {
          "system": "http://snomed.info/sct",
          "code": "419775003"
        } ]
      },
      "subject": {
        "reference": "Patient/6f8ca86b-372b-4f16-b22b-f1bcc2053878"
      },
      "effectivePeriod": {
        "start": "2026-03-13T09:00:00+00:00",
        "end": "2026-03-13T09:30:00+00:00"
      }
    },
    "request": {
      "method": "PUT",
      "url": "Observation/b243a948-b83c-41bf-a112-ac26ad6b6898"
    }
  }, {
    "fullUrl": "https://madie.cms.gov/Procedure/cec12b08-7677-4b08-9353-5a60ff0f3964",
    "resource": {
      "resourceType": "Procedure",
      "id": "cec12b08-7677-4b08-9353-5a60ff0f3964",
      "meta": {
        "profile": [ "http://hl7.org/fhir/us/qicore/StructureDefinition/qicore-procedure" ]
      },
      "extension": [ {
        "url": "http://hl7.org/fhir/us/qicore/StructureDefinition/qicore-recorded",
        "valueDateTime": "2026-03-05T09:35:00-04:00"
      } ],
      "status": "completed",
      "code": {
        "coding": [ {
          "system": "http://snomed.info/sct",
          "code": "84149000"
        } ]
      },
      "subject": {
        "reference": "Patient/6f8ca86b-372b-4f16-b22b-f1bcc2053878"
      },
      "performedPeriod": {
        "start": "2026-03-05T09:20:00-04:00",
        "end": "2026-04-05T10:30:00-04:00"
      }
    },
    "request": {
      "method": "PUT",
      "url": "Procedure/cec12b08-7677-4b08-9353-5a60ff0f3964"
    }
  }, {
    "fullUrl": "https://madie.cms.gov/Condition/e69e2fd4-834e-43c9-a0df-aca4ef0548b4",
    "resource": {
      "resourceType": "Condition",
      "id": "e69e2fd4-834e-43c9-a0df-aca4ef0548b4",
      "meta": {
        "profile": [ "http://hl7.org/fhir/us/qicore/StructureDefinition/qicore-condition-encounter-diagnosis" ]
      },
      "clinicalStatus": {
        "coding": [ {
          "system": "http://terminology.hl7.org/CodeSystem/condition-clinical",
          "code": "active",
          "display": "active",
          "userSelected": true
        } ]
      },
      "category": [ {
        "coding": [ {
          "system": "http://terminology.hl7.org/CodeSystem/condition-clinical",
          "code": "active",
          "display": "active",
          "userSelected": true
        } ]
      } ],
      "code": {
        "coding": [ {
          "system": "http://hl7.org/fhir/sid/icd-10-cm",
          "code": "H40.89",
          "userSelected": true
        }, {
          "system": "http://snomed.info/sct",
          "code": "111514006",
          "userSelected": true
        } ]
      },
      "subject": {
        "reference": "Patient/6f8ca86b-372b-4f16-b22b-f1bcc2053878"
      },
      "onsetDateTime": "2024-11-01T08:00:00.000+00:00"
    },
    "request": {
      "method": "PUT",
      "url": "Condition/e69e2fd4-834e-43c9-a0df-aca4ef0548b4"
    }
  }, {
    "fullUrl": "https://madie.cms.gov/Coverage/04baf493-829d-4649-8c6b-5ef59bea64c9",
    "resource": {
      "resourceType": "Coverage",
      "id": "04baf493-829d-4649-8c6b-5ef59bea64c9",
      "meta": {
        "profile": [ "http://hl7.org/fhir/us/qicore/StructureDefinition/qicore-coverage" ]
      },
      "status": "active",
      "beneficiary": {
        "reference": "Patient/6f8ca86b-372b-4f16-b22b-f1bcc2053878"
      },
      "payor": [ {
        "reference": "Organization/4b8acafa-a5a5-4de1-ae59-05d091bb5269"
      } ]
    },
    "request": {
      "method": "PUT",
      "url": "Coverage/04baf493-829d-4649-8c6b-5ef59bea64c9"
    }
  }, {
    "fullUrl": "https://madie.cms.gov/Organization/4b8acafa-a5a5-4de1-ae59-05d091bb5269",
    "resource": {
      "resourceType": "Organization",
      "id": "4b8acafa-a5a5-4de1-ae59-05d091bb5269",
      "meta": {
        "profile": [ "http://hl7.org/fhir/us/qicore/StructureDefinition/qicore-organization" ]
      },
      "identifier": [ {
        "use": "temp",
        "system": "urn:oid:2.16.840.1.113883.4.4",
        "value": "21-3259825"
      } ],
      "active": true,
      "type": [ {
        "coding": [ {
          "system": "http://terminology.hl7.org/CodeSystem/organization-type",
          "code": "pay",
          "display": "Payer"
        } ]
      } ],
      "name": "Blue Cross Blue Shield of Texas",
      "telecom": [ {
        "system": "phone",
        "value": "(+1) 972-766-6900"
      } ],
      "address": [ {
        "use": "billing",
        "type": "postal",
        "line": [ "P.O. Box 660044" ],
        "city": "Dallas",
        "state": "TX",
        "postalCode": "75266-0044",
        "country": "USA"
      } ]
    },
    "request": {
      "method": "PUT",
      "url": "Organization/4b8acafa-a5a5-4de1-ae59-05d091bb5269"
    }
  }, {
    "fullUrl": "https://madie.cms.gov/Practitioner/5840063c-3cc1-495d-b547-24cb741c7b39",
    "resource": {
      "resourceType": "Practitioner",
      "id": "5840063c-3cc1-495d-b547-24cb741c7b39",
      "meta": {
        "profile": [ "http://hl7.org/fhir/us/qicore/StructureDefinition/qicore-practitioner" ]
      },
      "identifier": [ {
        "system": "http://hl7.org/fhir/sid/us-npi",
        "value": "123456"
      } ],
      "name": [ {
        "family": "Evil",
        "prefix": [ "Dr" ]
      } ]
    },
    "request": {
      "method": "PUT",
      "url": "Practitioner/5840063c-3cc1-495d-b547-24cb741c7b39"
    }
  }, {
    "fullUrl": "https://madie.cms.gov/MeasureReport/7b7b7fb1-117e-4367-8376-71e2a1f3646d",
    "resource": {
      "resourceType": "MeasureReport",
      "id": "7b7b7fb1-117e-4367-8376-71e2a1f3646d",
      "meta": {
        "profile": [ "http://hl7.org/fhir/us/cqfmeasures/StructureDefinition/test-case-cqfm" ]
      },
      "contained": [ {
        "resourceType": "Parameters",
        "id": "a3a840d8-fa82-4ab1-a32e-b0f761cb6bc5-parameters",
        "parameter": [ {
          "name": "subject",
          "valueString": "6f8ca86b-372b-4f16-b22b-f1bcc2053878"
        } ]
      } ],
      "extension": [ {
        "url": "http://hl7.org/fhir/StructureDefinition/cqf-inputParameters",
        "valueReference": {
          "reference": "#a3a840d8-fa82-4ab1-a32e-b0f761cb6bc5-parameters"
        }
      }, {
        "url": "http://hl7.org/fhir/us/cqfmeasures/StructureDefinition/cqfm-testCaseDescription",
        "valueMarkdown": "Patient with Glaucoma with cataract surgery. "
      } ],
      "modifierExtension": [ {
        "url": "http://hl7.org/fhir/us/cqfmeasures/StructureDefinition/cqfm-isTestCase",
        "valueBoolean": true
      } ],
      "status": "complete",
      "type": "individual",
      "measure": "https://madie.cms.gov/Measure/CMS133FHIRCataracts2040BCVAwithin90Days",
      "period": {
        "start": "2026-01-01",
        "end": "2026-12-31"
      },
      "group": [ {
        "id": "Group_1",
        "population": [ {
          "id": "InitialPopulation_1",
          "code": {
            "coding": [ {
              "system": "http://terminology.hl7.org/CodeSystem/measure-population",
              "code": "initial-population",
              "display": "Initial Population"
            } ]
          },
          "count": 1
        }, {
          "id": "Denominator_1",
          "code": {
            "coding": [ {
              "system": "http://terminology.hl7.org/CodeSystem/measure-population",
              "code": "denominator",
              "display": "Denominator"
            } ]
          },
          "count": 1
        }, {
          "id": "DenominatorExclusion_1",
          "code": {
            "coding": [ {
              "system": "http://terminology.hl7.org/CodeSystem/measure-population",
              "code": "denominator-exclusion",
              "display": "Denominator Exclusion"
            } ]
          },
          "count": 1
        }, {
          "id": "Numerator_1",
          "code": {
            "coding": [ {
              "system": "http://terminology.hl7.org/CodeSystem/measure-population",
              "code": "numerator",
              "display": "Numerator"
            } ]
          },
          "count": 0
        } ],
        "measureScore": {
          "value": 0.0
        }
      } ],
      "evaluatedResource": [ {
        "reference": "Patient/6f8ca86b-372b-4f16-b22b-f1bcc2053878"
      }, {
        "reference": "Observation/b243a948-b83c-41bf-a112-ac26ad6b6898"
      }, {
        "reference": "Procedure/cec12b08-7677-4b08-9353-5a60ff0f3964"
      }, {
        "reference": "Condition/e69e2fd4-834e-43c9-a0df-aca4ef0548b4"
      }, {
        "reference": "Coverage/04baf493-829d-4649-8c6b-5ef59bea64c9"
      }, {
        "reference": "Organization/4b8acafa-a5a5-4de1-ae59-05d091bb5269"
      }, {
        "reference": "Practitioner/5840063c-3cc1-495d-b547-24cb741c7b39"
      } ]
    },
    "request": {
      "method": "PUT",
      "url": "MeasureReport/7b7b7fb1-117e-4367-8376-71e2a1f3646d"
    }
  } ]
}