{
  "resourceType": "Bundle",
  "id": "tests-DENEXFail-SCrIncreasedBy03mg",
  "type": "transaction",
  "entry": [ {
    "fullUrl": "https://madie.cms.gov/Observation/0c757672-9419-40a5-ac5f-105079fb8323",
    "resource": {
      "resourceType": "Observation",
      "id": "0c757672-9419-40a5-ac5f-105079fb8323",
      "meta": {
        "profile": [ "http://hl7.org/fhir/us/qicore/StructureDefinition/qicore-observation-lab" ]
      },
      "status": "final",
      "category": [ {
        "coding": [ {
          "system": "http://terminology.hl7.org/CodeSystem/observation-category",
          "code": "laboratory",
          "display": "Laboratory"
        } ]
      } ],
      "code": {
        "coding": [ {
          "system": "http://loinc.org",
          "version": "2.72",
          "code": "21232-4",
          "display": "Creatinine [Mass/volume] in Serum or Plasma"
        } ]
      },
      "subject": {
        "reference": "Patient/fd3b9a4e-9dcf-4eda-bd0e-0f9ababe6233"
      },
      "effectiveDateTime": "2026-09-24T08:15:00.000+00:00",
      "valueQuantity": {
        "value": 0.1,
        "unit": "mg/dL",
        "system": "http://unitsofmeasure.org",
        "code": "mg/dL"
      }
    },
    "request": {
      "method": "PUT",
      "url": "Observation/0c757672-9419-40a5-ac5f-105079fb8323"
    }
  }, {
    "fullUrl": "https://madie.cms.gov/Encounter/4f1798f6-b2e0-42e7-89d2-e1e0a99fcb88",
    "resource": {
      "resourceType": "Encounter",
      "id": "4f1798f6-b2e0-42e7-89d2-e1e0a99fcb88",
      "meta": {
        "profile": [ "http://hl7.org/fhir/us/qicore/StructureDefinition/qicore-encounter" ]
      },
      "status": "finished",
      "class": {
        "system": "http://terminology.hl7.org/CodeSystem/v3-ActCode",
        "code": "IMP",
        "display": "inpatient encounter"
      },
      "type": [ {
        "coding": [ {
          "system": "http://snomed.info/sct",
          "code": "183452005",
          "display": "Emergency hospital admission (procedure)"
        } ]
      } ],
      "subject": {
        "reference": "Patient/fd3b9a4e-9dcf-4eda-bd0e-0f9ababe6233"
      },
      "period": {
        "start": "2026-09-24T20:00:00.000+00:00",
        "end": "2026-09-27T08:15:00.000+00:00"
      }
    },
    "request": {
      "method": "PUT",
      "url": "Encounter/4f1798f6-b2e0-42e7-89d2-e1e0a99fcb88"
    }
  }, {
    "fullUrl": "https://madie.cms.gov/Encounter/171dc67b-c81b-4dff-90e6-689ad4c5e23f",
    "resource": {
      "resourceType": "Encounter",
      "id": "171dc67b-c81b-4dff-90e6-689ad4c5e23f",
      "meta": {
        "profile": [ "http://hl7.org/fhir/us/qicore/StructureDefinition/qicore-encounter" ]
      },
      "status": "finished",
      "class": {
        "system": "http://terminology.hl7.org/CodeSystem/v3-ActCode",
        "code": "EMER",
        "display": "emergency encounter"
      },
      "type": [ {
        "coding": [ {
          "system": "http://snomed.info/sct",
          "code": "4525004",
          "display": "Emergency Department Visit"
        } ]
      } ],
      "subject": {
        "reference": "Patient/fd3b9a4e-9dcf-4eda-bd0e-0f9ababe6233"
      },
      "period": {
        "start": "2026-09-24T08:00:00.000+00:00",
        "end": "2026-09-24T20:00:00.000+00:00"
      }
    },
    "request": {
      "method": "PUT",
      "url": "Encounter/171dc67b-c81b-4dff-90e6-689ad4c5e23f"
    }
  }, {
    "fullUrl": "https://madie.cms.gov/Observation/6f986e45-b90e-4243-af73-3de8d5f4a47d",
    "resource": {
      "resourceType": "Observation",
      "id": "6f986e45-b90e-4243-af73-3de8d5f4a47d",
      "meta": {
        "profile": [ "http://hl7.org/fhir/us/qicore/StructureDefinition/qicore-observation-lab" ]
      },
      "status": "final",
      "category": [ {
        "coding": [ {
          "system": "http://terminology.hl7.org/CodeSystem/observation-category",
          "code": "laboratory",
          "display": "Laboratory"
        } ]
      } ],
      "code": {
        "coding": [ {
          "system": "http://loinc.org",
          "version": "2.72",
          "code": "21232-4",
          "display": "Creatinine [Mass/volume] in Serum or Plasma"
        } ]
      },
      "subject": {
        "reference": "Patient/fd3b9a4e-9dcf-4eda-bd0e-0f9ababe6233"
      },
      "effectiveDateTime": "2026-09-26T08:01:00.000+00:00",
      "valueQuantity": {
        "value": 1.4,
        "unit": "mg/dL",
        "system": "http://unitsofmeasure.org",
        "code": "mg/dL"
      }
    },
    "request": {
      "method": "PUT",
      "url": "Observation/6f986e45-b90e-4243-af73-3de8d5f4a47d"
    }
  }, {
    "fullUrl": "https://madie.cms.gov/Observation/45823938-c992-48da-8a47-fe8ec5dac088",
    "resource": {
      "resourceType": "Observation",
      "id": "45823938-c992-48da-8a47-fe8ec5dac088",
      "meta": {
        "profile": [ "http://hl7.org/fhir/us/qicore/StructureDefinition/qicore-observation-lab" ]
      },
      "status": "final",
      "category": [ {
        "coding": [ {
          "system": "http://terminology.hl7.org/CodeSystem/observation-category",
          "code": "laboratory",
          "display": "Laboratory"
        } ]
      } ],
      "code": {
        "coding": [ {
          "system": "http://loinc.org",
          "version": "2.72",
          "code": "21232-4",
          "display": "Creatinine [Mass/volume] in Serum or Plasma"
        } ]
      },
      "subject": {
        "reference": "Patient/fd3b9a4e-9dcf-4eda-bd0e-0f9ababe6233"
      },
      "effectiveDateTime": "2026-09-25T08:00:00.000+00:00",
      "valueQuantity": {
        "value": 1.1,
        "unit": "mg/dL",
        "system": "http://unitsofmeasure.org",
        "code": "mg/dL"
      }
    },
    "request": {
      "method": "PUT",
      "url": "Observation/45823938-c992-48da-8a47-fe8ec5dac088"
    }
  }, {
    "fullUrl": "https://madie.cms.gov/Patient/fd3b9a4e-9dcf-4eda-bd0e-0f9ababe6233",
    "resource": {
      "resourceType": "Patient",
      "id": "fd3b9a4e-9dcf-4eda-bd0e-0f9ababe6233",
      "meta": {
        "profile": [ "http://hl7.org/fhir/us/qicore/StructureDefinition/qicore-patient" ]
      },
      "extension": [ {
        "url": "http://hl7.org/fhir/us/core/StructureDefinition/us-core-race",
        "extension": [ {
          "url": "ombCategory",
          "valueCoding": {
            "system": "urn:oid:2.16.840.1.113883.6.238",
            "code": "2106-3",
            "display": "White"
          }
        }, {
          "url": "text",
          "valueString": "White"
        } ]
      }, {
        "url": "http://hl7.org/fhir/us/core/StructureDefinition/us-core-ethnicity",
        "extension": [ {
          "url": "ombCategory",
          "valueCoding": {
            "system": "urn:oid:2.16.840.1.113883.6.238",
            "code": "2135-2",
            "display": "Hispanic or Latino"
          }
        }, {
          "url": "text",
          "valueString": "Hispanic or Latino"
        } ]
      }, {
        "url": "http://hl7.org/fhir/us/core/StructureDefinition/us-core-sex",
        "valueCode": "248153007"
      } ],
      "identifier": [ {
        "system": "http://hospital.smarthealthit.org",
        "value": "999999999"
      } ],
      "name": [ {
        "family": "Example",
        "given": [ "Patient" ]
      } ],
      "gender": "male",
      "birthDate": "1956-01-01"
    },
    "request": {
      "method": "PUT",
      "url": "Patient/fd3b9a4e-9dcf-4eda-bd0e-0f9ababe6233"
    }
  }, {
    "fullUrl": "https://madie.cms.gov/MeasureReport/d5482976-c657-4dc4-9029-bd8dffd31712",
    "resource": {
      "resourceType": "MeasureReport",
      "id": "d5482976-c657-4dc4-9029-bd8dffd31712",
      "meta": {
        "profile": [ "http://hl7.org/fhir/us/cqfmeasures/StructureDefinition/test-case-cqfm" ]
      },
      "contained": [ {
        "resourceType": "Parameters",
        "id": "61efdb48-0e7d-45ee-8aa3-64d943ca04bd-parameters",
        "parameter": [ {
          "name": "subject",
          "valueString": "fd3b9a4e-9dcf-4eda-bd0e-0f9ababe6233"
        } ]
      } ],
      "extension": [ {
        "url": "http://hl7.org/fhir/StructureDefinition/cqf-inputParameters",
        "valueReference": {
          "reference": "#61efdb48-0e7d-45ee-8aa3-64d943ca04bd-parameters"
        }
      }, {
        "url": "http://hl7.org/fhir/us/cqfmeasures/StructureDefinition/cqfm-testCaseDescription",
        "valueMarkdown": "IP encounter w/ increase in SCr value of >= 0.3 mg/dL between index SCr and a subsequent SCr taken within 48 of the index SCr. Index SCr is  value of  first SCr result obtained on arrival, done <=48 hours after the start of the encounter. Meets DENEX"
      } ],
      "modifierExtension": [ {
        "url": "http://hl7.org/fhir/us/cqfmeasures/StructureDefinition/cqfm-isTestCase",
        "valueBoolean": true
      } ],
      "status": "complete",
      "type": "individual",
      "measure": "https://madie.cms.gov/Measure/CMS832HHAKIFHIR",
      "period": {
        "start": "2026-01-01",
        "end": "2026-12-31"
      },
      "group": [ {
        "id": "Group_1",
        "population": [ {
          "id": "InitialPopulation_1",
          "code": {
            "coding": [ {
              "system": "http://terminology.hl7.org/CodeSystem/measure-population",
              "code": "initial-population",
              "display": "Initial Population"
            } ]
          },
          "count": 1
        }, {
          "id": "Denominator_1",
          "code": {
            "coding": [ {
              "system": "http://terminology.hl7.org/CodeSystem/measure-population",
              "code": "denominator",
              "display": "Denominator"
            } ]
          },
          "count": 1
        }, {
          "id": "DenominatorExclusion_1",
          "code": {
            "coding": [ {
              "system": "http://terminology.hl7.org/CodeSystem/measure-population",
              "code": "denominator-exclusion",
              "display": "Denominator Exclusion"
            } ]
          },
          "count": 1
        }, {
          "id": "Numerator_1",
          "code": {
            "coding": [ {
              "system": "http://terminology.hl7.org/CodeSystem/measure-population",
              "code": "numerator",
              "display": "Numerator"
            } ]
          },
          "count": 0
        } ],
        "measureScore": {
          "value": 0.0
        }
      } ],
      "evaluatedResource": [ {
        "reference": "Observation/0c757672-9419-40a5-ac5f-105079fb8323"
      }, {
        "reference": "Encounter/4f1798f6-b2e0-42e7-89d2-e1e0a99fcb88"
      }, {
        "reference": "Encounter/171dc67b-c81b-4dff-90e6-689ad4c5e23f"
      }, {
        "reference": "Observation/6f986e45-b90e-4243-af73-3de8d5f4a47d"
      }, {
        "reference": "Observation/45823938-c992-48da-8a47-fe8ec5dac088"
      }, {
        "reference": "Patient/fd3b9a4e-9dcf-4eda-bd0e-0f9ababe6233"
      } ]
    },
    "request": {
      "method": "PUT",
      "url": "MeasureReport/d5482976-c657-4dc4-9029-bd8dffd31712"
    }
  } ]
}