{
  "resourceType": "Bundle",
  "id": "tests-DENEXFail-MaleeGFRNotCalculated",
  "type": "transaction",
  "entry": [ {
    "fullUrl": "https://madie.cms.gov/Patient/832c0d97-0f13-4994-a542-ad2230dc7735",
    "resource": {
      "resourceType": "Patient",
      "id": "832c0d97-0f13-4994-a542-ad2230dc7735",
      "meta": {
        "profile": [ "http://hl7.org/fhir/us/qicore/StructureDefinition/qicore-patient" ]
      },
      "extension": [ {
        "url": "http://hl7.org/fhir/us/core/StructureDefinition/us-core-race",
        "extension": [ {
          "url": "ombCategory",
          "valueCoding": {
            "system": "urn:oid:2.16.840.1.113883.6.238",
            "code": "2028-9",
            "display": "Asian"
          }
        }, {
          "url": "text",
          "valueString": "Asian"
        } ]
      }, {
        "url": "http://hl7.org/fhir/us/core/StructureDefinition/us-core-ethnicity",
        "extension": [ {
          "url": "ombCategory",
          "valueCoding": {
            "system": "urn:oid:2.16.840.1.113883.6.238",
            "code": "2186-5",
            "display": "Not Hispanic or Latino"
          }
        }, {
          "url": "text",
          "valueString": "Not Hispanic or Latino"
        } ]
      }, {
        "url": "http://hl7.org/fhir/us/core/StructureDefinition/us-core-sex",
        "valueCode": "248153007"
      } ],
      "identifier": [ {
        "system": "http://hospital.smarthealthit.org",
        "value": "999999999"
      } ],
      "name": [ {
        "family": "Example",
        "given": [ "Malee" ]
      } ],
      "gender": "male",
      "birthDate": "1975-01-01"
    },
    "request": {
      "method": "PUT",
      "url": "Patient/832c0d97-0f13-4994-a542-ad2230dc7735"
    }
  }, {
    "fullUrl": "https://madie.cms.gov/Encounter/2e5365f0-d24e-47e6-ad13-6ad932e10d06",
    "resource": {
      "resourceType": "Encounter",
      "id": "2e5365f0-d24e-47e6-ad13-6ad932e10d06",
      "meta": {
        "profile": [ "http://hl7.org/fhir/us/qicore/StructureDefinition/qicore-encounter" ]
      },
      "status": "finished",
      "class": {
        "system": "http://terminology.hl7.org/CodeSystem/v3-ActCode",
        "code": "IMP",
        "display": "inpatient encounter"
      },
      "type": [ {
        "coding": [ {
          "system": "http://snomed.info/sct",
          "code": "183452005",
          "display": "Emergency hospital admission (procedure)"
        } ]
      } ],
      "subject": {
        "reference": "Patient/832c0d97-0f13-4994-a542-ad2230dc7735"
      },
      "period": {
        "start": "2026-12-16T13:00:00.000+00:00",
        "end": "2026-12-24T13:15:00.000+00:00"
      }
    },
    "request": {
      "method": "PUT",
      "url": "Encounter/2e5365f0-d24e-47e6-ad13-6ad932e10d06"
    }
  }, {
    "fullUrl": "https://madie.cms.gov/Observation/4fdb3df8-a5dd-44c1-921b-d8f1dd57b479",
    "resource": {
      "resourceType": "Observation",
      "id": "4fdb3df8-a5dd-44c1-921b-d8f1dd57b479",
      "meta": {
        "profile": [ "http://hl7.org/fhir/us/qicore/StructureDefinition/qicore-observation-lab" ]
      },
      "status": "final",
      "category": [ {
        "coding": [ {
          "system": "http://terminology.hl7.org/CodeSystem/observation-category",
          "code": "laboratory",
          "display": "Laboratory"
        } ]
      } ],
      "code": {
        "coding": [ {
          "system": "http://loinc.org",
          "version": "2.72",
          "code": "21232-4",
          "display": "Creatinine [Mass/volume] in Serum or Plasma"
        } ]
      },
      "subject": {
        "reference": "Patient/832c0d97-0f13-4994-a542-ad2230dc7735"
      },
      "effectiveDateTime": "2026-12-18T13:01:00.000+00:00",
      "valueQuantity": {
        "value": 4,
        "unit": "mg/dL",
        "system": "http://unitsofmeasure.org",
        "code": "mg/dL"
      }
    },
    "request": {
      "method": "PUT",
      "url": "Observation/4fdb3df8-a5dd-44c1-921b-d8f1dd57b479"
    }
  }, {
    "fullUrl": "https://madie.cms.gov/MeasureReport/3ede5c4c-fb69-4bac-a705-aa1725a3a588",
    "resource": {
      "resourceType": "MeasureReport",
      "id": "3ede5c4c-fb69-4bac-a705-aa1725a3a588",
      "meta": {
        "profile": [ "http://hl7.org/fhir/us/cqfmeasures/StructureDefinition/test-case-cqfm" ]
      },
      "contained": [ {
        "resourceType": "Parameters",
        "id": "29ca0b8a-d25b-4f9c-9a89-05935dc04f62-parameters",
        "parameter": [ {
          "name": "subject",
          "valueString": "832c0d97-0f13-4994-a542-ad2230dc7735"
        } ]
      } ],
      "extension": [ {
        "url": "http://hl7.org/fhir/StructureDefinition/cqf-inputParameters",
        "valueReference": {
          "reference": "#29ca0b8a-d25b-4f9c-9a89-05935dc04f62-parameters"
        }
      }, {
        "url": "http://hl7.org/fhir/us/cqfmeasures/StructureDefinition/cqfm-testCaseDescription",
        "valueMarkdown": "IP encounter. Male Pt had SCr = 4 but test was 48 hrs + 1 minute after start of encounter. SCr values must be within 48 hours to be considered for eGFR <60 exclusion. Note case meets denom exclusion due to less than 2 SCrs within 48 hrs of encounter"
      } ],
      "modifierExtension": [ {
        "url": "http://hl7.org/fhir/us/cqfmeasures/StructureDefinition/cqfm-isTestCase",
        "valueBoolean": true
      } ],
      "status": "complete",
      "type": "individual",
      "measure": "https://madie.cms.gov/Measure/CMS832HHAKIFHIR",
      "period": {
        "start": "2026-01-01",
        "end": "2026-12-31"
      },
      "group": [ {
        "id": "Group_1",
        "population": [ {
          "id": "InitialPopulation_1",
          "code": {
            "coding": [ {
              "system": "http://terminology.hl7.org/CodeSystem/measure-population",
              "code": "initial-population",
              "display": "Initial Population"
            } ]
          },
          "count": 1
        }, {
          "id": "Denominator_1",
          "code": {
            "coding": [ {
              "system": "http://terminology.hl7.org/CodeSystem/measure-population",
              "code": "denominator",
              "display": "Denominator"
            } ]
          },
          "count": 1
        }, {
          "id": "DenominatorExclusion_1",
          "code": {
            "coding": [ {
              "system": "http://terminology.hl7.org/CodeSystem/measure-population",
              "code": "denominator-exclusion",
              "display": "Denominator Exclusion"
            } ]
          },
          "count": 1
        }, {
          "id": "Numerator_1",
          "code": {
            "coding": [ {
              "system": "http://terminology.hl7.org/CodeSystem/measure-population",
              "code": "numerator",
              "display": "Numerator"
            } ]
          },
          "count": 0
        } ],
        "measureScore": {
          "value": 0.0
        }
      } ],
      "evaluatedResource": [ {
        "reference": "Patient/832c0d97-0f13-4994-a542-ad2230dc7735"
      }, {
        "reference": "Encounter/2e5365f0-d24e-47e6-ad13-6ad932e10d06"
      }, {
        "reference": "Observation/4fdb3df8-a5dd-44c1-921b-d8f1dd57b479"
      } ]
    },
    "request": {
      "method": "PUT",
      "url": "MeasureReport/3ede5c4c-fb69-4bac-a705-aa1725a3a588"
    }
  } ]
}