{
  "resourceType": "Bundle",
  "id": "tests-TestCaseNoSex",
  "type": "transaction",
  "entry": [ {
    "fullUrl": "https://madie.cms.gov/Patient/479e4df9-132f-401d-be4c-583b1bc961e2",
    "resource": {
      "resourceType": "Patient",
      "id": "479e4df9-132f-401d-be4c-583b1bc961e2",
      "meta": {
        "profile": [ "http://hl7.org/fhir/us/qicore/StructureDefinition/qicore-patient" ]
      },
      "extension": [ {
        "url": "http://hl7.org/fhir/us/core/StructureDefinition/us-core-race",
        "extension": [ {
          "url": "ombCategory",
          "valueCoding": {
            "system": "urn:oid:2.16.840.1.113883.6.238",
            "code": "2028-9",
            "display": "Asian"
          }
        }, {
          "url": "text",
          "valueString": "Asian"
        } ]
      }, {
        "url": "http://hl7.org/fhir/us/core/StructureDefinition/us-core-ethnicity",
        "extension": [ {
          "url": "ombCategory",
          "valueCoding": {
            "system": "urn:oid:2.16.840.1.113883.6.238",
            "code": "2186-5",
            "display": "Not Hispanic or Latino"
          }
        }, {
          "url": "text",
          "valueString": "Not Hispanic or Latino"
        } ]
      } ],
      "identifier": [ {
        "system": "http://hospital.smarthealthit.org",
        "value": "999999999"
      } ],
      "name": [ {
        "family": "Example",
        "given": [ "Malee" ]
      } ],
      "birthDate": "1975-01-01"
    },
    "request": {
      "method": "PUT",
      "url": "Patient/479e4df9-132f-401d-be4c-583b1bc961e2"
    }
  }, {
    "fullUrl": "https://madie.cms.gov/Encounter/338d3e2a-ed41-4d0b-95d1-ce51d764e2af",
    "resource": {
      "resourceType": "Encounter",
      "id": "338d3e2a-ed41-4d0b-95d1-ce51d764e2af",
      "meta": {
        "profile": [ "http://hl7.org/fhir/us/qicore/StructureDefinition/qicore-encounter" ]
      },
      "status": "finished",
      "class": {
        "system": "http://terminology.hl7.org/CodeSystem/v3-ActCode",
        "code": "EMER",
        "display": "emergency encounter"
      },
      "type": [ {
        "coding": [ {
          "system": "http://snomed.info/sct",
          "code": "4525004",
          "display": "Emergency Department Visit"
        } ]
      } ],
      "subject": {
        "reference": "Patient/479e4df9-132f-401d-be4c-583b1bc961e2"
      },
      "period": {
        "start": "2026-09-29T13:00:00.000+00:00",
        "end": "2026-09-30T01:00:00.000+00:00"
      }
    },
    "request": {
      "method": "PUT",
      "url": "Encounter/338d3e2a-ed41-4d0b-95d1-ce51d764e2af"
    }
  }, {
    "fullUrl": "https://madie.cms.gov/Observation/459a11a9-18db-4f2f-a0b4-71dbf0ffb72d",
    "resource": {
      "resourceType": "Observation",
      "id": "459a11a9-18db-4f2f-a0b4-71dbf0ffb72d",
      "meta": {
        "profile": [ "http://hl7.org/fhir/us/qicore/StructureDefinition/qicore-observation-lab" ]
      },
      "status": "final",
      "category": [ {
        "coding": [ {
          "system": "http://terminology.hl7.org/CodeSystem/observation-category",
          "code": "laboratory",
          "display": "Laboratory"
        } ]
      } ],
      "code": {
        "coding": [ {
          "system": "http://loinc.org",
          "version": "2.72",
          "code": "21232-4",
          "display": "Creatinine [Mass/volume] in Serum or Plasma"
        } ]
      },
      "subject": {
        "reference": "Patient/479e4df9-132f-401d-be4c-583b1bc961e2"
      },
      "effectiveDateTime": "2026-10-01T13:01:00.000+00:00",
      "valueQuantity": {
        "value": 0.9,
        "unit": "mg/dL",
        "system": "http://unitsofmeasure.org",
        "code": "mg/dL"
      }
    },
    "request": {
      "method": "PUT",
      "url": "Observation/459a11a9-18db-4f2f-a0b4-71dbf0ffb72d"
    }
  }, {
    "fullUrl": "https://madie.cms.gov/Observation/2769d69d-519a-48f0-854e-950a0af06d06",
    "resource": {
      "resourceType": "Observation",
      "id": "2769d69d-519a-48f0-854e-950a0af06d06",
      "meta": {
        "profile": [ "http://hl7.org/fhir/us/qicore/StructureDefinition/qicore-observation-lab" ]
      },
      "status": "final",
      "category": [ {
        "coding": [ {
          "system": "http://terminology.hl7.org/CodeSystem/observation-category",
          "code": "laboratory",
          "display": "Laboratory"
        } ]
      } ],
      "code": {
        "coding": [ {
          "system": "http://loinc.org",
          "version": "2.72",
          "code": "21232-4",
          "display": "Creatinine [Mass/volume] in Serum or Plasma"
        } ]
      },
      "subject": {
        "reference": "Patient/479e4df9-132f-401d-be4c-583b1bc961e2"
      },
      "effectiveDateTime": "2026-10-01T12:00:00.000+00:00",
      "valueQuantity": {
        "value": 0.91,
        "unit": "mg/dL",
        "system": "http://unitsofmeasure.org",
        "code": "mg/dL"
      }
    },
    "request": {
      "method": "PUT",
      "url": "Observation/2769d69d-519a-48f0-854e-950a0af06d06"
    }
  }, {
    "fullUrl": "https://madie.cms.gov/Observation/84818127-9998-4f04-9cec-febda219c6bb",
    "resource": {
      "resourceType": "Observation",
      "id": "84818127-9998-4f04-9cec-febda219c6bb",
      "meta": {
        "profile": [ "http://hl7.org/fhir/us/qicore/StructureDefinition/qicore-observation-lab" ]
      },
      "status": "final",
      "category": [ {
        "coding": [ {
          "system": "http://terminology.hl7.org/CodeSystem/observation-category",
          "code": "laboratory",
          "display": "Laboratory"
        } ]
      } ],
      "code": {
        "coding": [ {
          "system": "http://loinc.org",
          "version": "2.72",
          "code": "21232-4",
          "display": "Creatinine [Mass/volume] in Serum or Plasma"
        } ]
      },
      "subject": {
        "reference": "Patient/479e4df9-132f-401d-be4c-583b1bc961e2"
      },
      "effectiveDateTime": "2026-10-01T12:35:00.000+00:00",
      "valueQuantity": {
        "value": 0.91,
        "unit": "mg/dL",
        "system": "http://unitsofmeasure.org",
        "code": "mg/dL"
      }
    },
    "request": {
      "method": "PUT",
      "url": "Observation/84818127-9998-4f04-9cec-febda219c6bb"
    }
  }, {
    "fullUrl": "https://madie.cms.gov/Encounter/d70333d8-42a1-48f7-bb18-91b437ddf15a",
    "resource": {
      "resourceType": "Encounter",
      "id": "d70333d8-42a1-48f7-bb18-91b437ddf15a",
      "meta": {
        "profile": [ "http://hl7.org/fhir/us/qicore/StructureDefinition/qicore-encounter" ]
      },
      "status": "finished",
      "class": {
        "system": "http://terminology.hl7.org/CodeSystem/v3-ActCode",
        "code": "IMP",
        "display": "inpatient encounter"
      },
      "type": [ {
        "coding": [ {
          "system": "http://snomed.info/sct",
          "code": "183452005",
          "display": "Emergency hospital admission (procedure)"
        } ]
      } ],
      "subject": {
        "reference": "Patient/479e4df9-132f-401d-be4c-583b1bc961e2"
      },
      "period": {
        "start": "2026-09-30T01:01:00.000+00:00",
        "end": "2026-10-04T01:00:00.000+00:00"
      }
    },
    "request": {
      "method": "PUT",
      "url": "Encounter/d70333d8-42a1-48f7-bb18-91b437ddf15a"
    }
  }, {
    "fullUrl": "https://madie.cms.gov/Procedure/02d1e480-e9df-4110-9935-438e5bc8285e",
    "resource": {
      "resourceType": "Procedure",
      "id": "02d1e480-e9df-4110-9935-438e5bc8285e",
      "meta": {
        "profile": [ "http://hl7.org/fhir/us/qicore/StructureDefinition/qicore-procedure" ]
      },
      "status": "completed",
      "code": {
        "coding": [ {
          "system": "http://www.icd10data.com",
          "code": "02LW3DJ",
          "display": "High Risk Procedures for AKI"
        } ]
      },
      "subject": {
        "reference": "Patient/479e4df9-132f-401d-be4c-583b1bc961e2"
      },
      "performedPeriod": {
        "start": "2026-10-04T01:01:00.000+00:00",
        "end": "2026-10-04T01:02:00.000+00:00"
      }
    },
    "request": {
      "method": "PUT",
      "url": "Procedure/02d1e480-e9df-4110-9935-438e5bc8285e"
    }
  }, {
    "fullUrl": "https://madie.cms.gov/MeasureReport/ca35dd0e-af9c-4b1a-8181-a25ff6cd2698",
    "resource": {
      "resourceType": "MeasureReport",
      "id": "ca35dd0e-af9c-4b1a-8181-a25ff6cd2698",
      "meta": {
        "profile": [ "http://hl7.org/fhir/us/cqfmeasures/StructureDefinition/test-case-cqfm" ]
      },
      "contained": [ {
        "resourceType": "Parameters",
        "id": "2884c4fc-14c6-4ed8-bd86-441b85d03fc6-parameters",
        "parameter": [ {
          "name": "subject",
          "valueString": "479e4df9-132f-401d-be4c-583b1bc961e2"
        } ]
      } ],
      "extension": [ {
        "url": "http://hl7.org/fhir/StructureDefinition/cqf-inputParameters",
        "valueReference": {
          "reference": "#2884c4fc-14c6-4ed8-bd86-441b85d03fc6-parameters"
        }
      }, {
        "url": "http://hl7.org/fhir/us/cqfmeasures/StructureDefinition/cqfm-testCaseDescription",
        "valueMarkdown": "Test Case with no Sex"
      } ],
      "modifierExtension": [ {
        "url": "http://hl7.org/fhir/us/cqfmeasures/StructureDefinition/cqfm-isTestCase",
        "valueBoolean": true
      } ],
      "status": "complete",
      "type": "individual",
      "measure": "https://madie.cms.gov/Measure/CMS832HHAKIFHIR",
      "period": {
        "start": "2026-01-01",
        "end": "2026-12-31"
      },
      "group": [ {
        "id": "Group_1",
        "population": [ {
          "id": "InitialPopulation_1",
          "code": {
            "coding": [ {
              "system": "http://terminology.hl7.org/CodeSystem/measure-population",
              "code": "initial-population",
              "display": "Initial Population"
            } ]
          },
          "count": 0
        }, {
          "id": "Denominator_1",
          "code": {
            "coding": [ {
              "system": "http://terminology.hl7.org/CodeSystem/measure-population",
              "code": "denominator",
              "display": "Denominator"
            } ]
          },
          "count": 0
        }, {
          "id": "DenominatorExclusion_1",
          "code": {
            "coding": [ {
              "system": "http://terminology.hl7.org/CodeSystem/measure-population",
              "code": "denominator-exclusion",
              "display": "Denominator Exclusion"
            } ]
          },
          "count": 0
        }, {
          "id": "Numerator_1",
          "code": {
            "coding": [ {
              "system": "http://terminology.hl7.org/CodeSystem/measure-population",
              "code": "numerator",
              "display": "Numerator"
            } ]
          },
          "count": 0
        } ],
        "measureScore": {
          "value": 0.0
        }
      } ],
      "evaluatedResource": [ {
        "reference": "Patient/479e4df9-132f-401d-be4c-583b1bc961e2"
      }, {
        "reference": "Encounter/338d3e2a-ed41-4d0b-95d1-ce51d764e2af"
      }, {
        "reference": "Observation/459a11a9-18db-4f2f-a0b4-71dbf0ffb72d"
      }, {
        "reference": "Observation/2769d69d-519a-48f0-854e-950a0af06d06"
      }, {
        "reference": "Observation/84818127-9998-4f04-9cec-febda219c6bb"
      }, {
        "reference": "Encounter/d70333d8-42a1-48f7-bb18-91b437ddf15a"
      }, {
        "reference": "Procedure/02d1e480-e9df-4110-9935-438e5bc8285e"
      } ]
    },
    "request": {
      "method": "PUT",
      "url": "MeasureReport/ca35dd0e-af9c-4b1a-8181-a25ff6cd2698"
    }
  } ]
}