{"resourceType":"Bundle","id":"tests-2ae5d974-9013-4a36-b42a-2afc07de1847-bundle","type":"transaction","entry":[{"fullUrl":"Observation/1fe4d69a-a674-41a2-b831-f8e4767b0feb","resource":{"resourceType":"Observation","id":"1fe4d69a-a674-41a2-b831-f8e4767b0feb","meta":{"profile":["http://hl7.org/fhir/us/qicore/StructureDefinition/qicore-observation-lab"]},"status":"final","category":[{"coding":[{"system":"http://terminology.hl7.org/CodeSystem/observation-category","code":"laboratory","display":"Laboratory"}]}],"code":{"coding":[{"system":"http://loinc.org","code":"21232-4","display":"Creatinine [Mass/volume] in Serum or Plasma"}]},"subject":{"reference":"Patient/2ae5d974-9013-4a36-b42a-2afc07de1847"},"effectiveDateTime":"2026-10-01T08:01:00.000+00:00","valueQuantity":{"value":0.9,"unit":"mg/dL","system":"http://unitsofmeasure.org","code":"mg/dL"}},"request":{"method":"PUT","url":"Observation/1fe4d69a-a674-41a2-b831-f8e4767b0feb"}},{"fullUrl":"MeasureReport/5ad01165-93db-4aa3-86f0-e5e085da5aa8","resource":{"resourceType":"MeasureReport","id":"5ad01165-93db-4aa3-86f0-e5e085da5aa8","meta":{"profile":["http://hl7.org/fhir/us/cqfmeasures/StructureDefinition/test-case-cqfm"]},"contained":[{"resourceType":"Parameters","id":"32484dfb-83ea-4c0d-82c4-f5d417db7000-parameters","parameter":[{"name":"subject","valueString":"2ae5d974-9013-4a36-b42a-2afc07de1847"}]}],"extension":[{"url":"http://hl7.org/fhir/StructureDefinition/cqf-inputParameters","valueReference":{"reference":"#32484dfb-83ea-4c0d-82c4-f5d417db7000-parameters"}},{"url":"http://hl7.org/fhir/us/cqfmeasures/StructureDefinition/cqfm-testCaseDescription","valueMarkdown":"RV Encounters that return the first Heart Rate"}],"modifierExtension":[{"url":"http://hl7.org/fhir/us/cqfmeasures/StructureDefinition/cqfm-isTestCase","valueBoolean":true}],"status":"complete","type":"individual","measure":"https://madie.cms.gov/Measure/CMS832HHAKIFHIR","period":{"start":"2026-01-01","end":"2026-12-31"},"group":[{"id":"Group_1","population":[{"id":"InitialPopulation_1","code":{"coding":[{"system":"http://terminology.hl7.org/CodeSystem/measure-population","code":"initial-population","display":"Initial Population"}]},"count":1},{"id":"Denominator_1","code":{"coding":[{"system":"http://terminology.hl7.org/CodeSystem/measure-population","code":"denominator","display":"Denominator"}]},"count":1},{"id":"DenominatorExclusion_1","code":{"coding":[{"system":"http://terminology.hl7.org/CodeSystem/measure-population","code":"denominator-exclusion","display":"Denominator Exclusion"}]},"count":1},{"id":"Numerator_1","code":{"coding":[{"system":"http://terminology.hl7.org/CodeSystem/measure-population","code":"numerator","display":"Numerator"}]},"count":0}],"measureScore":{"value":0.0}}],"evaluatedResource":[{"reference":"Patient/2ae5d974-9013-4a36-b42a-2afc07de1847"},{"reference":"Encounter/3604e1c8-d64e-41cd-b31e-4ed7a0aa6316"},{"reference":"Encounter/e3c5fd93-dbf7-4ade-8ebb-e458d0cbdefd"},{"reference":"Observation/1fe4d69a-a674-41a2-b831-f8e4767b0feb"},{"reference":"Observation/75bf3f8e-7c65-47fb-b83a-0623fcdb67c0"},{"reference":"Condition/51739a36-259a-4e5e-86ee-f902fd552452"},{"reference":"Observation/7416bd63-6613-46a4-90ea-8cfd8d831877"},{"reference":"Observation/efedfbb8-eed9-49ad-8ffd-0d724c022861"},{"reference":"Observation/46bcc084-7b20-4768-8a3f-fefd9c2f7911"}]},"request":{"method":"PUT","url":"MeasureReport/5ad01165-93db-4aa3-86f0-e5e085da5aa8"}},{"fullUrl":"Observation/efedfbb8-eed9-49ad-8ffd-0d724c022861","resource":{"resourceType":"Observation","id":"efedfbb8-eed9-49ad-8ffd-0d724c022861","meta":{"profile":["http://hl7.org/fhir/us/core/StructureDefinition/us-core-heart-rate"]},"status":"final","category":[{"coding":[{"system":"http://terminology.hl7.org/CodeSystem/observation-category","code":"vital-signs","display":"Vital Signs"}]}],"code":{"coding":[{"system":"http://loinc.org","code":"8867-4","display":"Heart rate"}],"text":"Heart rate"},"subject":{"reference":"Patient/2ae5d974-9013-4a36-b42a-2afc07de1847"},"effectiveDateTime":"2026-10-01T09:10:00.000+00:00","valueQuantity":{"value":76,"unit":"beats/minute","system":"http://unitsofmeasure.org","code":"/min"}},"request":{"method":"PUT","url":"Observation/efedfbb8-eed9-49ad-8ffd-0d724c022861"}},{"fullUrl":"Encounter/3604e1c8-d64e-41cd-b31e-4ed7a0aa6316","resource":{"resourceType":"Encounter","id":"3604e1c8-d64e-41cd-b31e-4ed7a0aa6316","meta":{"profile":["http://hl7.org/fhir/us/qicore/StructureDefinition/qicore-encounter"]},"status":"finished","class":{"system":"http://terminology.hl7.org/CodeSystem/v3-ActCode","code":"EMER","display":"emergency"},"type":[{"coding":[{"system":"http://snomed.info/sct","code":"4525004","display":"Emergency department patient visit (procedure)"}]}],"subject":{"reference":"Patient/2ae5d974-9013-4a36-b42a-2afc07de1847"},"period":{"start":"2026-09-29T08:00:00.000+00:00","end":"2026-09-29T20:00:00.000+00:00"}},"request":{"method":"PUT","url":"Encounter/3604e1c8-d64e-41cd-b31e-4ed7a0aa6316"}},{"fullUrl":"Patient/2ae5d974-9013-4a36-b42a-2afc07de1847","resource":{"resourceType":"Patient","id":"2ae5d974-9013-4a36-b42a-2afc07de1847","meta":{"profile":["http://hl7.org/fhir/us/qicore/StructureDefinition/qicore-patient"]},"extension":[{"url":"http://hl7.org/fhir/us/core/StructureDefinition/us-core-race","extension":[{"url":"ombCategory","valueCoding":{"system":"urn:oid:2.16.840.1.113883.6.238","code":"1002-5","display":"American Indian or Alaska Native","userSelected":true}},{"url":"text","valueString":"American Indian or Alaska Native"},{"url":"detailed","valueCoding":{"system":"urn:oid:2.16.840.1.113883.6.238","code":"1653-5","display":"Tohono O'Odham"}}]},{"url":"http://hl7.org/fhir/us/core/StructureDefinition/us-core-ethnicity","extension":[{"url":"ombCategory","valueCoding":{"system":"urn:oid:2.16.840.1.113883.6.238","code":"2135-2","display":"Hispanic or Latino","userSelected":true}},{"url":"text","valueString":"Not Hispanic or Latino"},{"url":"detailed","valueCoding":{"system":"urn:oid:2.16.840.1.113883.6.238","code":"2153-5","display":"Mexican American Indian"}}]},{"url":"http://hl7.org/fhir/us/core/StructureDefinition/us-core-sex","valueCode":"248153007"}],"identifier":[{"system":"http://hospital.smarthealthit.org","value":"999999999"}],"name":[{"family":"Example","given":["Patient"]}],"gender":"male","birthDate":"1975-01-01"},"request":{"method":"PUT","url":"Patient/2ae5d974-9013-4a36-b42a-2afc07de1847"}},{"fullUrl":"Condition/51739a36-259a-4e5e-86ee-f902fd552452","resource":{"resourceType":"Condition","id":"51739a36-259a-4e5e-86ee-f902fd552452","meta":{"profile":["http://hl7.org/fhir/us/qicore/StructureDefinition/qicore-condition-encounter-diagnosis"]},"clinicalStatus":{"coding":[{"system":"http://terminology.hl7.org/CodeSystem/condition-clinical","code":"active","display":"Active"}]},"verificationStatus":{"coding":[{"system":"http://terminology.hl7.org/CodeSystem/condition-ver-status","code":"confirmed","display":"Confirmed"}]},"code":{"coding":[{"system":"http://hl7.org/fhir/sid/icd-10-cm","code":"S37.061A","display":"Major laceration of right kidney, initial encounter"}],"text":"Major laceration of right kidney, initial encounter"},"subject":{"reference":"Patient/2ae5d974-9013-4a36-b42a-2afc07de1847"},"encounter":{"reference":"Encounter/e3c5fd93-dbf7-4ade-8ebb-e458d0cbdefd"}},"request":{"method":"PUT","url":"Condition/51739a36-259a-4e5e-86ee-f902fd552452"}},{"fullUrl":"Bundle/tests-RVwithHeartRate","resource":{"resourceType":"Bundle","id":"tests-RVwithHeartRate","type":"transaction","entry":[{"fullUrl":"https://madie.cms.gov/Patient/2ae5d974-9013-4a36-b42a-2afc07de1847","resource":{"resourceType":"Patient","id":"2ae5d974-9013-4a36-b42a-2afc07de1847","meta":{"profile":["http://hl7.org/fhir/us/qicore/StructureDefinition/qicore-patient"]},"extension":[{"url":"http://hl7.org/fhir/us/core/StructureDefinition/us-core-race","extension":[{"url":"ombCategory","valueCoding":{"system":"urn:oid:2.16.840.1.113883.6.238","code":"1002-5","display":"American Indian or Alaska Native","userSelected":true}},{"url":"text","valueString":"American Indian or Alaska Native"},{"url":"detailed","valueCoding":{"system":"urn:oid:2.16.840.1.113883.6.238","code":"1653-5","display":"Tohono O'Odham"}}]},{"url":"http://hl7.org/fhir/us/core/StructureDefinition/us-core-ethnicity","extension":[{"url":"ombCategory","valueCoding":{"system":"urn:oid:2.16.840.1.113883.6.238","code":"2135-2","display":"Hispanic or Latino","userSelected":true}},{"url":"text","valueString":"Not Hispanic or Latino"},{"url":"detailed","valueCoding":{"system":"urn:oid:2.16.840.1.113883.6.238","code":"2153-5","display":"Mexican American Indian"}}]},{"url":"http://hl7.org/fhir/us/core/StructureDefinition/us-core-sex","valueCode":"248153007"}],"identifier":[{"system":"http://hospital.smarthealthit.org","value":"999999999"}],"name":[{"family":"Example","given":["Patient"]}],"gender":"male","birthDate":"1975-01-01"},"request":{"method":"PUT","url":"Patient/2ae5d974-9013-4a36-b42a-2afc07de1847"}},{"fullUrl":"https://madie.cms.gov/Encounter/3604e1c8-d64e-41cd-b31e-4ed7a0aa6316","resource":{"resourceType":"Encounter","id":"3604e1c8-d64e-41cd-b31e-4ed7a0aa6316","meta":{"profile":["http://hl7.org/fhir/us/qicore/StructureDefinition/qicore-encounter"]},"status":"finished","class":{"system":"http://terminology.hl7.org/CodeSystem/v3-ActCode","code":"EMER","display":"emergency"},"type":[{"coding":[{"system":"http://snomed.info/sct","code":"4525004","display":"Emergency department patient visit (procedure)"}]}],"subject":{"reference":"Patient/2ae5d974-9013-4a36-b42a-2afc07de1847"},"period":{"start":"2026-09-29T08:00:00.000+00:00","end":"2026-09-29T20:00:00.000+00:00"}},"request":{"method":"PUT","url":"Encounter/3604e1c8-d64e-41cd-b31e-4ed7a0aa6316"}},{"fullUrl":"https://madie.cms.gov/Encounter/e3c5fd93-dbf7-4ade-8ebb-e458d0cbdefd","resource":{"resourceType":"Encounter","id":"e3c5fd93-dbf7-4ade-8ebb-e458d0cbdefd","meta":{"profile":["http://hl7.org/fhir/us/qicore/StructureDefinition/qicore-encounter"]},"status":"finished","class":{"system":"http://terminology.hl7.org/CodeSystem/v3-ActCode","code":"IMP","display":"inpatient encounter"},"type":[{"coding":[{"system":"http://snomed.info/sct","code":"183452005","display":"Emergency hospital admission (procedure)"}]}],"subject":{"reference":"Patient/2ae5d974-9013-4a36-b42a-2afc07de1847"},"period":{"start":"2026-09-29T20:01:00.000+00:00","end":"2026-10-03T20:00:00.000+00:00"},"reasonReference":[{"reference":"Condition/51739a36-259a-4e5e-86ee-f902fd552452"}]},"request":{"method":"PUT","url":"Encounter/e3c5fd93-dbf7-4ade-8ebb-e458d0cbdefd"}},{"fullUrl":"https://madie.cms.gov/Observation/1fe4d69a-a674-41a2-b831-f8e4767b0feb","resource":{"resourceType":"Observation","id":"1fe4d69a-a674-41a2-b831-f8e4767b0feb","meta":{"profile":["http://hl7.org/fhir/us/qicore/StructureDefinition/qicore-observation-lab"]},"status":"final","category":[{"coding":[{"system":"http://terminology.hl7.org/CodeSystem/observation-category","code":"laboratory","display":"Laboratory"}]}],"code":{"coding":[{"system":"http://loinc.org","code":"21232-4","display":"Creatinine [Mass/volume] in Serum or Plasma"}]},"subject":{"reference":"Patient/2ae5d974-9013-4a36-b42a-2afc07de1847"},"effectiveDateTime":"2026-10-01T08:01:00.000+00:00","valueQuantity":{"value":0.9,"unit":"mg/dL","system":"http://unitsofmeasure.org","code":"mg/dL"}},"request":{"method":"PUT","url":"Observation/1fe4d69a-a674-41a2-b831-f8e4767b0feb"}},{"fullUrl":"https://madie.cms.gov/Observation/75bf3f8e-7c65-47fb-b83a-0623fcdb67c0","resource":{"resourceType":"Observation","id":"75bf3f8e-7c65-47fb-b83a-0623fcdb67c0","meta":{"profile":["http://hl7.org/fhir/us/qicore/StructureDefinition/qicore-observation-lab"]},"status":"final","category":[{"coding":[{"system":"http://terminology.hl7.org/CodeSystem/observation-category","code":"laboratory","display":"Laboratory"}]}],"code":{"coding":[{"system":"http://loinc.org","code":"21232-4","display":"Creatinine [Mass/volume] in Serum or Plasma"}]},"subject":{"reference":"Patient/2ae5d974-9013-4a36-b42a-2afc07de1847"},"effectiveDateTime":"2026-10-01T07:00:00.000+00:00","valueQuantity":{"value":0.91,"unit":"mg/dL","system":"http://unitsofmeasure.org","code":"mg/dL"}},"request":{"method":"PUT","url":"Observation/75bf3f8e-7c65-47fb-b83a-0623fcdb67c0"}},{"fullUrl":"https://madie.cms.gov/Condition/51739a36-259a-4e5e-86ee-f902fd552452","resource":{"resourceType":"Condition","id":"51739a36-259a-4e5e-86ee-f902fd552452","meta":{"profile":["http://hl7.org/fhir/us/qicore/StructureDefinition/qicore-condition-encounter-diagnosis"]},"clinicalStatus":{"coding":[{"system":"http://terminology.hl7.org/CodeSystem/condition-clinical","code":"active","display":"Active"}]},"verificationStatus":{"coding":[{"system":"http://terminology.hl7.org/CodeSystem/condition-ver-status","code":"confirmed","display":"Confirmed"}]},"code":{"coding":[{"system":"http://hl7.org/fhir/sid/icd-10-cm","code":"S37.061A","display":"Major laceration of right kidney, initial encounter"}],"text":"Major laceration of right kidney, initial encounter"},"subject":{"reference":"Patient/2ae5d974-9013-4a36-b42a-2afc07de1847"},"encounter":{"reference":"Encounter/e3c5fd93-dbf7-4ade-8ebb-e458d0cbdefd"}},"request":{"method":"PUT","url":"Condition/51739a36-259a-4e5e-86ee-f902fd552452"}},{"fullUrl":"https://madie.cms.gov/Observation/7416bd63-6613-46a4-90ea-8cfd8d831877","resource":{"resourceType":"Observation","id":"7416bd63-6613-46a4-90ea-8cfd8d831877","meta":{"profile":["http://hl7.org/fhir/us/qicore/StructureDefinition/qicore-observation-lab"]},"status":"final","category":[{"coding":[{"system":"http://terminology.hl7.org/CodeSystem/observation-category","code":"laboratory","display":"Laboratory"}]}],"code":{"coding":[{"system":"http://loinc.org","code":"21232-4","display":"Creatinine [Mass/volume] in Serum or Plasma"}]},"subject":{"reference":"Patient/2ae5d974-9013-4a36-b42a-2afc07de1847"},"effectiveDateTime":"2026-10-01T07:35:00.000+00:00","valueQuantity":{"value":0.91,"unit":"mg/dL","system":"http://unitsofmeasure.org","code":"mg/dL"}},"request":{"method":"PUT","url":"Observation/7416bd63-6613-46a4-90ea-8cfd8d831877"}},{"fullUrl":"https://madie.cms.gov/Observation/efedfbb8-eed9-49ad-8ffd-0d724c022861","resource":{"resourceType":"Observation","id":"efedfbb8-eed9-49ad-8ffd-0d724c022861","meta":{"profile":["http://hl7.org/fhir/us/core/StructureDefinition/us-core-heart-rate"]},"status":"final","category":[{"coding":[{"system":"http://terminology.hl7.org/CodeSystem/observation-category","code":"vital-signs","display":"Vital Signs"}]}],"code":{"coding":[{"system":"http://loinc.org","code":"8867-4","display":"Heart rate"}],"text":"Heart rate"},"subject":{"reference":"Patient/2ae5d974-9013-4a36-b42a-2afc07de1847"},"effectiveDateTime":"2026-10-01T09:10:00.000+00:00","valueQuantity":{"value":76,"unit":"beats/minute","system":"http://unitsofmeasure.org","code":"/min"}},"request":{"method":"PUT","url":"Observation/efedfbb8-eed9-49ad-8ffd-0d724c022861"}},{"fullUrl":"https://madie.cms.gov/Observation/46bcc084-7b20-4768-8a3f-fefd9c2f7911","resource":{"resourceType":"Observation","id":"46bcc084-7b20-4768-8a3f-fefd9c2f7911","meta":{"profile":["http://hl7.org/fhir/us/core/StructureDefinition/us-core-body-temperature"]},"status":"final","category":[{"coding":[{"system":"http://terminology.hl7.org/CodeSystem/observation-category","code":"vital-signs","display":"Vital Signs"}]}],"code":{"coding":[{"system":"http://loinc.org","code":"8310-5","display":"Body temperature"}],"text":"Body temperature"},"subject":{"reference":"Patient/2ae5d974-9013-4a36-b42a-2afc07de1847"},"encounter":{"reference":"Encounter/e3c5fd93-dbf7-4ade-8ebb-e458d0cbdefd"},"effectiveDateTime":"2026-10-01T08:30:00.000+00:00","valueQuantity":{"value":98.6}},"request":{"method":"PUT","url":"Observation/46bcc084-7b20-4768-8a3f-fefd9c2f7911"}},{"fullUrl":"https://madie.cms.gov/MeasureReport/5ad01165-93db-4aa3-86f0-e5e085da5aa8","resource":{"resourceType":"MeasureReport","id":"5ad01165-93db-4aa3-86f0-e5e085da5aa8","meta":{"profile":["http://hl7.org/fhir/us/cqfmeasures/StructureDefinition/test-case-cqfm"]},"contained":[{"resourceType":"Parameters","id":"32484dfb-83ea-4c0d-82c4-f5d417db7000-parameters","parameter":[{"name":"subject","valueString":"2ae5d974-9013-4a36-b42a-2afc07de1847"}]}],"extension":[{"url":"http://hl7.org/fhir/StructureDefinition/cqf-inputParameters","valueReference":{"reference":"#32484dfb-83ea-4c0d-82c4-f5d417db7000-parameters"}},{"url":"http://hl7.org/fhir/us/cqfmeasures/StructureDefinition/cqfm-testCaseDescription","valueMarkdown":"RV Encounters that return the first Heart Rate"}],"modifierExtension":[{"url":"http://hl7.org/fhir/us/cqfmeasures/StructureDefinition/cqfm-isTestCase","valueBoolean":true}],"status":"complete","type":"individual","measure":"https://madie.cms.gov/Measure/CMS832HHAKIFHIR","period":{"start":"2026-01-01","end":"2026-12-31"},"group":[{"id":"Group_1","population":[{"id":"InitialPopulation_1","code":{"coding":[{"system":"http://terminology.hl7.org/CodeSystem/measure-population","code":"initial-population","display":"Initial Population"}]},"count":1},{"id":"Denominator_1","code":{"coding":[{"system":"http://terminology.hl7.org/CodeSystem/measure-population","code":"denominator","display":"Denominator"}]},"count":1},{"id":"DenominatorExclusion_1","code":{"coding":[{"system":"http://terminology.hl7.org/CodeSystem/measure-population","code":"denominator-exclusion","display":"Denominator Exclusion"}]},"count":1},{"id":"Numerator_1","code":{"coding":[{"system":"http://terminology.hl7.org/CodeSystem/measure-population","code":"numerator","display":"Numerator"}]},"count":0}],"measureScore":{"value":0.0}}],"evaluatedResource":[{"reference":"Patient/2ae5d974-9013-4a36-b42a-2afc07de1847"},{"reference":"Encounter/3604e1c8-d64e-41cd-b31e-4ed7a0aa6316"},{"reference":"Encounter/e3c5fd93-dbf7-4ade-8ebb-e458d0cbdefd"},{"reference":"Observation/1fe4d69a-a674-41a2-b831-f8e4767b0feb"},{"reference":"Observation/75bf3f8e-7c65-47fb-b83a-0623fcdb67c0"},{"reference":"Condition/51739a36-259a-4e5e-86ee-f902fd552452"},{"reference":"Observation/7416bd63-6613-46a4-90ea-8cfd8d831877"},{"reference":"Observation/efedfbb8-eed9-49ad-8ffd-0d724c022861"},{"reference":"Observation/46bcc084-7b20-4768-8a3f-fefd9c2f7911"}]},"request":{"method":"PUT","url":"MeasureReport/5ad01165-93db-4aa3-86f0-e5e085da5aa8"}}]},"request":{"method":"PUT","url":"Bundle/tests-RVwithHeartRate"}},{"fullUrl":"Observation/7416bd63-6613-46a4-90ea-8cfd8d831877","resource":{"resourceType":"Observation","id":"7416bd63-6613-46a4-90ea-8cfd8d831877","meta":{"profile":["http://hl7.org/fhir/us/qicore/StructureDefinition/qicore-observation-lab"]},"status":"final","category":[{"coding":[{"system":"http://terminology.hl7.org/CodeSystem/observation-category","code":"laboratory","display":"Laboratory"}]}],"code":{"coding":[{"system":"http://loinc.org","code":"21232-4","display":"Creatinine [Mass/volume] in Serum or Plasma"}]},"subject":{"reference":"Patient/2ae5d974-9013-4a36-b42a-2afc07de1847"},"effectiveDateTime":"2026-10-01T07:35:00.000+00:00","valueQuantity":{"value":0.91,"unit":"mg/dL","system":"http://unitsofmeasure.org","code":"mg/dL"}},"request":{"method":"PUT","url":"Observation/7416bd63-6613-46a4-90ea-8cfd8d831877"}},{"fullUrl":"Encounter/e3c5fd93-dbf7-4ade-8ebb-e458d0cbdefd","resource":{"resourceType":"Encounter","id":"e3c5fd93-dbf7-4ade-8ebb-e458d0cbdefd","meta":{"profile":["http://hl7.org/fhir/us/qicore/StructureDefinition/qicore-encounter"]},"status":"finished","class":{"system":"http://terminology.hl7.org/CodeSystem/v3-ActCode","code":"IMP","display":"inpatient encounter"},"type":[{"coding":[{"system":"http://snomed.info/sct","code":"183452005","display":"Emergency hospital admission (procedure)"}]}],"subject":{"reference":"Patient/2ae5d974-9013-4a36-b42a-2afc07de1847"},"period":{"start":"2026-09-29T20:01:00.000+00:00","end":"2026-10-03T20:00:00.000+00:00"},"reasonReference":[{"reference":"Condition/51739a36-259a-4e5e-86ee-f902fd552452"}]},"request":{"method":"PUT","url":"Encounter/e3c5fd93-dbf7-4ade-8ebb-e458d0cbdefd"}},{"fullUrl":"Observation/46bcc084-7b20-4768-8a3f-fefd9c2f7911","resource":{"resourceType":"Observation","id":"46bcc084-7b20-4768-8a3f-fefd9c2f7911","meta":{"profile":["http://hl7.org/fhir/us/core/StructureDefinition/us-core-body-temperature"]},"status":"final","category":[{"coding":[{"system":"http://terminology.hl7.org/CodeSystem/observation-category","code":"vital-signs","display":"Vital Signs"}]}],"code":{"coding":[{"system":"http://loinc.org","code":"8310-5","display":"Body temperature"}],"text":"Body temperature"},"subject":{"reference":"Patient/2ae5d974-9013-4a36-b42a-2afc07de1847"},"encounter":{"reference":"Encounter/e3c5fd93-dbf7-4ade-8ebb-e458d0cbdefd"},"effectiveDateTime":"2026-10-01T08:30:00.000+00:00","valueQuantity":{"value":98.6}},"request":{"method":"PUT","url":"Observation/46bcc084-7b20-4768-8a3f-fefd9c2f7911"}},{"fullUrl":"Observation/75bf3f8e-7c65-47fb-b83a-0623fcdb67c0","resource":{"resourceType":"Observation","id":"75bf3f8e-7c65-47fb-b83a-0623fcdb67c0","meta":{"profile":["http://hl7.org/fhir/us/qicore/StructureDefinition/qicore-observation-lab"]},"status":"final","category":[{"coding":[{"system":"http://terminology.hl7.org/CodeSystem/observation-category","code":"laboratory","display":"Laboratory"}]}],"code":{"coding":[{"system":"http://loinc.org","code":"21232-4","display":"Creatinine [Mass/volume] in Serum or Plasma"}]},"subject":{"reference":"Patient/2ae5d974-9013-4a36-b42a-2afc07de1847"},"effectiveDateTime":"2026-10-01T07:00:00.000+00:00","valueQuantity":{"value":0.91,"unit":"mg/dL","system":"http://unitsofmeasure.org","code":"mg/dL"}},"request":{"method":"PUT","url":"Observation/75bf3f8e-7c65-47fb-b83a-0623fcdb67c0"}}]}