{"resourceType":"Bundle","id":"tests-143372f5-cf0d-420f-a55c-63e0c74e8013-bundle","type":"transaction","entry":[{"fullUrl":"Bundle/tests-143372f5-cf0d-420f-a55c-63e0c74e8013-bundle","resource":{"resourceType":"Bundle","id":"tests-143372f5-cf0d-420f-a55c-63e0c74e8013-bundle","type":"transaction","entry":[{"fullUrl":"https://madie.cms.gov/Coverage/1eda69bd-700a-4ea3-bd76-e8a21099e42e","resource":{"resourceType":"Coverage","id":"1eda69bd-700a-4ea3-bd76-e8a21099e42e","meta":{"profile":["http://hl7.org/fhir/us/qicore/StructureDefinition/qicore-coverage"]},"status":"active","type":{"coding":[{"system":"https://nahdo.org/sopt","version":"9.2","code":"512","display":"Commercial Managed Care - PPO"}]},"beneficiary":{"reference":"Patient/143372f5-cf0d-420f-a55c-63e0c74e8013"},"period":{"start":"2024-12-01T00:00:00.000+00:00"},"payor":[{"reference":"Organization/475eb217-1fc0-4cd6-a608-9e0b632ba9a5"}]},"request":{"method":"PUT","url":"Coverage/1eda69bd-700a-4ea3-bd76-e8a21099e42e"}},{"fullUrl":"https://madie.cms.gov/Observation/da422a11-649a-4137-abcb-eae0355abe9a","resource":{"resourceType":"Observation","id":"da422a11-649a-4137-abcb-eae0355abe9a","meta":{"profile":["http://hl7.org/fhir/us/qicore/StructureDefinition/qicore-observation-lab"]},"status":"final","category":[{"coding":[{"system":"http://terminology.hl7.org/CodeSystem/observation-category","code":"laboratory","display":"Laboratory"}]}],"code":{"coding":[{"system":"http://loinc.org","version":"2.72","code":"2160-0","display":"Creatinine [Mass/volume] in Serum or Plasma","userSelected":true}]},"subject":{"reference":"Patient/143372f5-cf0d-420f-a55c-63e0c74e8013"},"effectiveDateTime":"2026-10-01T07:50:00.000+00:00","issued":"2026-10-01T08:20:00.000+00:00","valueQuantity":{"value":0.6,"unit":"mg/dL","system":"http://unitsofmeasure.org","code":"mg/dL"}},"request":{"method":"PUT","url":"Observation/da422a11-649a-4137-abcb-eae0355abe9a"}},{"fullUrl":"https://madie.cms.gov/Patient/143372f5-cf0d-420f-a55c-63e0c74e8013","resource":{"resourceType":"Patient","id":"143372f5-cf0d-420f-a55c-63e0c74e8013","meta":{"profile":["http://hl7.org/fhir/us/qicore/StructureDefinition/qicore-patient"]},"text":{"status":"generated","div":"<div xmlns=\"http://www.w3.org/1999/xhtml\"><div class=\"hapiHeaderText\">Age17InpatientHospStartTime <b>IPPFail </b></div><table class=\"hapiPropertyTable\"><tbody><tr><td>Identifier</td><td>f0eda1c9668fdacdcad3378589bf6e0a71e7dec1618f14fca4d442ec96e402b1</td></tr><tr><td>Date of birth</td><td><span>30 September 2006</span></td></tr></tbody></table></div>"},"extension":[{"url":"http://hl7.org/fhir/us/core/StructureDefinition/us-core-race","extension":[{"url":"ombCategory","valueCoding":{"system":"urn:oid:2.16.840.1.113883.6.238","code":"1002-5","display":"American Indian or Alaska Native","userSelected":true}},{"url":"text","valueString":"American Indian or Alaska Native"}]},{"url":"http://hl7.org/fhir/us/core/StructureDefinition/us-core-ethnicity","extension":[{"url":"ombCategory","valueCoding":{"system":"urn:oid:2.16.840.1.113883.6.238","code":"2135-2","display":"Hispanic or Latino","userSelected":true}},{"url":"text","valueString":"Hispanic or Latino"}]},{"url":"http://hl7.org/fhir/us/core/StructureDefinition/us-core-sex","valueCode":"248152002"}],"identifier":[{"type":{"coding":[{"system":"http://terminology.hl7.org/CodeSystem/v2-0203","code":"MR"}]},"system":"http://bonnie-fhir.healthit.gov/","value":"IPPFail-Age17InpatientHospStartTime"}],"active":true,"name":[{"use":"usual","family":"IPPFail","given":["Age17InpatientHospStartTime"]}],"gender":"female","birthDate":"2009-09-30"},"request":{"method":"PUT","url":"Patient/143372f5-cf0d-420f-a55c-63e0c74e8013"}},{"fullUrl":"https://madie.cms.gov/MedicationAdministration/ebcca89c-a7d7-4e77-88c4-492d16ea7ef6","resource":{"resourceType":"MedicationAdministration","id":"ebcca89c-a7d7-4e77-88c4-492d16ea7ef6","meta":{"profile":["http://hl7.org/fhir/us/qicore/StructureDefinition/qicore-medicationadministration"]},"status":"completed","medicationCodeableConcept":{"coding":[{"system":"http://www.nlm.nih.gov/research/umls/rxnorm","code":"1010600"}]},"subject":{"reference":"Patient/143372f5-cf0d-420f-a55c-63e0c74e8013"},"effectivePeriod":{"start":"2026-09-29T08:00:00.000+00:00","end":"2026-09-29T08:15:00.000+00:00"}},"request":{"method":"PUT","url":"MedicationAdministration/ebcca89c-a7d7-4e77-88c4-492d16ea7ef6"}},{"fullUrl":"https://madie.cms.gov/Encounter/36ef2d92-9db3-4631-9adf-6a1f14027c85","resource":{"resourceType":"Encounter","id":"36ef2d92-9db3-4631-9adf-6a1f14027c85","meta":{"profile":["http://hl7.org/fhir/us/qicore/StructureDefinition/qicore-encounter"]},"status":"finished","class":{"system":"http://terminology.hl7.org/CodeSystem/v3-ActCode","code":"EMER","display":"emergency"},"type":[{"coding":[{"system":"http://snomed.info/sct","code":"4525004"}]}],"subject":{"reference":"Patient/143372f5-cf0d-420f-a55c-63e0c74e8013"},"period":{"start":"2026-09-29T06:00:00.000+00:00","end":"2026-09-29T08:00:00.000+00:00"}},"request":{"method":"PUT","url":"Encounter/36ef2d92-9db3-4631-9adf-6a1f14027c85"}},{"fullUrl":"https://madie.cms.gov/Observation/12c4c779-93d4-4ed7-98d0-c17a007dae05","resource":{"resourceType":"Observation","id":"12c4c779-93d4-4ed7-98d0-c17a007dae05","meta":{"profile":["http://hl7.org/fhir/us/qicore/StructureDefinition/qicore-observation-lab"]},"status":"final","category":[{"coding":[{"system":"http://terminology.hl7.org/CodeSystem/observation-category","code":"laboratory","display":"Laboratory"}]}],"code":{"coding":[{"system":"http://loinc.org","code":"2160-0","display":"Creatinine [Mass/volume] in Serum or Plasma"}]},"subject":{"reference":"Patient/143372f5-cf0d-420f-a55c-63e0c74e8013"},"effectiveDateTime":"2026-09-29T07:59:00.000+00:00","issued":"2026-09-29T08:29:00.000+00:00","valueQuantity":{"value":0.8,"unit":"mg/dL","system":"http://unitsofmeasure.org","code":"mg/dL"}},"request":{"method":"PUT","url":"Observation/12c4c779-93d4-4ed7-98d0-c17a007dae05"}},{"fullUrl":"https://madie.cms.gov/Observation/2ebfc91b-6d63-42f5-91ee-0d8452901a0a","resource":{"resourceType":"Observation","id":"2ebfc91b-6d63-42f5-91ee-0d8452901a0a","meta":{"profile":["http://hl7.org/fhir/us/qicore/StructureDefinition/qicore-observation-lab"]},"status":"final","category":[{"coding":[{"system":"http://terminology.hl7.org/CodeSystem/observation-category","code":"laboratory","display":"Laboratory"}]}],"code":{"coding":[{"system":"http://loinc.org","version":"2.72","code":"2160-0","display":"Creatinine [Mass/volume] in Serum or Plasma","userSelected":true}]},"subject":{"reference":"Patient/143372f5-cf0d-420f-a55c-63e0c74e8013"},"effectiveDateTime":"2026-09-29T07:35:00.000+00:00","issued":"2026-09-29T08:05:00.000+00:00","valueQuantity":{"value":1.6,"unit":"mg/dL","system":"http://unitsofmeasure.org","code":"mg/dL"}},"request":{"method":"PUT","url":"Observation/2ebfc91b-6d63-42f5-91ee-0d8452901a0a"}},{"fullUrl":"https://madie.cms.gov/Encounter/5f1e4e75-663d-4326-a77d-a75715800cbe","resource":{"resourceType":"Encounter","id":"5f1e4e75-663d-4326-a77d-a75715800cbe","meta":{"profile":["http://hl7.org/fhir/us/qicore/StructureDefinition/qicore-encounter"]},"status":"finished","class":{"system":"http://terminology.hl7.org/CodeSystem/v3-ActCode","code":"IMP","display":"inpatient encounter"},"type":[{"coding":[{"system":"http://snomed.info/sct","code":"183452005"}]}],"subject":{"reference":"Patient/143372f5-cf0d-420f-a55c-63e0c74e8013"},"period":{"start":"2026-09-29T08:00:00.000+00:00","end":"2026-10-03T20:00:00.000+00:00"}},"request":{"method":"PUT","url":"Encounter/5f1e4e75-663d-4326-a77d-a75715800cbe"}},{"fullUrl":"https://madie.cms.gov/Observation/e8d51135-9cdf-421e-8d0c-bbdd65b77b39","resource":{"resourceType":"Observation","id":"e8d51135-9cdf-421e-8d0c-bbdd65b77b39","meta":{"profile":["http://hl7.org/fhir/us/qicore/StructureDefinition/qicore-observation-lab"]},"status":"final","category":[{"coding":[{"system":"http://terminology.hl7.org/CodeSystem/observation-category","code":"laboratory","display":"Laboratory"}]}],"code":{"coding":[{"system":"http://loinc.org","version":"2.72","code":"2160-0","display":"Creatinine [Mass/volume] in Serum or Plasma","userSelected":true}]},"subject":{"reference":"Patient/143372f5-cf0d-420f-a55c-63e0c74e8013"},"effectiveDateTime":"2026-09-29T08:01:00.000+00:00","issued":"2026-09-29T08:31:00.000+00:00","valueQuantity":{"value":1.1,"unit":"mg/dL","system":"http://unitsofmeasure.org","code":"mg/dL"}},"request":{"method":"PUT","url":"Observation/e8d51135-9cdf-421e-8d0c-bbdd65b77b39"}},{"fullUrl":"https://madie.cms.gov/Organization/475eb217-1fc0-4cd6-a608-9e0b632ba9a5","resource":{"resourceType":"Organization","id":"475eb217-1fc0-4cd6-a608-9e0b632ba9a5","meta":{"profile":["http://hl7.org/fhir/us/qicore/StructureDefinition/qicore-organization"]},"identifier":[{"use":"temp","system":"urn:oid:2.16.840.1.113883.4.4","value":"21-3259825"}],"active":true,"type":[{"coding":[{"system":"http://terminology.hl7.org/CodeSystem/organization-type","code":"pay","display":"Payer"}]}],"name":"Blue Cross Blue Shield of Texas","telecom":[{"system":"phone","value":"(+1) 972-766-6900"}],"address":[{"use":"billing","type":"postal","line":["P.O. Box 660044"],"city":"Dallas","state":"TX","postalCode":"75266-0044","country":"USA"}]},"request":{"method":"PUT","url":"Organization/475eb217-1fc0-4cd6-a608-9e0b632ba9a5"}},{"fullUrl":"https://madie.cms.gov/Observation/9bfbb723-fc3f-4aa8-bd91-116474a23dbe","resource":{"resourceType":"Observation","id":"9bfbb723-fc3f-4aa8-bd91-116474a23dbe","meta":{"profile":["http://hl7.org/fhir/us/qicore/StructureDefinition/qicore-observation-lab"]},"status":"final","category":[{"coding":[{"system":"http://terminology.hl7.org/CodeSystem/observation-category","code":"laboratory","display":"Laboratory"}]}],"code":{"coding":[{"system":"http://loinc.org","code":"2160-0","display":"Creatinine [Mass/volume] in Serum or Plasma"}]},"subject":{"reference":"Patient/143372f5-cf0d-420f-a55c-63e0c74e8013"},"effectiveDateTime":"2026-09-29T07:00:00.000+00:00","issued":"2026-09-29T07:30:00.000+00:00","valueQuantity":{"value":0.9,"unit":"mg/dL","system":"http://unitsofmeasure.org","code":"mg/dL"}},"request":{"method":"PUT","url":"Observation/9bfbb723-fc3f-4aa8-bd91-116474a23dbe"}},{"fullUrl":"https://madie.cms.gov/MeasureReport/2656010b-729a-42bb-97fd-14aa2937fc2c","resource":{"resourceType":"MeasureReport","id":"2656010b-729a-42bb-97fd-14aa2937fc2c","meta":{"profile":["http://hl7.org/fhir/us/cqfmeasures/StructureDefinition/test-case-cqfm"]},"contained":[{"resourceType":"Parameters","id":"6b052451-00cd-4bc5-bd3b-7344e2a03b19-parameters","parameter":[{"name":"subject","valueString":"143372f5-cf0d-420f-a55c-63e0c74e8013"}]}],"extension":[{"url":"http://hl7.org/fhir/StructureDefinition/cqf-inputParameters","valueReference":{"reference":"#6b052451-00cd-4bc5-bd3b-7344e2a03b19-parameters"}},{"url":"http://hl7.org/fhir/us/cqfmeasures/StructureDefinition/cqfm-testCaseDescription","valueMarkdown":"Not 18 on INPT admission\nVScode: Initial Population=[]"}],"modifierExtension":[{"url":"http://hl7.org/fhir/us/cqfmeasures/StructureDefinition/cqfm-isTestCase","valueBoolean":true}],"status":"complete","type":"individual","measure":"https://madie.cms.gov/Measure/CMS832HHAKIFHIR","period":{"start":"2026-01-01","end":"2026-12-31"},"group":[{"id":"Group_1","population":[{"id":"InitialPopulation_1","code":{"coding":[{"system":"http://terminology.hl7.org/CodeSystem/measure-population","code":"initial-population","display":"Initial Population"}]},"count":0},{"id":"Denominator_1","code":{"coding":[{"system":"http://terminology.hl7.org/CodeSystem/measure-population","code":"denominator","display":"Denominator"}]},"count":0},{"id":"DenominatorExclusion_1","code":{"coding":[{"system":"http://terminology.hl7.org/CodeSystem/measure-population","code":"denominator-exclusion","display":"Denominator Exclusion"}]},"count":0},{"id":"Numerator_1","code":{"coding":[{"system":"http://terminology.hl7.org/CodeSystem/measure-population","code":"numerator","display":"Numerator"}]},"count":0}],"measureScore":{"value":0.0}}],"evaluatedResource":[{"reference":"Coverage/1eda69bd-700a-4ea3-bd76-e8a21099e42e"},{"reference":"Observation/da422a11-649a-4137-abcb-eae0355abe9a"},{"reference":"Patient/143372f5-cf0d-420f-a55c-63e0c74e8013"},{"reference":"MedicationAdministration/ebcca89c-a7d7-4e77-88c4-492d16ea7ef6"},{"reference":"Encounter/36ef2d92-9db3-4631-9adf-6a1f14027c85"},{"reference":"Observation/12c4c779-93d4-4ed7-98d0-c17a007dae05"},{"reference":"Observation/2ebfc91b-6d63-42f5-91ee-0d8452901a0a"},{"reference":"Encounter/5f1e4e75-663d-4326-a77d-a75715800cbe"},{"reference":"Observation/e8d51135-9cdf-421e-8d0c-bbdd65b77b39"},{"reference":"Organization/475eb217-1fc0-4cd6-a608-9e0b632ba9a5"},{"reference":"Observation/9bfbb723-fc3f-4aa8-bd91-116474a23dbe"}]},"request":{"method":"PUT","url":"MeasureReport/2656010b-729a-42bb-97fd-14aa2937fc2c"}}]},"request":{"method":"PUT","url":"Bundle/tests-143372f5-cf0d-420f-a55c-63e0c74e8013-bundle"}},{"fullUrl":"Encounter/36ef2d92-9db3-4631-9adf-6a1f14027c85","resource":{"resourceType":"Encounter","id":"36ef2d92-9db3-4631-9adf-6a1f14027c85","meta":{"profile":["http://hl7.org/fhir/us/qicore/StructureDefinition/qicore-encounter"]},"status":"finished","class":{"system":"http://terminology.hl7.org/CodeSystem/v3-ActCode","code":"EMER","display":"emergency"},"type":[{"coding":[{"system":"http://snomed.info/sct","code":"4525004"}]}],"subject":{"reference":"Patient/143372f5-cf0d-420f-a55c-63e0c74e8013"},"period":{"start":"2026-09-29T06:00:00.000+00:00","end":"2026-09-29T08:00:00.000+00:00"}},"request":{"method":"PUT","url":"Encounter/36ef2d92-9db3-4631-9adf-6a1f14027c85"}},{"fullUrl":"MedicationAdministration/ebcca89c-a7d7-4e77-88c4-492d16ea7ef6","resource":{"resourceType":"MedicationAdministration","id":"ebcca89c-a7d7-4e77-88c4-492d16ea7ef6","meta":{"profile":["http://hl7.org/fhir/us/qicore/StructureDefinition/qicore-medicationadministration"]},"status":"completed","medicationCodeableConcept":{"coding":[{"system":"http://www.nlm.nih.gov/research/umls/rxnorm","code":"1010600"}]},"subject":{"reference":"Patient/143372f5-cf0d-420f-a55c-63e0c74e8013"},"effectivePeriod":{"start":"2026-09-29T08:00:00.000+00:00","end":"2026-09-29T08:15:00.000+00:00"}},"request":{"method":"PUT","url":"MedicationAdministration/ebcca89c-a7d7-4e77-88c4-492d16ea7ef6"}},{"fullUrl":"MeasureReport/2656010b-729a-42bb-97fd-14aa2937fc2c","resource":{"resourceType":"MeasureReport","id":"2656010b-729a-42bb-97fd-14aa2937fc2c","meta":{"profile":["http://hl7.org/fhir/us/cqfmeasures/StructureDefinition/test-case-cqfm"]},"contained":[{"resourceType":"Parameters","id":"6b052451-00cd-4bc5-bd3b-7344e2a03b19-parameters","parameter":[{"name":"subject","valueString":"143372f5-cf0d-420f-a55c-63e0c74e8013"}]}],"extension":[{"url":"http://hl7.org/fhir/StructureDefinition/cqf-inputParameters","valueReference":{"reference":"#6b052451-00cd-4bc5-bd3b-7344e2a03b19-parameters"}},{"url":"http://hl7.org/fhir/us/cqfmeasures/StructureDefinition/cqfm-testCaseDescription","valueMarkdown":"Not 18 on INPT admission\nVScode: Initial Population=[]"}],"modifierExtension":[{"url":"http://hl7.org/fhir/us/cqfmeasures/StructureDefinition/cqfm-isTestCase","valueBoolean":true}],"status":"complete","type":"individual","measure":"https://madie.cms.gov/Measure/CMS832HHAKIFHIR","period":{"start":"2026-01-01","end":"2026-12-31"},"group":[{"id":"Group_1","population":[{"id":"InitialPopulation_1","code":{"coding":[{"system":"http://terminology.hl7.org/CodeSystem/measure-population","code":"initial-population","display":"Initial Population"}]},"count":0},{"id":"Denominator_1","code":{"coding":[{"system":"http://terminology.hl7.org/CodeSystem/measure-population","code":"denominator","display":"Denominator"}]},"count":0},{"id":"DenominatorExclusion_1","code":{"coding":[{"system":"http://terminology.hl7.org/CodeSystem/measure-population","code":"denominator-exclusion","display":"Denominator Exclusion"}]},"count":0},{"id":"Numerator_1","code":{"coding":[{"system":"http://terminology.hl7.org/CodeSystem/measure-population","code":"numerator","display":"Numerator"}]},"count":0}],"measureScore":{"value":0.0}}],"evaluatedResource":[{"reference":"Coverage/1eda69bd-700a-4ea3-bd76-e8a21099e42e"},{"reference":"Observation/da422a11-649a-4137-abcb-eae0355abe9a"},{"reference":"Patient/143372f5-cf0d-420f-a55c-63e0c74e8013"},{"reference":"MedicationAdministration/ebcca89c-a7d7-4e77-88c4-492d16ea7ef6"},{"reference":"Encounter/36ef2d92-9db3-4631-9adf-6a1f14027c85"},{"reference":"Observation/12c4c779-93d4-4ed7-98d0-c17a007dae05"},{"reference":"Observation/2ebfc91b-6d63-42f5-91ee-0d8452901a0a"},{"reference":"Encounter/5f1e4e75-663d-4326-a77d-a75715800cbe"},{"reference":"Observation/e8d51135-9cdf-421e-8d0c-bbdd65b77b39"},{"reference":"Organization/475eb217-1fc0-4cd6-a608-9e0b632ba9a5"},{"reference":"Observation/9bfbb723-fc3f-4aa8-bd91-116474a23dbe"}]},"request":{"method":"PUT","url":"MeasureReport/2656010b-729a-42bb-97fd-14aa2937fc2c"}},{"fullUrl":"Observation/2ebfc91b-6d63-42f5-91ee-0d8452901a0a","resource":{"resourceType":"Observation","id":"2ebfc91b-6d63-42f5-91ee-0d8452901a0a","meta":{"profile":["http://hl7.org/fhir/us/qicore/StructureDefinition/qicore-observation-lab"]},"status":"final","category":[{"coding":[{"system":"http://terminology.hl7.org/CodeSystem/observation-category","code":"laboratory","display":"Laboratory"}]}],"code":{"coding":[{"system":"http://loinc.org","version":"2.72","code":"2160-0","display":"Creatinine [Mass/volume] in Serum or Plasma","userSelected":true}]},"subject":{"reference":"Patient/143372f5-cf0d-420f-a55c-63e0c74e8013"},"effectiveDateTime":"2026-09-29T07:35:00.000+00:00","issued":"2026-09-29T08:05:00.000+00:00","valueQuantity":{"value":1.6,"unit":"mg/dL","system":"http://unitsofmeasure.org","code":"mg/dL"}},"request":{"method":"PUT","url":"Observation/2ebfc91b-6d63-42f5-91ee-0d8452901a0a"}},{"fullUrl":"Observation/da422a11-649a-4137-abcb-eae0355abe9a","resource":{"resourceType":"Observation","id":"da422a11-649a-4137-abcb-eae0355abe9a","meta":{"profile":["http://hl7.org/fhir/us/qicore/StructureDefinition/qicore-observation-lab"]},"status":"final","category":[{"coding":[{"system":"http://terminology.hl7.org/CodeSystem/observation-category","code":"laboratory","display":"Laboratory"}]}],"code":{"coding":[{"system":"http://loinc.org","version":"2.72","code":"2160-0","display":"Creatinine [Mass/volume] in Serum or Plasma","userSelected":true}]},"subject":{"reference":"Patient/143372f5-cf0d-420f-a55c-63e0c74e8013"},"effectiveDateTime":"2026-10-01T07:50:00.000+00:00","issued":"2026-10-01T08:20:00.000+00:00","valueQuantity":{"value":0.6,"unit":"mg/dL","system":"http://unitsofmeasure.org","code":"mg/dL"}},"request":{"method":"PUT","url":"Observation/da422a11-649a-4137-abcb-eae0355abe9a"}},{"fullUrl":"Patient/143372f5-cf0d-420f-a55c-63e0c74e8013","resource":{"resourceType":"Patient","id":"143372f5-cf0d-420f-a55c-63e0c74e8013","meta":{"profile":["http://hl7.org/fhir/us/qicore/StructureDefinition/qicore-patient"]},"text":{"status":"generated","div":"<div xmlns=\"http://www.w3.org/1999/xhtml\"><div class=\"hapiHeaderText\">Age17InpatientHospStartTime <b>IPPFail </b></div><table class=\"hapiPropertyTable\"><tbody><tr><td>Identifier</td><td>f0eda1c9668fdacdcad3378589bf6e0a71e7dec1618f14fca4d442ec96e402b1</td></tr><tr><td>Date of birth</td><td><span>30 September 2006</span></td></tr></tbody></table></div>"},"extension":[{"url":"http://hl7.org/fhir/us/core/StructureDefinition/us-core-race","extension":[{"url":"ombCategory","valueCoding":{"system":"urn:oid:2.16.840.1.113883.6.238","code":"1002-5","display":"American Indian or Alaska Native","userSelected":true}},{"url":"text","valueString":"American Indian or Alaska Native"}]},{"url":"http://hl7.org/fhir/us/core/StructureDefinition/us-core-ethnicity","extension":[{"url":"ombCategory","valueCoding":{"system":"urn:oid:2.16.840.1.113883.6.238","code":"2135-2","display":"Hispanic or Latino","userSelected":true}},{"url":"text","valueString":"Hispanic or Latino"}]},{"url":"http://hl7.org/fhir/us/core/StructureDefinition/us-core-sex","valueCode":"248152002"}],"identifier":[{"type":{"coding":[{"system":"http://terminology.hl7.org/CodeSystem/v2-0203","code":"MR"}]},"system":"http://bonnie-fhir.healthit.gov/","value":"IPPFail-Age17InpatientHospStartTime"}],"active":true,"name":[{"use":"usual","family":"IPPFail","given":["Age17InpatientHospStartTime"]}],"gender":"female","birthDate":"2009-09-30"},"request":{"method":"PUT","url":"Patient/143372f5-cf0d-420f-a55c-63e0c74e8013"}},{"fullUrl":"Coverage/1eda69bd-700a-4ea3-bd76-e8a21099e42e","resource":{"resourceType":"Coverage","id":"1eda69bd-700a-4ea3-bd76-e8a21099e42e","meta":{"profile":["http://hl7.org/fhir/us/qicore/StructureDefinition/qicore-coverage"]},"status":"active","type":{"coding":[{"system":"https://nahdo.org/sopt","version":"9.2","code":"512","display":"Commercial Managed Care - PPO"}]},"beneficiary":{"reference":"Patient/143372f5-cf0d-420f-a55c-63e0c74e8013"},"period":{"start":"2024-12-01T00:00:00.000+00:00"},"payor":[{"reference":"Organization/475eb217-1fc0-4cd6-a608-9e0b632ba9a5"}]},"request":{"method":"PUT","url":"Coverage/1eda69bd-700a-4ea3-bd76-e8a21099e42e"}},{"fullUrl":"Encounter/5f1e4e75-663d-4326-a77d-a75715800cbe","resource":{"resourceType":"Encounter","id":"5f1e4e75-663d-4326-a77d-a75715800cbe","meta":{"profile":["http://hl7.org/fhir/us/qicore/StructureDefinition/qicore-encounter"]},"status":"finished","class":{"system":"http://terminology.hl7.org/CodeSystem/v3-ActCode","code":"IMP","display":"inpatient encounter"},"type":[{"coding":[{"system":"http://snomed.info/sct","code":"183452005"}]}],"subject":{"reference":"Patient/143372f5-cf0d-420f-a55c-63e0c74e8013"},"period":{"start":"2026-09-29T08:00:00.000+00:00","end":"2026-10-03T20:00:00.000+00:00"}},"request":{"method":"PUT","url":"Encounter/5f1e4e75-663d-4326-a77d-a75715800cbe"}},{"fullUrl":"Organization/475eb217-1fc0-4cd6-a608-9e0b632ba9a5","resource":{"resourceType":"Organization","id":"475eb217-1fc0-4cd6-a608-9e0b632ba9a5","meta":{"profile":["http://hl7.org/fhir/us/qicore/StructureDefinition/qicore-organization"]},"identifier":[{"use":"temp","system":"urn:oid:2.16.840.1.113883.4.4","value":"21-3259825"}],"active":true,"type":[{"coding":[{"system":"http://terminology.hl7.org/CodeSystem/organization-type","code":"pay","display":"Payer"}]}],"name":"Blue Cross Blue Shield of Texas","telecom":[{"system":"phone","value":"(+1) 972-766-6900"}],"address":[{"use":"billing","type":"postal","line":["P.O. Box 660044"],"city":"Dallas","state":"TX","postalCode":"75266-0044","country":"USA"}]},"request":{"method":"PUT","url":"Organization/475eb217-1fc0-4cd6-a608-9e0b632ba9a5"}},{"fullUrl":"Observation/12c4c779-93d4-4ed7-98d0-c17a007dae05","resource":{"resourceType":"Observation","id":"12c4c779-93d4-4ed7-98d0-c17a007dae05","meta":{"profile":["http://hl7.org/fhir/us/qicore/StructureDefinition/qicore-observation-lab"]},"status":"final","category":[{"coding":[{"system":"http://terminology.hl7.org/CodeSystem/observation-category","code":"laboratory","display":"Laboratory"}]}],"code":{"coding":[{"system":"http://loinc.org","code":"2160-0","display":"Creatinine [Mass/volume] in Serum or Plasma"}]},"subject":{"reference":"Patient/143372f5-cf0d-420f-a55c-63e0c74e8013"},"effectiveDateTime":"2026-09-29T07:59:00.000+00:00","issued":"2026-09-29T08:29:00.000+00:00","valueQuantity":{"value":0.8,"unit":"mg/dL","system":"http://unitsofmeasure.org","code":"mg/dL"}},"request":{"method":"PUT","url":"Observation/12c4c779-93d4-4ed7-98d0-c17a007dae05"}},{"fullUrl":"Observation/9bfbb723-fc3f-4aa8-bd91-116474a23dbe","resource":{"resourceType":"Observation","id":"9bfbb723-fc3f-4aa8-bd91-116474a23dbe","meta":{"profile":["http://hl7.org/fhir/us/qicore/StructureDefinition/qicore-observation-lab"]},"status":"final","category":[{"coding":[{"system":"http://terminology.hl7.org/CodeSystem/observation-category","code":"laboratory","display":"Laboratory"}]}],"code":{"coding":[{"system":"http://loinc.org","code":"2160-0","display":"Creatinine [Mass/volume] in Serum or Plasma"}]},"subject":{"reference":"Patient/143372f5-cf0d-420f-a55c-63e0c74e8013"},"effectiveDateTime":"2026-09-29T07:00:00.000+00:00","issued":"2026-09-29T07:30:00.000+00:00","valueQuantity":{"value":0.9,"unit":"mg/dL","system":"http://unitsofmeasure.org","code":"mg/dL"}},"request":{"method":"PUT","url":"Observation/9bfbb723-fc3f-4aa8-bd91-116474a23dbe"}},{"fullUrl":"Observation/e8d51135-9cdf-421e-8d0c-bbdd65b77b39","resource":{"resourceType":"Observation","id":"e8d51135-9cdf-421e-8d0c-bbdd65b77b39","meta":{"profile":["http://hl7.org/fhir/us/qicore/StructureDefinition/qicore-observation-lab"]},"status":"final","category":[{"coding":[{"system":"http://terminology.hl7.org/CodeSystem/observation-category","code":"laboratory","display":"Laboratory"}]}],"code":{"coding":[{"system":"http://loinc.org","version":"2.72","code":"2160-0","display":"Creatinine [Mass/volume] in Serum or Plasma","userSelected":true}]},"subject":{"reference":"Patient/143372f5-cf0d-420f-a55c-63e0c74e8013"},"effectiveDateTime":"2026-09-29T08:01:00.000+00:00","issued":"2026-09-29T08:31:00.000+00:00","valueQuantity":{"value":1.1,"unit":"mg/dL","system":"http://unitsofmeasure.org","code":"mg/dL"}},"request":{"method":"PUT","url":"Observation/e8d51135-9cdf-421e-8d0c-bbdd65b77b39"}}]}