{"resourceType":"Bundle","id":"tests-43bb9956-3d6a-4868-b7a8-3060cd095f4e-bundle","type":"transaction","entry":[{"resource":{"resourceType":"MeasureReport","id":"710f1197-bbbc-4dcf-a2ec-a1984df38ec0","meta":{"profile":["http://hl7.org/fhir/us/cqfmeasures/StructureDefinition/test-case-cqfm"]},"contained":[{"resourceType":"Parameters","id":"2c8fb085-bbe6-447c-a56b-62bc0318449d-parameters","parameter":[{"name":"subject","valueString":"43bb9956-3d6a-4868-b7a8-3060cd095f4e"}]}],"extension":[{"url":"http://hl7.org/fhir/StructureDefinition/cqf-inputParameters","valueReference":{"reference":"#2c8fb085-bbe6-447c-a56b-62bc0318449d-parameters"}},{"url":"http://hl7.org/fhir/us/cqfmeasures/StructureDefinition/cqfm-testCaseDescription","valueMarkdown":"Female Encounter with an eGFR calculation of 63. SCr is within first 24 hours. SCr must be < 60 within first 48 hours to meet denominator exclusion. Exclusion fails. "}],"modifierExtension":[{"url":"http://hl7.org/fhir/us/cqfmeasures/StructureDefinition/cqfm-isTestCase","valueBoolean":true}],"status":"complete","type":"individual","measure":"https://madie.cms.gov/Measure/CMS832HHAKIFHIR","period":{"start":"2026-01-01","end":"2026-12-31"},"group":[{"id":"Group_1","population":[{"id":"InitialPopulation_1","code":{"coding":[{"system":"http://terminology.hl7.org/CodeSystem/measure-population","code":"initial-population","display":"Initial Population"}]},"count":1},{"id":"Denominator_1","code":{"coding":[{"system":"http://terminology.hl7.org/CodeSystem/measure-population","code":"denominator","display":"Denominator"}]},"count":1},{"id":"DenominatorExclusion_1","code":{"coding":[{"system":"http://terminology.hl7.org/CodeSystem/measure-population","code":"denominator-exclusion","display":"Denominator Exclusion"}]},"count":0},{"id":"Numerator_1","code":{"coding":[{"system":"http://terminology.hl7.org/CodeSystem/measure-population","code":"numerator","display":"Numerator"}]},"count":0}],"measureScore":{"value":0.0}}],"evaluatedResource":[{"reference":"Patient/43bb9956-3d6a-4868-b7a8-3060cd095f4e"},{"reference":"Encounter/54dfb680-b873-45b3-8f25-6ad752065dcc"},{"reference":"Encounter/b88dcc83-6890-4f6b-8bdc-b1c7369e7c6c"},{"reference":"Observation/9b535418-5cec-4a70-948b-27796ad7fa15"},{"reference":"Observation/fdf4cd7f-0bd8-49e3-8cfe-e2faf5972d2e"},{"reference":"Observation/21efd317-4e92-4c09-a102-28f22d6fc0ec"}]},"request":{"method":"PUT","url":"MeasureReport/710f1197-bbbc-4dcf-a2ec-a1984df38ec0"}},{"resource":{"resourceType":"Observation","id":"9b535418-5cec-4a70-948b-27796ad7fa15","meta":{"profile":["http://hl7.org/fhir/us/qicore/StructureDefinition/qicore-observation-lab"]},"status":"final","category":[{"coding":[{"system":"http://terminology.hl7.org/CodeSystem/observation-category","code":"laboratory","display":"Laboratory"}]}],"code":{"coding":[{"system":"http://loinc.org","code":"21232-4","display":"Creatinine [Mass/volume] in Serum or Plasma"}]},"subject":{"reference":"Patient/43bb9956-3d6a-4868-b7a8-3060cd095f4e"},"effectiveDateTime":"2026-10-01T08:01:00.000+00:00","valueQuantity":{"value":1.14,"unit":"mg/dL","system":"http://unitsofmeasure.org","code":"mg/dL"}},"request":{"method":"PUT","url":"Observation/9b535418-5cec-4a70-948b-27796ad7fa15"}},{"resource":{"resourceType":"Observation","id":"fdf4cd7f-0bd8-49e3-8cfe-e2faf5972d2e","meta":{"profile":["http://hl7.org/fhir/us/qicore/StructureDefinition/qicore-observation-lab"]},"status":"final","category":[{"coding":[{"system":"http://terminology.hl7.org/CodeSystem/observation-category","code":"laboratory","display":"Laboratory"}]}],"code":{"coding":[{"system":"http://loinc.org","code":"21232-4","display":"Creatinine [Mass/volume] in Serum or Plasma"}]},"subject":{"reference":"Patient/43bb9956-3d6a-4868-b7a8-3060cd095f4e"},"effectiveDateTime":"2026-10-01T07:00:00.000+00:00","valueQuantity":{"value":0.9,"unit":"mg/dL","system":"http://unitsofmeasure.org","code":"mg/dL"}},"request":{"method":"PUT","url":"Observation/fdf4cd7f-0bd8-49e3-8cfe-e2faf5972d2e"}},{"resource":{"resourceType":"Patient","id":"43bb9956-3d6a-4868-b7a8-3060cd095f4e","meta":{"profile":["http://hl7.org/fhir/us/qicore/StructureDefinition/qicore-patient"]},"extension":[{"url":"http://hl7.org/fhir/us/core/StructureDefinition/us-core-race","extension":[{"url":"ombCategory","valueCoding":{"system":"urn:oid:2.16.840.1.113883.6.238","code":"2106-3","display":"White"}},{"url":"text","valueString":"White"}]},{"url":"http://hl7.org/fhir/us/core/StructureDefinition/us-core-ethnicity","extension":[{"url":"ombCategory","valueCoding":{"system":"urn:oid:2.16.840.1.113883.6.238","code":"2135-2","display":"Hispanic or Latino"}},{"url":"text","valueString":"Hispanic or Latino"}]},{"url":"http://hl7.org/fhir/us/core/StructureDefinition/us-core-sex","valueCode":"248153007"}],"identifier":[{"system":"http://hospital.smarthealthit.org","value":"999999999"}],"name":[{"family":"Example","given":["Patient"]}],"gender":"female","birthDate":"1975-01-01"},"request":{"method":"PUT","url":"Patient/43bb9956-3d6a-4868-b7a8-3060cd095f4e"}},{"resource":{"resourceType":"Encounter","id":"b88dcc83-6890-4f6b-8bdc-b1c7369e7c6c","meta":{"profile":["http://hl7.org/fhir/us/qicore/StructureDefinition/qicore-encounter"]},"status":"finished","class":{"system":"http://terminology.hl7.org/CodeSystem/v3-ActCode","code":"IMP","display":"inpatient encounter"},"type":[{"coding":[{"system":"http://snomed.info/sct","code":"183452005","display":"Emergency hospital admission (procedure)"}]}],"subject":{"reference":"Patient/43bb9956-3d6a-4868-b7a8-3060cd095f4e"},"period":{"start":"2026-09-29T20:01:00.000+00:00","end":"2026-10-03T20:00:00.000+00:00"}},"request":{"method":"PUT","url":"Encounter/b88dcc83-6890-4f6b-8bdc-b1c7369e7c6c"}},{"resource":{"resourceType":"Bundle","id":"tests-DENEXFail-FemaleEncountereGFR62","type":"transaction","entry":[{"fullUrl":"https://madie.cms.gov/Patient/43bb9956-3d6a-4868-b7a8-3060cd095f4e","resource":{"resourceType":"Patient","id":"43bb9956-3d6a-4868-b7a8-3060cd095f4e","meta":{"profile":["http://hl7.org/fhir/us/qicore/StructureDefinition/qicore-patient"]},"extension":[{"url":"http://hl7.org/fhir/us/core/StructureDefinition/us-core-race","extension":[{"url":"ombCategory","valueCoding":{"system":"urn:oid:2.16.840.1.113883.6.238","code":"2106-3","display":"White"}},{"url":"text","valueString":"White"}]},{"url":"http://hl7.org/fhir/us/core/StructureDefinition/us-core-ethnicity","extension":[{"url":"ombCategory","valueCoding":{"system":"urn:oid:2.16.840.1.113883.6.238","code":"2135-2","display":"Hispanic or Latino"}},{"url":"text","valueString":"Hispanic or Latino"}]},{"url":"http://hl7.org/fhir/us/core/StructureDefinition/us-core-sex","valueCode":"248153007"}],"identifier":[{"system":"http://hospital.smarthealthit.org","value":"999999999"}],"name":[{"family":"Example","given":["Patient"]}],"gender":"female","birthDate":"1975-01-01"},"request":{"method":"PUT","url":"Patient/43bb9956-3d6a-4868-b7a8-3060cd095f4e"}},{"fullUrl":"https://madie.cms.gov/Encounter/54dfb680-b873-45b3-8f25-6ad752065dcc","resource":{"resourceType":"Encounter","id":"54dfb680-b873-45b3-8f25-6ad752065dcc","meta":{"profile":["http://hl7.org/fhir/us/qicore/StructureDefinition/qicore-encounter"]},"status":"finished","class":{"system":"http://terminology.hl7.org/CodeSystem/v3-ActCode","code":"EMER","display":"emergency"},"type":[{"coding":[{"system":"http://snomed.info/sct","code":"4525004","display":"Emergency department patient visit (procedure)"}]}],"subject":{"reference":"Patient/43bb9956-3d6a-4868-b7a8-3060cd095f4e"},"period":{"start":"2026-09-29T08:00:00.000+00:00","end":"2026-09-29T20:00:00.000+00:00"}},"request":{"method":"PUT","url":"Encounter/54dfb680-b873-45b3-8f25-6ad752065dcc"}},{"fullUrl":"https://madie.cms.gov/Encounter/b88dcc83-6890-4f6b-8bdc-b1c7369e7c6c","resource":{"resourceType":"Encounter","id":"b88dcc83-6890-4f6b-8bdc-b1c7369e7c6c","meta":{"profile":["http://hl7.org/fhir/us/qicore/StructureDefinition/qicore-encounter"]},"status":"finished","class":{"system":"http://terminology.hl7.org/CodeSystem/v3-ActCode","code":"IMP","display":"inpatient encounter"},"type":[{"coding":[{"system":"http://snomed.info/sct","code":"183452005","display":"Emergency hospital admission (procedure)"}]}],"subject":{"reference":"Patient/43bb9956-3d6a-4868-b7a8-3060cd095f4e"},"period":{"start":"2026-09-29T20:01:00.000+00:00","end":"2026-10-03T20:00:00.000+00:00"}},"request":{"method":"PUT","url":"Encounter/b88dcc83-6890-4f6b-8bdc-b1c7369e7c6c"}},{"fullUrl":"https://madie.cms.gov/Observation/9b535418-5cec-4a70-948b-27796ad7fa15","resource":{"resourceType":"Observation","id":"9b535418-5cec-4a70-948b-27796ad7fa15","meta":{"profile":["http://hl7.org/fhir/us/qicore/StructureDefinition/qicore-observation-lab"]},"status":"final","category":[{"coding":[{"system":"http://terminology.hl7.org/CodeSystem/observation-category","code":"laboratory","display":"Laboratory"}]}],"code":{"coding":[{"system":"http://loinc.org","code":"21232-4","display":"Creatinine [Mass/volume] in Serum or Plasma"}]},"subject":{"reference":"Patient/43bb9956-3d6a-4868-b7a8-3060cd095f4e"},"effectiveDateTime":"2026-10-01T08:01:00.000+00:00","valueQuantity":{"value":1.14,"unit":"mg/dL","system":"http://unitsofmeasure.org","code":"mg/dL"}},"request":{"method":"PUT","url":"Observation/9b535418-5cec-4a70-948b-27796ad7fa15"}},{"fullUrl":"https://madie.cms.gov/Observation/fdf4cd7f-0bd8-49e3-8cfe-e2faf5972d2e","resource":{"resourceType":"Observation","id":"fdf4cd7f-0bd8-49e3-8cfe-e2faf5972d2e","meta":{"profile":["http://hl7.org/fhir/us/qicore/StructureDefinition/qicore-observation-lab"]},"status":"final","category":[{"coding":[{"system":"http://terminology.hl7.org/CodeSystem/observation-category","code":"laboratory","display":"Laboratory"}]}],"code":{"coding":[{"system":"http://loinc.org","code":"21232-4","display":"Creatinine [Mass/volume] in Serum or Plasma"}]},"subject":{"reference":"Patient/43bb9956-3d6a-4868-b7a8-3060cd095f4e"},"effectiveDateTime":"2026-10-01T07:00:00.000+00:00","valueQuantity":{"value":0.9,"unit":"mg/dL","system":"http://unitsofmeasure.org","code":"mg/dL"}},"request":{"method":"PUT","url":"Observation/fdf4cd7f-0bd8-49e3-8cfe-e2faf5972d2e"}},{"fullUrl":"https://madie.cms.gov/Observation/21efd317-4e92-4c09-a102-28f22d6fc0ec","resource":{"resourceType":"Observation","id":"21efd317-4e92-4c09-a102-28f22d6fc0ec","meta":{"profile":["http://hl7.org/fhir/us/qicore/StructureDefinition/qicore-observation-lab"]},"status":"final","category":[{"coding":[{"system":"http://terminology.hl7.org/CodeSystem/observation-category","code":"laboratory","display":"Laboratory"}]}],"code":{"coding":[{"system":"http://loinc.org","code":"21232-4","display":"Creatinine [Mass/volume] in Serum or Plasma"}]},"subject":{"reference":"Patient/43bb9956-3d6a-4868-b7a8-3060cd095f4e"},"effectiveDateTime":"2026-09-29T08:05:00.000+00:00","valueQuantity":{"value":1.12,"unit":"mg/dL","system":"http://unitsofmeasure.org","code":"mg/dL"}},"request":{"method":"PUT","url":"Observation/21efd317-4e92-4c09-a102-28f22d6fc0ec"}},{"fullUrl":"https://madie.cms.gov/MeasureReport/710f1197-bbbc-4dcf-a2ec-a1984df38ec0","resource":{"resourceType":"MeasureReport","id":"710f1197-bbbc-4dcf-a2ec-a1984df38ec0","meta":{"profile":["http://hl7.org/fhir/us/cqfmeasures/StructureDefinition/test-case-cqfm"]},"contained":[{"resourceType":"Parameters","id":"2c8fb085-bbe6-447c-a56b-62bc0318449d-parameters","parameter":[{"name":"subject","valueString":"43bb9956-3d6a-4868-b7a8-3060cd095f4e"}]}],"extension":[{"url":"http://hl7.org/fhir/StructureDefinition/cqf-inputParameters","valueReference":{"reference":"#2c8fb085-bbe6-447c-a56b-62bc0318449d-parameters"}},{"url":"http://hl7.org/fhir/us/cqfmeasures/StructureDefinition/cqfm-testCaseDescription","valueMarkdown":"Female Encounter with an eGFR calculation of 63. SCr is within first 24 hours. SCr must be < 60 within first 48 hours to meet denominator exclusion. Exclusion fails. "}],"modifierExtension":[{"url":"http://hl7.org/fhir/us/cqfmeasures/StructureDefinition/cqfm-isTestCase","valueBoolean":true}],"status":"complete","type":"individual","measure":"https://madie.cms.gov/Measure/CMS832HHAKIFHIR","period":{"start":"2026-01-01","end":"2026-12-31"},"group":[{"id":"Group_1","population":[{"id":"InitialPopulation_1","code":{"coding":[{"system":"http://terminology.hl7.org/CodeSystem/measure-population","code":"initial-population","display":"Initial Population"}]},"count":1},{"id":"Denominator_1","code":{"coding":[{"system":"http://terminology.hl7.org/CodeSystem/measure-population","code":"denominator","display":"Denominator"}]},"count":1},{"id":"DenominatorExclusion_1","code":{"coding":[{"system":"http://terminology.hl7.org/CodeSystem/measure-population","code":"denominator-exclusion","display":"Denominator Exclusion"}]},"count":0},{"id":"Numerator_1","code":{"coding":[{"system":"http://terminology.hl7.org/CodeSystem/measure-population","code":"numerator","display":"Numerator"}]},"count":0}],"measureScore":{"value":0.0}}],"evaluatedResource":[{"reference":"Patient/43bb9956-3d6a-4868-b7a8-3060cd095f4e"},{"reference":"Encounter/54dfb680-b873-45b3-8f25-6ad752065dcc"},{"reference":"Encounter/b88dcc83-6890-4f6b-8bdc-b1c7369e7c6c"},{"reference":"Observation/9b535418-5cec-4a70-948b-27796ad7fa15"},{"reference":"Observation/fdf4cd7f-0bd8-49e3-8cfe-e2faf5972d2e"},{"reference":"Observation/21efd317-4e92-4c09-a102-28f22d6fc0ec"}]},"request":{"method":"PUT","url":"MeasureReport/710f1197-bbbc-4dcf-a2ec-a1984df38ec0"}}]},"request":{"method":"PUT","url":"Bundle/tests-DENEXFail-FemaleEncountereGFR62"}},{"resource":{"resourceType":"Observation","id":"21efd317-4e92-4c09-a102-28f22d6fc0ec","meta":{"profile":["http://hl7.org/fhir/us/qicore/StructureDefinition/qicore-observation-lab"]},"status":"final","category":[{"coding":[{"system":"http://terminology.hl7.org/CodeSystem/observation-category","code":"laboratory","display":"Laboratory"}]}],"code":{"coding":[{"system":"http://loinc.org","code":"21232-4","display":"Creatinine [Mass/volume] in Serum or Plasma"}]},"subject":{"reference":"Patient/43bb9956-3d6a-4868-b7a8-3060cd095f4e"},"effectiveDateTime":"2026-09-29T08:05:00.000+00:00","valueQuantity":{"value":1.12,"unit":"mg/dL","system":"http://unitsofmeasure.org","code":"mg/dL"}},"request":{"method":"PUT","url":"Observation/21efd317-4e92-4c09-a102-28f22d6fc0ec"}},{"resource":{"resourceType":"Encounter","id":"54dfb680-b873-45b3-8f25-6ad752065dcc","meta":{"profile":["http://hl7.org/fhir/us/qicore/StructureDefinition/qicore-encounter"]},"status":"finished","class":{"system":"http://terminology.hl7.org/CodeSystem/v3-ActCode","code":"EMER","display":"emergency"},"type":[{"coding":[{"system":"http://snomed.info/sct","code":"4525004","display":"Emergency department patient visit (procedure)"}]}],"subject":{"reference":"Patient/43bb9956-3d6a-4868-b7a8-3060cd095f4e"},"period":{"start":"2026-09-29T08:00:00.000+00:00","end":"2026-09-29T20:00:00.000+00:00"}},"request":{"method":"PUT","url":"Encounter/54dfb680-b873-45b3-8f25-6ad752065dcc"}}]}