{"resourceType":"Bundle","id":"tests-7d065cf3-b345-4761-a9cb-1246372b933f-bundle","type":"transaction","entry":[{"resource":{"resourceType":"Observation","id":"bc73ee71-89d6-469e-86b6-8d77e8c7baa6","meta":{"profile":["http://hl7.org/fhir/us/qicore/StructureDefinition/qicore-observation-lab"]},"status":"final","category":[{"coding":[{"system":"http://terminology.hl7.org/CodeSystem/observation-category","code":"laboratory","display":"Laboratory"}]}],"code":{"coding":[{"system":"http://loinc.org","code":"2160-0","display":"Creatinine [Mass/volume] in Serum or Plasma"}]},"subject":{"reference":"Patient/7d065cf3-b345-4761-a9cb-1246372b933f"},"effectiveDateTime":"2026-10-05T08:00:00.000+00:00","issued":"2026-10-05T08:30:00.000+00:00","valueQuantity":{"value":1.9,"unit":"mg/dL","system":"http://unitsofmeasure.org","code":"mg/dL"}},"request":{"method":"PUT","url":"Observation/bc73ee71-89d6-469e-86b6-8d77e8c7baa6"}},{"resource":{"resourceType":"Coverage","id":"263c914f-fdb6-479c-95fe-b8c07a924817","meta":{"profile":["http://hl7.org/fhir/us/qicore/StructureDefinition/qicore-coverage"]},"status":"active","type":{"coding":[{"system":"https://nahdo.org/sopt","version":"9.2","code":"211","display":"Medicaid HMO"}]},"beneficiary":{"reference":"Patient/7d065cf3-b345-4761-a9cb-1246372b933f"},"period":{"start":"2024-12-01T00:00:00.000+00:00"},"payor":[{"reference":"Organization/85980312-596d-4e5d-b82b-6a4b297fb59a"}]},"request":{"method":"PUT","url":"Coverage/263c914f-fdb6-479c-95fe-b8c07a924817"}},{"resource":{"resourceType":"Observation","id":"d0f1ac3a-e8c8-4b2a-9744-324316e97300","meta":{"profile":["http://hl7.org/fhir/us/qicore/StructureDefinition/qicore-observation-lab"]},"status":"final","category":[{"coding":[{"system":"http://terminology.hl7.org/CodeSystem/observation-category","code":"laboratory","display":"Laboratory"}]}],"code":{"coding":[{"system":"http://loinc.org","version":"2.72","code":"2160-0","display":"Creatinine [Mass/volume] in Serum or Plasma","userSelected":true}]},"subject":{"reference":"Patient/7d065cf3-b345-4761-a9cb-1246372b933f"},"effectiveDateTime":"2026-09-30T09:00:00.000+00:00","issued":"2026-09-30T09:30:00.000+00:00","valueQuantity":{"value":1.1,"unit":"mg/dL","system":"http://unitsofmeasure.org","code":"mg/dL"}},"request":{"method":"PUT","url":"Observation/d0f1ac3a-e8c8-4b2a-9744-324316e97300"}},{"resource":{"resourceType":"Organization","id":"85980312-596d-4e5d-b82b-6a4b297fb59a","meta":{"profile":["http://hl7.org/fhir/us/qicore/StructureDefinition/qicore-organization"]},"identifier":[{"use":"temp","system":"urn:oid:2.16.840.1.113883.4.4","value":"21-3259825"}],"active":true,"type":[{"coding":[{"system":"http://terminology.hl7.org/CodeSystem/organization-type","code":"pay","display":"Payer"}]}],"name":"Blue Cross Blue Shield of Texas","telecom":[{"system":"phone","value":"(+1) 972-766-6900"}],"address":[{"use":"billing","type":"postal","line":["P.O. Box 660044"],"city":"Dallas","state":"TX","postalCode":"75266-0044","country":"USA"}]},"request":{"method":"PUT","url":"Organization/85980312-596d-4e5d-b82b-6a4b297fb59a"}},{"resource":{"resourceType":"Bundle","id":"tests-7d065cf3-b345-4761-a9cb-1246372b933f-bundle","type":"transaction","entry":[{"fullUrl":"https://madie.cms.gov/Observation/5d85c0c8-37d7-4e2f-909b-5d670016423c","resource":{"resourceType":"Observation","id":"5d85c0c8-37d7-4e2f-909b-5d670016423c","meta":{"profile":["http://hl7.org/fhir/us/qicore/StructureDefinition/qicore-observation-lab"]},"status":"final","category":[{"coding":[{"system":"http://terminology.hl7.org/CodeSystem/observation-category","code":"laboratory","display":"Laboratory"}]}],"code":{"coding":[{"system":"http://loinc.org","version":"2.72","code":"2160-0","display":"Creatinine [Mass/volume] in Serum or Plasma","userSelected":true}]},"subject":{"reference":"Patient/7d065cf3-b345-4761-a9cb-1246372b933f"},"effectiveDateTime":"2026-10-02T08:00:00.000+00:00","issued":"2026-10-02T08:30:00.000+00:00","valueQuantity":{"value":1.1,"unit":"mg/dL","system":"http://unitsofmeasure.org","code":"mg/dL"}},"request":{"method":"PUT","url":"Observation/5d85c0c8-37d7-4e2f-909b-5d670016423c"}},{"fullUrl":"https://madie.cms.gov/Encounter/c8e4f1ff-8002-495d-be22-d59c39357630","resource":{"resourceType":"Encounter","id":"c8e4f1ff-8002-495d-be22-d59c39357630","meta":{"profile":["http://hl7.org/fhir/us/qicore/StructureDefinition/qicore-encounter"]},"status":"finished","class":{"system":"http://terminology.hl7.org/CodeSystem/v3-ActCode","code":"IMP","display":"inpatient encounter"},"type":[{"coding":[{"system":"http://snomed.info/sct","code":"183452005"}]}],"subject":{"reference":"Patient/7d065cf3-b345-4761-a9cb-1246372b933f"},"period":{"start":"2026-09-29T20:00:00.000+00:00","end":"2026-10-11T08:15:00.000+00:00"}},"request":{"method":"PUT","url":"Encounter/c8e4f1ff-8002-495d-be22-d59c39357630"}},{"fullUrl":"https://madie.cms.gov/Observation/70db2ee4-dfb6-4e61-9076-b79f665d7c73","resource":{"resourceType":"Observation","id":"70db2ee4-dfb6-4e61-9076-b79f665d7c73","meta":{"profile":["http://hl7.org/fhir/us/qicore/StructureDefinition/qicore-observation-lab"]},"status":"final","category":[{"coding":[{"system":"http://terminology.hl7.org/CodeSystem/observation-category","code":"laboratory","display":"Laboratory"}]}],"code":{"coding":[{"system":"http://loinc.org","code":"2160-0","display":"Creatinine [Mass/volume] in Serum or Plasma"}]},"subject":{"reference":"Patient/7d065cf3-b345-4761-a9cb-1246372b933f"},"effectiveDateTime":"2026-10-03T08:00:00.000+00:00","issued":"2026-10-03T08:30:00.000+00:00","valueQuantity":{"value":2.2,"unit":"mg/dL","system":"http://unitsofmeasure.org","code":"mg/dL"}},"request":{"method":"PUT","url":"Observation/70db2ee4-dfb6-4e61-9076-b79f665d7c73"}},{"fullUrl":"https://madie.cms.gov/MeasureReport/f97cd078-98c9-40a3-8b72-c4f6eb09df76","resource":{"resourceType":"MeasureReport","id":"f97cd078-98c9-40a3-8b72-c4f6eb09df76","meta":{"profile":["http://hl7.org/fhir/us/cqfmeasures/StructureDefinition/test-case-cqfm"]},"contained":[{"resourceType":"Parameters","id":"4278a632-4f90-4cb2-833e-f48009673948-parameters","parameter":[{"name":"subject","valueString":"7d065cf3-b345-4761-a9cb-1246372b933f"}]}],"extension":[{"url":"http://hl7.org/fhir/us/cqfmeasures/StructureDefinition/cqfm-inputParameters","valueReference":{"reference":"#4278a632-4f90-4cb2-833e-f48009673948-parameters"}},{"url":"http://hl7.org/fhir/us/cqfmeasures/StructureDefinition/cqfm-testCaseDescription","valueMarkdown":"2TimeIncreaseInCreatUseRelevantPeriod MALE\nVScode: Numerator=[Encounter(id=NUMERPass-SCrIncrease2xExtended-02)]"}],"modifierExtension":[{"url":"http://hl7.org/fhir/us/cqfmeasures/StructureDefinition/cqfm-isTestCase","valueBoolean":true}],"status":"complete","type":"individual","measure":"https://madie.cms.gov/Measure/CMS832HHAKIFHIR","period":{"start":"2026-01-01","end":"2026-12-31"},"group":[{"id":"67b50f879214df46de2f1fdb","population":[{"id":"DA0D3694-7F57-4FB9-8410-1F64E44CA01E","code":{"coding":[{"system":"http://terminology.hl7.org/CodeSystem/measure-population","code":"initial-population","display":"Initial Population"}]},"count":1},{"id":"624D8554-9CB0-4BF0-882D-05C4F88BCC2C","code":{"coding":[{"system":"http://terminology.hl7.org/CodeSystem/measure-population","code":"denominator","display":"Denominator"}]},"count":1},{"id":"000FF050-D4A2-4C8B-8123-4538D35D5441","code":{"coding":[{"system":"http://terminology.hl7.org/CodeSystem/measure-population","code":"denominator-exclusion","display":"Denominator Exclusion"}]},"count":0},{"id":"01644D07-D9F8-403E-A66D-109ABA29BB6E","code":{"coding":[{"system":"http://terminology.hl7.org/CodeSystem/measure-population","code":"numerator","display":"Numerator"}]},"count":1}],"measureScore":{"value":0}}],"evaluatedResource":[{"reference":"Patient/7d065cf3-b345-4761-a9cb-1246372b933f"},{"reference":"Encounter/0ff319ab-a050-41ba-9bcb-62306ad55020"},{"reference":"Encounter/c8e4f1ff-8002-495d-be22-d59c39357630"},{"reference":"Observation/d0f1ac3a-e8c8-4b2a-9744-324316e97300"},{"reference":"Observation/b961cd61-7a82-4255-a235-adbb9c71c97b"},{"reference":"Observation/5d85c0c8-37d7-4e2f-909b-5d670016423c"},{"reference":"Observation/70db2ee4-dfb6-4e61-9076-b79f665d7c73"},{"reference":"Observation/bc73ee71-89d6-469e-86b6-8d77e8c7baa6"},{"reference":"Observation/24fd487b-2195-42bc-a840-39d203094756"},{"reference":"Coverage/263c914f-fdb6-479c-95fe-b8c07a924817"},{"reference":"Organization/85980312-596d-4e5d-b82b-6a4b297fb59a"}]},"request":{"method":"PUT","url":"MeasureReport/f97cd078-98c9-40a3-8b72-c4f6eb09df76"}},{"fullUrl":"https://madie.cms.gov/Coverage/263c914f-fdb6-479c-95fe-b8c07a924817","resource":{"resourceType":"Coverage","id":"263c914f-fdb6-479c-95fe-b8c07a924817","meta":{"profile":["http://hl7.org/fhir/us/qicore/StructureDefinition/qicore-coverage"]},"status":"active","type":{"coding":[{"system":"https://nahdo.org/sopt","version":"9.2","code":"211","display":"Medicaid HMO"}]},"beneficiary":{"reference":"Patient/7d065cf3-b345-4761-a9cb-1246372b933f"},"period":{"start":"2024-12-01T00:00:00.000+00:00"},"payor":[{"reference":"Organization/85980312-596d-4e5d-b82b-6a4b297fb59a"}]},"request":{"method":"PUT","url":"Coverage/263c914f-fdb6-479c-95fe-b8c07a924817"}},{"fullUrl":"https://madie.cms.gov/Encounter/0ff319ab-a050-41ba-9bcb-62306ad55020","resource":{"resourceType":"Encounter","id":"0ff319ab-a050-41ba-9bcb-62306ad55020","meta":{"profile":["http://hl7.org/fhir/us/qicore/StructureDefinition/qicore-encounter"]},"status":"finished","class":{"system":"http://terminology.hl7.org/CodeSystem/v3-ActCode","code":"EMER","display":"emergency"},"type":[{"coding":[{"system":"http://snomed.info/sct","code":"4525004"}]}],"subject":{"reference":"Patient/7d065cf3-b345-4761-a9cb-1246372b933f"},"period":{"start":"2026-09-29T08:00:00.000+00:00","end":"2026-09-30T20:00:00.000+00:00"}},"request":{"method":"PUT","url":"Encounter/0ff319ab-a050-41ba-9bcb-62306ad55020"}},{"fullUrl":"https://madie.cms.gov/Patient/7d065cf3-b345-4761-a9cb-1246372b933f","resource":{"resourceType":"Patient","id":"7d065cf3-b345-4761-a9cb-1246372b933f","meta":{"profile":["http://hl7.org/fhir/us/qicore/StructureDefinition/qicore-patient"]},"text":{"status":"generated","div":"<div xmlns=\"http://www.w3.org/1999/xhtml\"><div class=\"hapiHeaderText\">Turns 18 day of Encounter <b>NUMERPass </b></div><table class=\"hapiPropertyTable\"><tbody><tr><td>Identifier</td><td>f0eda1c9668fdacdcad3378589bf6e0a71e7dec1618f14fca4d442ec96e402b1</td></tr><tr><td>Date of birth</td><td><span>29 September 2006</span></td></tr></tbody></table></div>"},"extension":[{"url":"http://hl7.org/fhir/us/core/StructureDefinition/us-core-race","extension":[{"url":"ombCategory","valueCoding":{"system":"urn:oid:2.16.840.1.113883.6.238","code":"1002-5","display":"American Indian or Alaska Native","userSelected":true}},{"url":"text","valueString":"American Indian or Alaska Native"}]},{"url":"http://hl7.org/fhir/us/core/StructureDefinition/us-core-ethnicity","extension":[{"url":"ombCategory","valueCoding":{"system":"urn:oid:2.16.840.1.113883.6.238","code":"2135-2","display":"Hispanic or Latino","userSelected":true}},{"url":"text","valueString":"Hispanic or Latino"}]},{"url":"http://hl7.org/fhir/us/core/StructureDefinition/us-core-sex","valueCode":"248153007"}],"identifier":[{"type":{"coding":[{"system":"http://terminology.hl7.org/CodeSystem/v2-0203","code":"MR"}]},"system":"http://bonnie-fhir.healthit.gov/","value":"NUMERPass-SCrIncrease2xExtended"}],"active":true,"name":[{"use":"usual","family":"NUMERPass","given":["SCrIncrease2xExtended"]}],"gender":"male","birthDate":"1983-10-10"},"request":{"method":"PUT","url":"Patient/7d065cf3-b345-4761-a9cb-1246372b933f"}},{"fullUrl":"https://madie.cms.gov/Observation/bc73ee71-89d6-469e-86b6-8d77e8c7baa6","resource":{"resourceType":"Observation","id":"bc73ee71-89d6-469e-86b6-8d77e8c7baa6","meta":{"profile":["http://hl7.org/fhir/us/qicore/StructureDefinition/qicore-observation-lab"]},"status":"final","category":[{"coding":[{"system":"http://terminology.hl7.org/CodeSystem/observation-category","code":"laboratory","display":"Laboratory"}]}],"code":{"coding":[{"system":"http://loinc.org","code":"2160-0","display":"Creatinine [Mass/volume] in Serum or Plasma"}]},"subject":{"reference":"Patient/7d065cf3-b345-4761-a9cb-1246372b933f"},"effectiveDateTime":"2026-10-05T08:00:00.000+00:00","issued":"2026-10-05T08:30:00.000+00:00","valueQuantity":{"value":1.9,"unit":"mg/dL","system":"http://unitsofmeasure.org","code":"mg/dL"}},"request":{"method":"PUT","url":"Observation/bc73ee71-89d6-469e-86b6-8d77e8c7baa6"}},{"fullUrl":"https://madie.cms.gov/Organization/85980312-596d-4e5d-b82b-6a4b297fb59a","resource":{"resourceType":"Organization","id":"85980312-596d-4e5d-b82b-6a4b297fb59a","meta":{"profile":["http://hl7.org/fhir/us/qicore/StructureDefinition/qicore-organization"]},"identifier":[{"use":"temp","system":"urn:oid:2.16.840.1.113883.4.4","value":"21-3259825"}],"active":true,"type":[{"coding":[{"system":"http://terminology.hl7.org/CodeSystem/organization-type","code":"pay","display":"Payer"}]}],"name":"Blue Cross Blue Shield of Texas","telecom":[{"system":"phone","value":"(+1) 972-766-6900"}],"address":[{"use":"billing","type":"postal","line":["P.O. Box 660044"],"city":"Dallas","state":"TX","postalCode":"75266-0044","country":"USA"}]},"request":{"method":"PUT","url":"Organization/85980312-596d-4e5d-b82b-6a4b297fb59a"}},{"fullUrl":"https://madie.cms.gov/Observation/d0f1ac3a-e8c8-4b2a-9744-324316e97300","resource":{"resourceType":"Observation","id":"d0f1ac3a-e8c8-4b2a-9744-324316e97300","meta":{"profile":["http://hl7.org/fhir/us/qicore/StructureDefinition/qicore-observation-lab"]},"status":"final","category":[{"coding":[{"system":"http://terminology.hl7.org/CodeSystem/observation-category","code":"laboratory","display":"Laboratory"}]}],"code":{"coding":[{"system":"http://loinc.org","version":"2.72","code":"2160-0","display":"Creatinine [Mass/volume] in Serum or Plasma","userSelected":true}]},"subject":{"reference":"Patient/7d065cf3-b345-4761-a9cb-1246372b933f"},"effectiveDateTime":"2026-09-30T09:00:00.000+00:00","issued":"2026-09-30T09:30:00.000+00:00","valueQuantity":{"value":1.1,"unit":"mg/dL","system":"http://unitsofmeasure.org","code":"mg/dL"}},"request":{"method":"PUT","url":"Observation/d0f1ac3a-e8c8-4b2a-9744-324316e97300"}},{"fullUrl":"https://madie.cms.gov/Observation/b961cd61-7a82-4255-a235-adbb9c71c97b","resource":{"resourceType":"Observation","id":"b961cd61-7a82-4255-a235-adbb9c71c97b","meta":{"profile":["http://hl7.org/fhir/us/qicore/StructureDefinition/qicore-observation-lab"]},"status":"final","category":[{"coding":[{"system":"http://terminology.hl7.org/CodeSystem/observation-category","code":"laboratory","display":"Laboratory"}]}],"code":{"coding":[{"system":"http://loinc.org","version":"2.72","code":"2160-0","display":"Creatinine [Mass/volume] in Serum or Plasma","userSelected":true}]},"subject":{"reference":"Patient/7d065cf3-b345-4761-a9cb-1246372b933f"},"effectiveDateTime":"2026-09-30T08:00:00.000+00:00","issued":"2026-09-30T08:30:00.000+00:00","valueQuantity":{"value":1,"unit":"mg/dL","system":"http://unitsofmeasure.org","code":"mg/dL"}},"request":{"method":"PUT","url":"Observation/b961cd61-7a82-4255-a235-adbb9c71c97b"}},{"fullUrl":"https://madie.cms.gov/Observation/24fd487b-2195-42bc-a840-39d203094756","resource":{"resourceType":"Observation","id":"24fd487b-2195-42bc-a840-39d203094756","meta":{"profile":["http://hl7.org/fhir/us/qicore/StructureDefinition/qicore-observation-lab"]},"status":"final","category":[{"coding":[{"system":"http://terminology.hl7.org/CodeSystem/observation-category","code":"laboratory","display":"Laboratory"}]}],"code":{"coding":[{"system":"http://loinc.org","code":"2160-0","display":"Creatinine [Mass/volume] in Serum or Plasma"}]},"subject":{"reference":"Patient/7d065cf3-b345-4761-a9cb-1246372b933f"},"effectiveDateTime":"2026-10-07T08:00:00.000+00:00","issued":"2026-10-07T08:30:00.000+00:00","valueQuantity":{"value":1.8,"unit":"mg/dL","system":"http://unitsofmeasure.org","code":"mg/dL"}},"request":{"method":"PUT","url":"Observation/24fd487b-2195-42bc-a840-39d203094756"}},{"fullUrl":"https://madie.cms.gov/MeasureReport/bcf26fff-471e-4bd7-a446-81d96329cee2","resource":{"resourceType":"MeasureReport","id":"bcf26fff-471e-4bd7-a446-81d96329cee2","meta":{"profile":["http://hl7.org/fhir/us/cqfmeasures/StructureDefinition/test-case-cqfm"]},"contained":[{"resourceType":"Parameters","id":"336b6b82-1f10-4a2d-8b1a-11e0f6cf58ea-parameters","parameter":[{"name":"subject","valueString":"7d065cf3-b345-4761-a9cb-1246372b933f"}]}],"extension":[{"url":"http://hl7.org/fhir/StructureDefinition/cqf-inputParameters","valueReference":{"reference":"#336b6b82-1f10-4a2d-8b1a-11e0f6cf58ea-parameters"}},{"url":"http://hl7.org/fhir/us/cqfmeasures/StructureDefinition/cqfm-testCaseDescription","valueMarkdown":"2TimeIncreaseInCreatUseRelevantPeriod MALE\nVScode: Numerator=[Encounter(id=NUMERPass-SCrIncrease2xExtended-02)]"}],"modifierExtension":[{"url":"http://hl7.org/fhir/us/cqfmeasures/StructureDefinition/cqfm-isTestCase","valueBoolean":true}],"status":"complete","type":"individual","measure":"https://madie.cms.gov/Measure/CMS832HHAKIFHIR","period":{"start":"2026-01-01","end":"2026-12-31"},"group":[{"id":"Group_1","population":[{"id":"InitialPopulation_1","code":{"coding":[{"system":"http://terminology.hl7.org/CodeSystem/measure-population","code":"initial-population","display":"Initial Population"}]},"count":1},{"id":"Denominator_1","code":{"coding":[{"system":"http://terminology.hl7.org/CodeSystem/measure-population","code":"denominator","display":"Denominator"}]},"count":1},{"id":"DenominatorExclusion_1","code":{"coding":[{"system":"http://terminology.hl7.org/CodeSystem/measure-population","code":"denominator-exclusion","display":"Denominator Exclusion"}]},"count":0},{"id":"Numerator_1","code":{"coding":[{"system":"http://terminology.hl7.org/CodeSystem/measure-population","code":"numerator","display":"Numerator"}]},"count":1}],"measureScore":{"value":0.0}}],"evaluatedResource":[{"reference":"Observation/5d85c0c8-37d7-4e2f-909b-5d670016423c"},{"reference":"Encounter/c8e4f1ff-8002-495d-be22-d59c39357630"},{"reference":"Observation/70db2ee4-dfb6-4e61-9076-b79f665d7c73"},{"reference":"MeasureReport/f97cd078-98c9-40a3-8b72-c4f6eb09df76"},{"reference":"Coverage/263c914f-fdb6-479c-95fe-b8c07a924817"},{"reference":"Encounter/0ff319ab-a050-41ba-9bcb-62306ad55020"},{"reference":"Patient/7d065cf3-b345-4761-a9cb-1246372b933f"},{"reference":"Observation/bc73ee71-89d6-469e-86b6-8d77e8c7baa6"},{"reference":"Organization/85980312-596d-4e5d-b82b-6a4b297fb59a"},{"reference":"Observation/d0f1ac3a-e8c8-4b2a-9744-324316e97300"},{"reference":"Observation/b961cd61-7a82-4255-a235-adbb9c71c97b"},{"reference":"Observation/24fd487b-2195-42bc-a840-39d203094756"}]},"request":{"method":"PUT","url":"MeasureReport/bcf26fff-471e-4bd7-a446-81d96329cee2"}}]},"request":{"method":"PUT","url":"Bundle/tests-7d065cf3-b345-4761-a9cb-1246372b933f-bundle"}},{"resource":{"resourceType":"Encounter","id":"c8e4f1ff-8002-495d-be22-d59c39357630","meta":{"profile":["http://hl7.org/fhir/us/qicore/StructureDefinition/qicore-encounter"]},"status":"finished","class":{"system":"http://terminology.hl7.org/CodeSystem/v3-ActCode","code":"IMP","display":"inpatient encounter"},"type":[{"coding":[{"system":"http://snomed.info/sct","code":"183452005"}]}],"subject":{"reference":"Patient/7d065cf3-b345-4761-a9cb-1246372b933f"},"period":{"start":"2026-09-29T20:00:00.000+00:00","end":"2026-10-11T08:15:00.000+00:00"}},"request":{"method":"PUT","url":"Encounter/c8e4f1ff-8002-495d-be22-d59c39357630"}},{"resource":{"resourceType":"Encounter","id":"0ff319ab-a050-41ba-9bcb-62306ad55020","meta":{"profile":["http://hl7.org/fhir/us/qicore/StructureDefinition/qicore-encounter"]},"status":"finished","class":{"system":"http://terminology.hl7.org/CodeSystem/v3-ActCode","code":"EMER","display":"emergency"},"type":[{"coding":[{"system":"http://snomed.info/sct","code":"4525004"}]}],"subject":{"reference":"Patient/7d065cf3-b345-4761-a9cb-1246372b933f"},"period":{"start":"2026-09-29T08:00:00.000+00:00","end":"2026-09-30T20:00:00.000+00:00"}},"request":{"method":"PUT","url":"Encounter/0ff319ab-a050-41ba-9bcb-62306ad55020"}},{"resource":{"resourceType":"Observation","id":"b961cd61-7a82-4255-a235-adbb9c71c97b","meta":{"profile":["http://hl7.org/fhir/us/qicore/StructureDefinition/qicore-observation-lab"]},"status":"final","category":[{"coding":[{"system":"http://terminology.hl7.org/CodeSystem/observation-category","code":"laboratory","display":"Laboratory"}]}],"code":{"coding":[{"system":"http://loinc.org","version":"2.72","code":"2160-0","display":"Creatinine [Mass/volume] in Serum or Plasma","userSelected":true}]},"subject":{"reference":"Patient/7d065cf3-b345-4761-a9cb-1246372b933f"},"effectiveDateTime":"2026-09-30T08:00:00.000+00:00","issued":"2026-09-30T08:30:00.000+00:00","valueQuantity":{"value":1,"unit":"mg/dL","system":"http://unitsofmeasure.org","code":"mg/dL"}},"request":{"method":"PUT","url":"Observation/b961cd61-7a82-4255-a235-adbb9c71c97b"}},{"resource":{"resourceType":"Observation","id":"24fd487b-2195-42bc-a840-39d203094756","meta":{"profile":["http://hl7.org/fhir/us/qicore/StructureDefinition/qicore-observation-lab"]},"status":"final","category":[{"coding":[{"system":"http://terminology.hl7.org/CodeSystem/observation-category","code":"laboratory","display":"Laboratory"}]}],"code":{"coding":[{"system":"http://loinc.org","code":"2160-0","display":"Creatinine [Mass/volume] in Serum or Plasma"}]},"subject":{"reference":"Patient/7d065cf3-b345-4761-a9cb-1246372b933f"},"effectiveDateTime":"2026-10-07T08:00:00.000+00:00","issued":"2026-10-07T08:30:00.000+00:00","valueQuantity":{"value":1.8,"unit":"mg/dL","system":"http://unitsofmeasure.org","code":"mg/dL"}},"request":{"method":"PUT","url":"Observation/24fd487b-2195-42bc-a840-39d203094756"}},{"resource":{"resourceType":"MeasureReport","id":"f97cd078-98c9-40a3-8b72-c4f6eb09df76","meta":{"profile":["http://hl7.org/fhir/us/cqfmeasures/StructureDefinition/test-case-cqfm"]},"contained":[{"resourceType":"Parameters","id":"4278a632-4f90-4cb2-833e-f48009673948-parameters","parameter":[{"name":"subject","valueString":"7d065cf3-b345-4761-a9cb-1246372b933f"}]}],"extension":[{"url":"http://hl7.org/fhir/us/cqfmeasures/StructureDefinition/cqfm-inputParameters","valueReference":{"reference":"#4278a632-4f90-4cb2-833e-f48009673948-parameters"}},{"url":"http://hl7.org/fhir/us/cqfmeasures/StructureDefinition/cqfm-testCaseDescription","valueMarkdown":"2TimeIncreaseInCreatUseRelevantPeriod MALE\nVScode: Numerator=[Encounter(id=NUMERPass-SCrIncrease2xExtended-02)]"}],"modifierExtension":[{"url":"http://hl7.org/fhir/us/cqfmeasures/StructureDefinition/cqfm-isTestCase","valueBoolean":true}],"status":"complete","type":"individual","measure":"https://madie.cms.gov/Measure/CMS832HHAKIFHIR","period":{"start":"2026-01-01","end":"2026-12-31"},"group":[{"id":"67b50f879214df46de2f1fdb","population":[{"id":"DA0D3694-7F57-4FB9-8410-1F64E44CA01E","code":{"coding":[{"system":"http://terminology.hl7.org/CodeSystem/measure-population","code":"initial-population","display":"Initial Population"}]},"count":1},{"id":"624D8554-9CB0-4BF0-882D-05C4F88BCC2C","code":{"coding":[{"system":"http://terminology.hl7.org/CodeSystem/measure-population","code":"denominator","display":"Denominator"}]},"count":1},{"id":"000FF050-D4A2-4C8B-8123-4538D35D5441","code":{"coding":[{"system":"http://terminology.hl7.org/CodeSystem/measure-population","code":"denominator-exclusion","display":"Denominator Exclusion"}]},"count":0},{"id":"01644D07-D9F8-403E-A66D-109ABA29BB6E","code":{"coding":[{"system":"http://terminology.hl7.org/CodeSystem/measure-population","code":"numerator","display":"Numerator"}]},"count":1}],"measureScore":{"value":0}}],"evaluatedResource":[{"reference":"Patient/7d065cf3-b345-4761-a9cb-1246372b933f"},{"reference":"Encounter/0ff319ab-a050-41ba-9bcb-62306ad55020"},{"reference":"Encounter/c8e4f1ff-8002-495d-be22-d59c39357630"},{"reference":"Observation/d0f1ac3a-e8c8-4b2a-9744-324316e97300"},{"reference":"Observation/b961cd61-7a82-4255-a235-adbb9c71c97b"},{"reference":"Observation/5d85c0c8-37d7-4e2f-909b-5d670016423c"},{"reference":"Observation/70db2ee4-dfb6-4e61-9076-b79f665d7c73"},{"reference":"Observation/bc73ee71-89d6-469e-86b6-8d77e8c7baa6"},{"reference":"Observation/24fd487b-2195-42bc-a840-39d203094756"},{"reference":"Coverage/263c914f-fdb6-479c-95fe-b8c07a924817"},{"reference":"Organization/85980312-596d-4e5d-b82b-6a4b297fb59a"}]},"request":{"method":"PUT","url":"MeasureReport/f97cd078-98c9-40a3-8b72-c4f6eb09df76"}},{"resource":{"resourceType":"Patient","id":"7d065cf3-b345-4761-a9cb-1246372b933f","meta":{"profile":["http://hl7.org/fhir/us/qicore/StructureDefinition/qicore-patient"]},"text":{"status":"generated","div":"<div xmlns=\"http://www.w3.org/1999/xhtml\"><div class=\"hapiHeaderText\">Turns 18 day of Encounter <b>NUMERPass </b></div><table class=\"hapiPropertyTable\"><tbody><tr><td>Identifier</td><td>f0eda1c9668fdacdcad3378589bf6e0a71e7dec1618f14fca4d442ec96e402b1</td></tr><tr><td>Date of birth</td><td><span>29 September 2006</span></td></tr></tbody></table></div>"},"extension":[{"url":"http://hl7.org/fhir/us/core/StructureDefinition/us-core-race","extension":[{"url":"ombCategory","valueCoding":{"system":"urn:oid:2.16.840.1.113883.6.238","code":"1002-5","display":"American Indian or Alaska Native","userSelected":true}},{"url":"text","valueString":"American Indian or Alaska Native"}]},{"url":"http://hl7.org/fhir/us/core/StructureDefinition/us-core-ethnicity","extension":[{"url":"ombCategory","valueCoding":{"system":"urn:oid:2.16.840.1.113883.6.238","code":"2135-2","display":"Hispanic or Latino","userSelected":true}},{"url":"text","valueString":"Hispanic or Latino"}]},{"url":"http://hl7.org/fhir/us/core/StructureDefinition/us-core-sex","valueCode":"248153007"}],"identifier":[{"type":{"coding":[{"system":"http://terminology.hl7.org/CodeSystem/v2-0203","code":"MR"}]},"system":"http://bonnie-fhir.healthit.gov/","value":"NUMERPass-SCrIncrease2xExtended"}],"active":true,"name":[{"use":"usual","family":"NUMERPass","given":["SCrIncrease2xExtended"]}],"gender":"male","birthDate":"1983-10-10"},"request":{"method":"PUT","url":"Patient/7d065cf3-b345-4761-a9cb-1246372b933f"}},{"resource":{"resourceType":"MeasureReport","id":"bcf26fff-471e-4bd7-a446-81d96329cee2","meta":{"profile":["http://hl7.org/fhir/us/cqfmeasures/StructureDefinition/test-case-cqfm"]},"contained":[{"resourceType":"Parameters","id":"336b6b82-1f10-4a2d-8b1a-11e0f6cf58ea-parameters","parameter":[{"name":"subject","valueString":"7d065cf3-b345-4761-a9cb-1246372b933f"}]}],"extension":[{"url":"http://hl7.org/fhir/StructureDefinition/cqf-inputParameters","valueReference":{"reference":"#336b6b82-1f10-4a2d-8b1a-11e0f6cf58ea-parameters"}},{"url":"http://hl7.org/fhir/us/cqfmeasures/StructureDefinition/cqfm-testCaseDescription","valueMarkdown":"2TimeIncreaseInCreatUseRelevantPeriod MALE\nVScode: Numerator=[Encounter(id=NUMERPass-SCrIncrease2xExtended-02)]"}],"modifierExtension":[{"url":"http://hl7.org/fhir/us/cqfmeasures/StructureDefinition/cqfm-isTestCase","valueBoolean":true}],"status":"complete","type":"individual","measure":"https://madie.cms.gov/Measure/CMS832HHAKIFHIR","period":{"start":"2026-01-01","end":"2026-12-31"},"group":[{"id":"Group_1","population":[{"id":"InitialPopulation_1","code":{"coding":[{"system":"http://terminology.hl7.org/CodeSystem/measure-population","code":"initial-population","display":"Initial Population"}]},"count":1},{"id":"Denominator_1","code":{"coding":[{"system":"http://terminology.hl7.org/CodeSystem/measure-population","code":"denominator","display":"Denominator"}]},"count":1},{"id":"DenominatorExclusion_1","code":{"coding":[{"system":"http://terminology.hl7.org/CodeSystem/measure-population","code":"denominator-exclusion","display":"Denominator Exclusion"}]},"count":0},{"id":"Numerator_1","code":{"coding":[{"system":"http://terminology.hl7.org/CodeSystem/measure-population","code":"numerator","display":"Numerator"}]},"count":1}],"measureScore":{"value":0.0}}],"evaluatedResource":[{"reference":"Observation/5d85c0c8-37d7-4e2f-909b-5d670016423c"},{"reference":"Encounter/c8e4f1ff-8002-495d-be22-d59c39357630"},{"reference":"Observation/70db2ee4-dfb6-4e61-9076-b79f665d7c73"},{"reference":"MeasureReport/f97cd078-98c9-40a3-8b72-c4f6eb09df76"},{"reference":"Coverage/263c914f-fdb6-479c-95fe-b8c07a924817"},{"reference":"Encounter/0ff319ab-a050-41ba-9bcb-62306ad55020"},{"reference":"Patient/7d065cf3-b345-4761-a9cb-1246372b933f"},{"reference":"Observation/bc73ee71-89d6-469e-86b6-8d77e8c7baa6"},{"reference":"Organization/85980312-596d-4e5d-b82b-6a4b297fb59a"},{"reference":"Observation/d0f1ac3a-e8c8-4b2a-9744-324316e97300"},{"reference":"Observation/b961cd61-7a82-4255-a235-adbb9c71c97b"},{"reference":"Observation/24fd487b-2195-42bc-a840-39d203094756"}]},"request":{"method":"PUT","url":"MeasureReport/bcf26fff-471e-4bd7-a446-81d96329cee2"}},{"resource":{"resourceType":"Observation","id":"70db2ee4-dfb6-4e61-9076-b79f665d7c73","meta":{"profile":["http://hl7.org/fhir/us/qicore/StructureDefinition/qicore-observation-lab"]},"status":"final","category":[{"coding":[{"system":"http://terminology.hl7.org/CodeSystem/observation-category","code":"laboratory","display":"Laboratory"}]}],"code":{"coding":[{"system":"http://loinc.org","code":"2160-0","display":"Creatinine [Mass/volume] in Serum or Plasma"}]},"subject":{"reference":"Patient/7d065cf3-b345-4761-a9cb-1246372b933f"},"effectiveDateTime":"2026-10-03T08:00:00.000+00:00","issued":"2026-10-03T08:30:00.000+00:00","valueQuantity":{"value":2.2,"unit":"mg/dL","system":"http://unitsofmeasure.org","code":"mg/dL"}},"request":{"method":"PUT","url":"Observation/70db2ee4-dfb6-4e61-9076-b79f665d7c73"}},{"resource":{"resourceType":"Observation","id":"5d85c0c8-37d7-4e2f-909b-5d670016423c","meta":{"profile":["http://hl7.org/fhir/us/qicore/StructureDefinition/qicore-observation-lab"]},"status":"final","category":[{"coding":[{"system":"http://terminology.hl7.org/CodeSystem/observation-category","code":"laboratory","display":"Laboratory"}]}],"code":{"coding":[{"system":"http://loinc.org","version":"2.72","code":"2160-0","display":"Creatinine [Mass/volume] in Serum or Plasma","userSelected":true}]},"subject":{"reference":"Patient/7d065cf3-b345-4761-a9cb-1246372b933f"},"effectiveDateTime":"2026-10-02T08:00:00.000+00:00","issued":"2026-10-02T08:30:00.000+00:00","valueQuantity":{"value":1.1,"unit":"mg/dL","system":"http://unitsofmeasure.org","code":"mg/dL"}},"request":{"method":"PUT","url":"Observation/5d85c0c8-37d7-4e2f-909b-5d670016423c"}}]}