{"resourceType":"Bundle","id":"tests-bfd784c1-7934-4b33-96fb-d808e1c95dbc-bundle","type":"transaction","entry":[{"fullUrl":"Observation/dca58d4e-cdbe-447f-8bc5-ab4042ad41ec","resource":{"resourceType":"Observation","id":"dca58d4e-cdbe-447f-8bc5-ab4042ad41ec","meta":{"profile":["http://hl7.org/fhir/us/qicore/StructureDefinition/qicore-observation-lab"]},"status":"final","category":[{"coding":[{"system":"http://terminology.hl7.org/CodeSystem/observation-category","code":"laboratory","display":"Laboratory"}]}],"code":{"coding":[{"system":"http://loinc.org","version":"2.72","code":"21232-4","display":"Creatinine [Mass/volume] in Serum or Plasma"}]},"subject":{"reference":"Patient/bfd784c1-7934-4b33-96fb-d808e1c95dbc"},"effectiveDateTime":"2026-09-26T12:01:00.000+00:00","valueQuantity":{"value":1.1,"unit":"mg/dL","system":"http://unitsofmeasure.org","code":"mg/dL"}},"request":{"method":"PUT","url":"Observation/dca58d4e-cdbe-447f-8bc5-ab4042ad41ec"}},{"fullUrl":"MeasureReport/f7742897-b4cb-47be-8392-d94e6c131636","resource":{"resourceType":"MeasureReport","id":"f7742897-b4cb-47be-8392-d94e6c131636","meta":{"profile":["http://hl7.org/fhir/us/cqfmeasures/StructureDefinition/test-case-cqfm"]},"contained":[{"resourceType":"Parameters","id":"2ea38911-40e0-494b-998d-403365c14789-parameters","parameter":[{"name":"subject","valueString":"bfd784c1-7934-4b33-96fb-d808e1c95dbc"}]}],"extension":[{"url":"http://hl7.org/fhir/StructureDefinition/cqf-inputParameters","valueReference":{"reference":"#2ea38911-40e0-494b-998d-403365c14789-parameters"}},{"url":"http://hl7.org/fhir/us/cqfmeasures/StructureDefinition/cqfm-testCaseDescription","valueMarkdown":"Encounter starts in ED. First SCr in ED, second SCr after admission to IP. Both within 48 hrs of arrival. Does not meet denom exclusion of less than 2 SCr within 48 hrs of arrival. "}],"modifierExtension":[{"url":"http://hl7.org/fhir/us/cqfmeasures/StructureDefinition/cqfm-isTestCase","valueBoolean":true}],"status":"complete","type":"individual","measure":"https://madie.cms.gov/Measure/CMS832HHAKIFHIR","period":{"start":"2026-01-01","end":"2026-12-31"},"group":[{"id":"Group_1","population":[{"id":"InitialPopulation_1","code":{"coding":[{"system":"http://terminology.hl7.org/CodeSystem/measure-population","code":"initial-population","display":"Initial Population"}]},"count":1},{"id":"Denominator_1","code":{"coding":[{"system":"http://terminology.hl7.org/CodeSystem/measure-population","code":"denominator","display":"Denominator"}]},"count":1},{"id":"DenominatorExclusion_1","code":{"coding":[{"system":"http://terminology.hl7.org/CodeSystem/measure-population","code":"denominator-exclusion","display":"Denominator Exclusion"}]},"count":0},{"id":"Numerator_1","code":{"coding":[{"system":"http://terminology.hl7.org/CodeSystem/measure-population","code":"numerator","display":"Numerator"}]},"count":0}],"measureScore":{"value":0.0}}],"evaluatedResource":[{"reference":"Observation/45654b2c-1529-4042-8f01-759685e0889e"},{"reference":"Encounter/07798902-78c3-4f27-a594-02fcab72eb09"},{"reference":"Encounter/2e7b7501-f66c-4aa2-b276-0d75c540fb75"},{"reference":"Observation/dca58d4e-cdbe-447f-8bc5-ab4042ad41ec"},{"reference":"Observation/a4bed2c5-c066-4e63-a57f-296158cec0f0"},{"reference":"Patient/bfd784c1-7934-4b33-96fb-d808e1c95dbc"}]},"request":{"method":"PUT","url":"MeasureReport/f7742897-b4cb-47be-8392-d94e6c131636"}},{"fullUrl":"Observation/a4bed2c5-c066-4e63-a57f-296158cec0f0","resource":{"resourceType":"Observation","id":"a4bed2c5-c066-4e63-a57f-296158cec0f0","meta":{"profile":["http://hl7.org/fhir/us/qicore/StructureDefinition/qicore-observation-lab"]},"status":"final","category":[{"coding":[{"system":"http://terminology.hl7.org/CodeSystem/observation-category","code":"laboratory","display":"Laboratory"}]}],"code":{"coding":[{"system":"http://loinc.org","version":"2.72","code":"21232-4","display":"Creatinine [Mass/volume] in Serum or Plasma"}]},"subject":{"reference":"Patient/bfd784c1-7934-4b33-96fb-d808e1c95dbc"},"effectiveDateTime":"2026-09-25T12:00:00.000+00:00","valueQuantity":{"value":1.1,"unit":"mg/dL","system":"http://unitsofmeasure.org","code":"mg/dL"}},"request":{"method":"PUT","url":"Observation/a4bed2c5-c066-4e63-a57f-296158cec0f0"}},{"fullUrl":"Encounter/2e7b7501-f66c-4aa2-b276-0d75c540fb75","resource":{"resourceType":"Encounter","id":"2e7b7501-f66c-4aa2-b276-0d75c540fb75","meta":{"profile":["http://hl7.org/fhir/us/qicore/StructureDefinition/qicore-encounter"]},"status":"finished","class":{"system":"http://terminology.hl7.org/CodeSystem/v3-ActCode","code":"EMER","display":"emergency encounter"},"type":[{"coding":[{"system":"http://snomed.info/sct","code":"4525004","display":"Emergency Department Visit"}]}],"subject":{"reference":"Patient/bfd784c1-7934-4b33-96fb-d808e1c95dbc"},"period":{"start":"2026-09-24T12:00:00.000+00:00","end":"2026-09-25T00:00:00.000+00:00"}},"request":{"method":"PUT","url":"Encounter/2e7b7501-f66c-4aa2-b276-0d75c540fb75"}},{"fullUrl":"Patient/bfd784c1-7934-4b33-96fb-d808e1c95dbc","resource":{"resourceType":"Patient","id":"bfd784c1-7934-4b33-96fb-d808e1c95dbc","meta":{"profile":["http://hl7.org/fhir/us/qicore/StructureDefinition/qicore-patient"]},"extension":[{"url":"http://hl7.org/fhir/us/core/StructureDefinition/us-core-race","extension":[{"url":"ombCategory","valueCoding":{"system":"urn:oid:2.16.840.1.113883.6.238","code":"2106-3","display":"White"}},{"url":"text","valueString":"White"}]},{"url":"http://hl7.org/fhir/us/core/StructureDefinition/us-core-ethnicity","extension":[{"url":"ombCategory","valueCoding":{"system":"urn:oid:2.16.840.1.113883.6.238","code":"2135-2","display":"Hispanic or Latino"}},{"url":"text","valueString":"Hispanic or Latino"}]},{"url":"http://hl7.org/fhir/us/core/StructureDefinition/us-core-sex","valueCode":"248153007"}],"identifier":[{"system":"http://hospital.smarthealthit.org","value":"999999999"}],"name":[{"family":"Example","given":["Patient"]}],"gender":"female","birthDate":"1957-01-01"},"request":{"method":"PUT","url":"Patient/bfd784c1-7934-4b33-96fb-d808e1c95dbc"}},{"fullUrl":"Encounter/07798902-78c3-4f27-a594-02fcab72eb09","resource":{"resourceType":"Encounter","id":"07798902-78c3-4f27-a594-02fcab72eb09","meta":{"profile":["http://hl7.org/fhir/us/qicore/StructureDefinition/qicore-encounter"]},"status":"finished","class":{"system":"http://terminology.hl7.org/CodeSystem/v3-ActCode","code":"IMP","display":"inpatient encounter"},"type":[{"coding":[{"system":"http://snomed.info/sct","code":"183452005","display":"Emergency hospital admission (procedure)"}]}],"subject":{"reference":"Patient/bfd784c1-7934-4b33-96fb-d808e1c95dbc"},"period":{"start":"2026-09-25T00:00:00.000+00:00","end":"2026-09-27T12:15:00.000+00:00"}},"request":{"method":"PUT","url":"Encounter/07798902-78c3-4f27-a594-02fcab72eb09"}},{"fullUrl":"Observation/45654b2c-1529-4042-8f01-759685e0889e","resource":{"resourceType":"Observation","id":"45654b2c-1529-4042-8f01-759685e0889e","meta":{"profile":["http://hl7.org/fhir/us/qicore/StructureDefinition/qicore-observation-lab"]},"status":"final","category":[{"coding":[{"system":"http://terminology.hl7.org/CodeSystem/observation-category","code":"laboratory","display":"Laboratory"}]}],"code":{"coding":[{"system":"http://loinc.org","version":"2.72","code":"21232-4","display":"Creatinine [Mass/volume] in Serum or Plasma"}]},"subject":{"reference":"Patient/bfd784c1-7934-4b33-96fb-d808e1c95dbc"},"effectiveDateTime":"2026-09-24T12:15:00.000+00:00","valueQuantity":{"value":1,"unit":"mg/dL","system":"http://unitsofmeasure.org","code":"mg/dL"}},"request":{"method":"PUT","url":"Observation/45654b2c-1529-4042-8f01-759685e0889e"}},{"fullUrl":"Bundle/tests-DENEXFail-TwoSCrResultswithin48Hrs-CMS832-bundle","resource":{"resourceType":"Bundle","id":"tests-DENEXFail-TwoSCrResultswithin48Hrs-CMS832-bundle","type":"transaction","entry":[{"fullUrl":"https://madie.cms.gov/Observation/45654b2c-1529-4042-8f01-759685e0889e","resource":{"resourceType":"Observation","id":"45654b2c-1529-4042-8f01-759685e0889e","meta":{"profile":["http://hl7.org/fhir/us/qicore/StructureDefinition/qicore-observation-lab"]},"status":"final","category":[{"coding":[{"system":"http://terminology.hl7.org/CodeSystem/observation-category","code":"laboratory","display":"Laboratory"}]}],"code":{"coding":[{"system":"http://loinc.org","version":"2.72","code":"21232-4","display":"Creatinine [Mass/volume] in Serum or Plasma"}]},"subject":{"reference":"Patient/bfd784c1-7934-4b33-96fb-d808e1c95dbc"},"effectiveDateTime":"2026-09-24T12:15:00.000+00:00","valueQuantity":{"value":1,"unit":"mg/dL","system":"http://unitsofmeasure.org","code":"mg/dL"}},"request":{"method":"PUT","url":"Observation/45654b2c-1529-4042-8f01-759685e0889e"}},{"fullUrl":"https://madie.cms.gov/Encounter/07798902-78c3-4f27-a594-02fcab72eb09","resource":{"resourceType":"Encounter","id":"07798902-78c3-4f27-a594-02fcab72eb09","meta":{"profile":["http://hl7.org/fhir/us/qicore/StructureDefinition/qicore-encounter"]},"status":"finished","class":{"system":"http://terminology.hl7.org/CodeSystem/v3-ActCode","code":"IMP","display":"inpatient encounter"},"type":[{"coding":[{"system":"http://snomed.info/sct","code":"183452005","display":"Emergency hospital admission (procedure)"}]}],"subject":{"reference":"Patient/bfd784c1-7934-4b33-96fb-d808e1c95dbc"},"period":{"start":"2026-09-25T00:00:00.000+00:00","end":"2026-09-27T12:15:00.000+00:00"}},"request":{"method":"PUT","url":"Encounter/07798902-78c3-4f27-a594-02fcab72eb09"}},{"fullUrl":"https://madie.cms.gov/Encounter/2e7b7501-f66c-4aa2-b276-0d75c540fb75","resource":{"resourceType":"Encounter","id":"2e7b7501-f66c-4aa2-b276-0d75c540fb75","meta":{"profile":["http://hl7.org/fhir/us/qicore/StructureDefinition/qicore-encounter"]},"status":"finished","class":{"system":"http://terminology.hl7.org/CodeSystem/v3-ActCode","code":"EMER","display":"emergency encounter"},"type":[{"coding":[{"system":"http://snomed.info/sct","code":"4525004","display":"Emergency Department Visit"}]}],"subject":{"reference":"Patient/bfd784c1-7934-4b33-96fb-d808e1c95dbc"},"period":{"start":"2026-09-24T12:00:00.000+00:00","end":"2026-09-25T00:00:00.000+00:00"}},"request":{"method":"PUT","url":"Encounter/2e7b7501-f66c-4aa2-b276-0d75c540fb75"}},{"fullUrl":"https://madie.cms.gov/Observation/dca58d4e-cdbe-447f-8bc5-ab4042ad41ec","resource":{"resourceType":"Observation","id":"dca58d4e-cdbe-447f-8bc5-ab4042ad41ec","meta":{"profile":["http://hl7.org/fhir/us/qicore/StructureDefinition/qicore-observation-lab"]},"status":"final","category":[{"coding":[{"system":"http://terminology.hl7.org/CodeSystem/observation-category","code":"laboratory","display":"Laboratory"}]}],"code":{"coding":[{"system":"http://loinc.org","version":"2.72","code":"21232-4","display":"Creatinine [Mass/volume] in Serum or Plasma"}]},"subject":{"reference":"Patient/bfd784c1-7934-4b33-96fb-d808e1c95dbc"},"effectiveDateTime":"2026-09-26T12:01:00.000+00:00","valueQuantity":{"value":1.1,"unit":"mg/dL","system":"http://unitsofmeasure.org","code":"mg/dL"}},"request":{"method":"PUT","url":"Observation/dca58d4e-cdbe-447f-8bc5-ab4042ad41ec"}},{"fullUrl":"https://madie.cms.gov/Observation/a4bed2c5-c066-4e63-a57f-296158cec0f0","resource":{"resourceType":"Observation","id":"a4bed2c5-c066-4e63-a57f-296158cec0f0","meta":{"profile":["http://hl7.org/fhir/us/qicore/StructureDefinition/qicore-observation-lab"]},"status":"final","category":[{"coding":[{"system":"http://terminology.hl7.org/CodeSystem/observation-category","code":"laboratory","display":"Laboratory"}]}],"code":{"coding":[{"system":"http://loinc.org","version":"2.72","code":"21232-4","display":"Creatinine [Mass/volume] in Serum or Plasma"}]},"subject":{"reference":"Patient/bfd784c1-7934-4b33-96fb-d808e1c95dbc"},"effectiveDateTime":"2026-09-25T12:00:00.000+00:00","valueQuantity":{"value":1.1,"unit":"mg/dL","system":"http://unitsofmeasure.org","code":"mg/dL"}},"request":{"method":"PUT","url":"Observation/a4bed2c5-c066-4e63-a57f-296158cec0f0"}},{"fullUrl":"https://madie.cms.gov/Patient/bfd784c1-7934-4b33-96fb-d808e1c95dbc","resource":{"resourceType":"Patient","id":"bfd784c1-7934-4b33-96fb-d808e1c95dbc","meta":{"profile":["http://hl7.org/fhir/us/qicore/StructureDefinition/qicore-patient"]},"extension":[{"url":"http://hl7.org/fhir/us/core/StructureDefinition/us-core-race","extension":[{"url":"ombCategory","valueCoding":{"system":"urn:oid:2.16.840.1.113883.6.238","code":"2106-3","display":"White"}},{"url":"text","valueString":"White"}]},{"url":"http://hl7.org/fhir/us/core/StructureDefinition/us-core-ethnicity","extension":[{"url":"ombCategory","valueCoding":{"system":"urn:oid:2.16.840.1.113883.6.238","code":"2135-2","display":"Hispanic or Latino"}},{"url":"text","valueString":"Hispanic or Latino"}]},{"url":"http://hl7.org/fhir/us/core/StructureDefinition/us-core-sex","valueCode":"248153007"}],"identifier":[{"system":"http://hospital.smarthealthit.org","value":"999999999"}],"name":[{"family":"Example","given":["Patient"]}],"gender":"female","birthDate":"1957-01-01"},"request":{"method":"PUT","url":"Patient/bfd784c1-7934-4b33-96fb-d808e1c95dbc"}},{"fullUrl":"https://madie.cms.gov/MeasureReport/f7742897-b4cb-47be-8392-d94e6c131636","resource":{"resourceType":"MeasureReport","id":"f7742897-b4cb-47be-8392-d94e6c131636","meta":{"profile":["http://hl7.org/fhir/us/cqfmeasures/StructureDefinition/test-case-cqfm"]},"contained":[{"resourceType":"Parameters","id":"2ea38911-40e0-494b-998d-403365c14789-parameters","parameter":[{"name":"subject","valueString":"bfd784c1-7934-4b33-96fb-d808e1c95dbc"}]}],"extension":[{"url":"http://hl7.org/fhir/StructureDefinition/cqf-inputParameters","valueReference":{"reference":"#2ea38911-40e0-494b-998d-403365c14789-parameters"}},{"url":"http://hl7.org/fhir/us/cqfmeasures/StructureDefinition/cqfm-testCaseDescription","valueMarkdown":"Encounter starts in ED. First SCr in ED, second SCr after admission to IP. Both within 48 hrs of arrival. Does not meet denom exclusion of less than 2 SCr within 48 hrs of arrival. "}],"modifierExtension":[{"url":"http://hl7.org/fhir/us/cqfmeasures/StructureDefinition/cqfm-isTestCase","valueBoolean":true}],"status":"complete","type":"individual","measure":"https://madie.cms.gov/Measure/CMS832HHAKIFHIR","period":{"start":"2026-01-01","end":"2026-12-31"},"group":[{"id":"Group_1","population":[{"id":"InitialPopulation_1","code":{"coding":[{"system":"http://terminology.hl7.org/CodeSystem/measure-population","code":"initial-population","display":"Initial Population"}]},"count":1},{"id":"Denominator_1","code":{"coding":[{"system":"http://terminology.hl7.org/CodeSystem/measure-population","code":"denominator","display":"Denominator"}]},"count":1},{"id":"DenominatorExclusion_1","code":{"coding":[{"system":"http://terminology.hl7.org/CodeSystem/measure-population","code":"denominator-exclusion","display":"Denominator Exclusion"}]},"count":0},{"id":"Numerator_1","code":{"coding":[{"system":"http://terminology.hl7.org/CodeSystem/measure-population","code":"numerator","display":"Numerator"}]},"count":0}],"measureScore":{"value":0.0}}],"evaluatedResource":[{"reference":"Observation/45654b2c-1529-4042-8f01-759685e0889e"},{"reference":"Encounter/07798902-78c3-4f27-a594-02fcab72eb09"},{"reference":"Encounter/2e7b7501-f66c-4aa2-b276-0d75c540fb75"},{"reference":"Observation/dca58d4e-cdbe-447f-8bc5-ab4042ad41ec"},{"reference":"Observation/a4bed2c5-c066-4e63-a57f-296158cec0f0"},{"reference":"Patient/bfd784c1-7934-4b33-96fb-d808e1c95dbc"}]},"request":{"method":"PUT","url":"MeasureReport/f7742897-b4cb-47be-8392-d94e6c131636"}}]},"request":{"method":"PUT","url":"Bundle/tests-DENEXFail-TwoSCrResultswithin48Hrs-CMS832-bundle"}}]}