{"resourceType":"Bundle","id":"tests-75cf10f8-a7a4-4ac5-b60f-f73bfc9ae92e-bundle","type":"transaction","entry":[{"fullUrl":"Bundle/tests-75cf10f8-a7a4-4ac5-b60f-f73bfc9ae92e-bundle","resource":{"resourceType":"Bundle","id":"tests-75cf10f8-a7a4-4ac5-b60f-f73bfc9ae92e-bundle","type":"transaction","entry":[{"fullUrl":"https://madie.cms.gov/MeasureReport/e2c30356-be73-430b-8864-8a69510a6480","resource":{"resourceType":"MeasureReport","id":"e2c30356-be73-430b-8864-8a69510a6480","meta":{"profile":["http://hl7.org/fhir/us/cqfmeasures/StructureDefinition/test-case-cqfm"]},"contained":[{"resourceType":"Parameters","id":"aa222c67-3dc9-4d71-a923-9a3b8e9a292b-parameters","parameter":[{"name":"subject","valueString":"75cf10f8-a7a4-4ac5-b60f-f73bfc9ae92e"}]}],"extension":[{"url":"http://hl7.org/fhir/us/cqfmeasures/StructureDefinition/cqfm-inputParameters","valueReference":{"reference":"#aa222c67-3dc9-4d71-a923-9a3b8e9a292b-parameters"}},{"url":"http://hl7.org/fhir/us/cqfmeasures/StructureDefinition/cqfm-testCaseDescription","valueMarkdown":"IP Encounter with 0.4mg/dL increase in SCr. Meets Exclusion - must be at least a 0.3 increase. \nVScode: Denominator Exclusion=[Encounter(id=DENEXPass-CreatinineIncrease0.4mg-01)]\nMADiE highlight issue special characters even in titles"}],"modifierExtension":[{"url":"http://hl7.org/fhir/us/cqfmeasures/StructureDefinition/cqfm-isTestCase","valueBoolean":true}],"status":"complete","type":"individual","measure":"https://madie.cms.gov/Measure/CMS832HHAKIFHIR","period":{"start":"2026-01-01","end":"2026-12-31"},"group":[{"id":"67b50f879214df46de2f1fdb","population":[{"id":"DA0D3694-7F57-4FB9-8410-1F64E44CA01E","code":{"coding":[{"system":"http://terminology.hl7.org/CodeSystem/measure-population","code":"initial-population","display":"Initial Population"}]},"count":1},{"id":"624D8554-9CB0-4BF0-882D-05C4F88BCC2C","code":{"coding":[{"system":"http://terminology.hl7.org/CodeSystem/measure-population","code":"denominator","display":"Denominator"}]},"count":1},{"id":"000FF050-D4A2-4C8B-8123-4538D35D5441","code":{"coding":[{"system":"http://terminology.hl7.org/CodeSystem/measure-population","code":"denominator-exclusion","display":"Denominator Exclusion"}]},"count":1},{"id":"01644D07-D9F8-403E-A66D-109ABA29BB6E","code":{"coding":[{"system":"http://terminology.hl7.org/CodeSystem/measure-population","code":"numerator","display":"Numerator"}]},"count":0}],"measureScore":{"value":0}}],"evaluatedResource":[{"reference":"Patient/75cf10f8-a7a4-4ac5-b60f-f73bfc9ae92e"},{"reference":"Encounter/3430b7a5-f180-4ff7-b1c0-6bbc60b7445d"},{"reference":"Observation/0230c2b4-9737-4e3f-8ca2-f7b0f8c125b4"},{"reference":"Observation/f2878d52-32e4-4716-aa1b-a03a7937bdd8"},{"reference":"Observation/0bc84f15-023b-414d-b04e-5a86e5acbe8d"},{"reference":"Coverage/6e3a402f-fe76-4cfe-b935-453ecc592d1e"},{"reference":"Organization/462a0014-a3f9-424f-b525-707c0556eef1"}]},"request":{"method":"PUT","url":"MeasureReport/e2c30356-be73-430b-8864-8a69510a6480"}},{"fullUrl":"https://madie.cms.gov/Encounter/3430b7a5-f180-4ff7-b1c0-6bbc60b7445d","resource":{"resourceType":"Encounter","id":"3430b7a5-f180-4ff7-b1c0-6bbc60b7445d","meta":{"profile":["http://hl7.org/fhir/us/qicore/StructureDefinition/qicore-encounter"]},"status":"finished","class":{"system":"http://terminology.hl7.org/CodeSystem/v3-ActCode","code":"IMP","display":"inpatient encounter"},"type":[{"coding":[{"system":"http://snomed.info/sct","code":"183452005"}]}],"subject":{"reference":"Patient/75cf10f8-a7a4-4ac5-b60f-f73bfc9ae92e"},"period":{"start":"2026-09-29T08:00:00.000+00:00","end":"2026-10-03T20:00:00.000+00:00"}},"request":{"method":"PUT","url":"Encounter/3430b7a5-f180-4ff7-b1c0-6bbc60b7445d"}},{"fullUrl":"https://madie.cms.gov/Observation/0bc84f15-023b-414d-b04e-5a86e5acbe8d","resource":{"resourceType":"Observation","id":"0bc84f15-023b-414d-b04e-5a86e5acbe8d","meta":{"profile":["http://hl7.org/fhir/us/qicore/StructureDefinition/qicore-observation-lab"]},"status":"final","category":[{"coding":[{"system":"http://terminology.hl7.org/CodeSystem/observation-category","code":"laboratory","display":"Laboratory"}]}],"code":{"coding":[{"system":"http://loinc.org","version":"2.72","code":"2160-0","display":"Creatinine [Mass/volume] in Serum or Plasma","userSelected":true}]},"subject":{"reference":"Patient/75cf10f8-a7a4-4ac5-b60f-f73bfc9ae92e"},"effectiveDateTime":"2026-10-01T07:35:00.000+00:00","issued":"2026-10-01T08:05:00.000+00:00","valueQuantity":{"value":1.31,"unit":"mg/dL","system":"http://unitsofmeasure.org","code":"mg/dL"}},"request":{"method":"PUT","url":"Observation/0bc84f15-023b-414d-b04e-5a86e5acbe8d"}},{"fullUrl":"https://madie.cms.gov/Patient/75cf10f8-a7a4-4ac5-b60f-f73bfc9ae92e","resource":{"resourceType":"Patient","id":"75cf10f8-a7a4-4ac5-b60f-f73bfc9ae92e","meta":{"profile":["http://hl7.org/fhir/us/qicore/StructureDefinition/qicore-patient"]},"text":{"status":"generated","div":"<div xmlns=\"http://www.w3.org/1999/xhtml\"><div class=\"hapiHeaderText\">Turns 18 day of Encounter <b>DENEXPass </b></div><table class=\"hapiPropertyTable\"><tbody><tr><td>Identifier</td><td>f0eda1c9668fdacdcad3378589bf6e0a71e7dec1618f14fca4d442ec96e402b1</td></tr><tr><td>Date of birth</td><td><span>29 September 2006</span></td></tr></tbody></table></div>"},"extension":[{"url":"http://hl7.org/fhir/us/core/StructureDefinition/us-core-race","extension":[{"url":"ombCategory","valueCoding":{"system":"urn:oid:2.16.840.1.113883.6.238","code":"1002-5","display":"American Indian or Alaska Native","userSelected":true}},{"url":"text","valueString":"American Indian or Alaska Native"}]},{"url":"http://hl7.org/fhir/us/core/StructureDefinition/us-core-ethnicity","extension":[{"url":"ombCategory","valueCoding":{"system":"urn:oid:2.16.840.1.113883.6.238","code":"2135-2","display":"Hispanic or Latino","userSelected":true}},{"url":"text","valueString":"Hispanic or Latino"}]},{"url":"http://hl7.org/fhir/us/core/StructureDefinition/us-core-sex","valueCode":"248152002"}],"identifier":[{"type":{"coding":[{"system":"http://terminology.hl7.org/CodeSystem/v2-0203","code":"MR"}]},"system":"http://bonnie-fhir.healthit.gov/","value":"DENEXPass-CreatinineIncrease"}],"active":true,"name":[{"use":"usual","family":"DENEXPass","given":["CreatinineIncrease"]}],"gender":"female","birthDate":"1983-10-10"},"request":{"method":"PUT","url":"Patient/75cf10f8-a7a4-4ac5-b60f-f73bfc9ae92e"}},{"fullUrl":"https://madie.cms.gov/Observation/f2878d52-32e4-4716-aa1b-a03a7937bdd8","resource":{"resourceType":"Observation","id":"f2878d52-32e4-4716-aa1b-a03a7937bdd8","meta":{"profile":["http://hl7.org/fhir/us/qicore/StructureDefinition/qicore-observation-lab"]},"status":"final","category":[{"coding":[{"system":"http://terminology.hl7.org/CodeSystem/observation-category","code":"laboratory","display":"Laboratory"}]}],"code":{"coding":[{"system":"http://loinc.org","code":"2160-0","display":"Creatinine [Mass/volume] in Serum or Plasma"}]},"subject":{"reference":"Patient/75cf10f8-a7a4-4ac5-b60f-f73bfc9ae92e"},"effectiveDateTime":"2026-09-30T07:00:00.000+00:00","issued":"2026-09-30T07:30:00.000+00:00","valueQuantity":{"value":0.9,"unit":"mg/dL","system":"http://unitsofmeasure.org","code":"mg/dL"}},"request":{"method":"PUT","url":"Observation/f2878d52-32e4-4716-aa1b-a03a7937bdd8"}},{"fullUrl":"https://madie.cms.gov/Coverage/6e3a402f-fe76-4cfe-b935-453ecc592d1e","resource":{"resourceType":"Coverage","id":"6e3a402f-fe76-4cfe-b935-453ecc592d1e","meta":{"profile":["http://hl7.org/fhir/us/qicore/StructureDefinition/qicore-coverage"]},"status":"active","type":{"coding":[{"system":"https://nahdo.org/sopt","version":"9.2","code":"211","display":"Medicaid HMO"}]},"beneficiary":{"reference":"Patient/75cf10f8-a7a4-4ac5-b60f-f73bfc9ae92e"},"period":{"start":"2024-12-01T00:00:00.000+00:00"},"payor":[{"reference":"Organization/462a0014-a3f9-424f-b525-707c0556eef1"}]},"request":{"method":"PUT","url":"Coverage/6e3a402f-fe76-4cfe-b935-453ecc592d1e"}},{"fullUrl":"https://madie.cms.gov/Organization/462a0014-a3f9-424f-b525-707c0556eef1","resource":{"resourceType":"Organization","id":"462a0014-a3f9-424f-b525-707c0556eef1","meta":{"profile":["http://hl7.org/fhir/us/qicore/StructureDefinition/qicore-organization"]},"identifier":[{"use":"temp","system":"urn:oid:2.16.840.1.113883.4.4","value":"21-3259825"}],"active":true,"type":[{"coding":[{"system":"http://terminology.hl7.org/CodeSystem/organization-type","code":"pay","display":"Payer"}]}],"name":"Blue Cross Blue Shield of Texas","telecom":[{"system":"phone","value":"(+1) 972-766-6900"}],"address":[{"use":"billing","type":"postal","line":["P.O. Box 660044"],"city":"Dallas","state":"TX","postalCode":"75266-0044","country":"USA"}]},"request":{"method":"PUT","url":"Organization/462a0014-a3f9-424f-b525-707c0556eef1"}},{"fullUrl":"https://madie.cms.gov/Observation/0230c2b4-9737-4e3f-8ca2-f7b0f8c125b4","resource":{"resourceType":"Observation","id":"0230c2b4-9737-4e3f-8ca2-f7b0f8c125b4","meta":{"profile":["http://hl7.org/fhir/us/qicore/StructureDefinition/qicore-observation-lab"]},"status":"final","category":[{"coding":[{"system":"http://terminology.hl7.org/CodeSystem/observation-category","code":"laboratory","display":"Laboratory"}]}],"code":{"coding":[{"system":"http://loinc.org","version":"2.72","code":"2160-0","display":"Creatinine [Mass/volume] in Serum or Plasma","userSelected":true}]},"subject":{"reference":"Patient/75cf10f8-a7a4-4ac5-b60f-f73bfc9ae92e"},"effectiveDateTime":"2026-10-01T08:01:00.000+00:00","issued":"2026-10-01T08:31:00.000+00:00","valueQuantity":{"value":0.9,"unit":"mg/dL","system":"http://unitsofmeasure.org","code":"mg/dL"}},"request":{"method":"PUT","url":"Observation/0230c2b4-9737-4e3f-8ca2-f7b0f8c125b4"}},{"fullUrl":"https://madie.cms.gov/MeasureReport/f11f3f6c-9658-4c89-8c8e-3c2c1c391449","resource":{"resourceType":"MeasureReport","id":"f11f3f6c-9658-4c89-8c8e-3c2c1c391449","meta":{"profile":["http://hl7.org/fhir/us/cqfmeasures/StructureDefinition/test-case-cqfm"]},"contained":[{"resourceType":"Parameters","id":"b8d15820-d8f2-4d51-abe9-c7b9195112c3-parameters","parameter":[{"name":"subject","valueString":"75cf10f8-a7a4-4ac5-b60f-f73bfc9ae92e"}]}],"extension":[{"url":"http://hl7.org/fhir/StructureDefinition/cqf-inputParameters","valueReference":{"reference":"#b8d15820-d8f2-4d51-abe9-c7b9195112c3-parameters"}},{"url":"http://hl7.org/fhir/us/cqfmeasures/StructureDefinition/cqfm-testCaseDescription","valueMarkdown":"IP Encounter with 0.4mg/dL increase in SCr. Meets Exclusion - must be at least a 0.3 increase. \nVScode: Denominator Exclusion=[Encounter(id=DENEXPass-CreatinineIncrease0.4mg-01)]\nMADiE highlight issue special characters even in titles"}],"modifierExtension":[{"url":"http://hl7.org/fhir/us/cqfmeasures/StructureDefinition/cqfm-isTestCase","valueBoolean":true}],"status":"complete","type":"individual","measure":"https://madie.cms.gov/Measure/CMS832HHAKIFHIR","period":{"start":"2026-01-01","end":"2026-12-31"},"group":[{"id":"Group_1","population":[{"id":"InitialPopulation_1","code":{"coding":[{"system":"http://terminology.hl7.org/CodeSystem/measure-population","code":"initial-population","display":"Initial Population"}]},"count":1},{"id":"Denominator_1","code":{"coding":[{"system":"http://terminology.hl7.org/CodeSystem/measure-population","code":"denominator","display":"Denominator"}]},"count":1},{"id":"DenominatorExclusion_1","code":{"coding":[{"system":"http://terminology.hl7.org/CodeSystem/measure-population","code":"denominator-exclusion","display":"Denominator Exclusion"}]},"count":1},{"id":"Numerator_1","code":{"coding":[{"system":"http://terminology.hl7.org/CodeSystem/measure-population","code":"numerator","display":"Numerator"}]},"count":0}],"measureScore":{"value":0.0}}],"evaluatedResource":[{"reference":"MeasureReport/e2c30356-be73-430b-8864-8a69510a6480"},{"reference":"Encounter/3430b7a5-f180-4ff7-b1c0-6bbc60b7445d"},{"reference":"Observation/0bc84f15-023b-414d-b04e-5a86e5acbe8d"},{"reference":"Patient/75cf10f8-a7a4-4ac5-b60f-f73bfc9ae92e"},{"reference":"Observation/f2878d52-32e4-4716-aa1b-a03a7937bdd8"},{"reference":"Coverage/6e3a402f-fe76-4cfe-b935-453ecc592d1e"},{"reference":"Organization/462a0014-a3f9-424f-b525-707c0556eef1"},{"reference":"Observation/0230c2b4-9737-4e3f-8ca2-f7b0f8c125b4"}]},"request":{"method":"PUT","url":"MeasureReport/f11f3f6c-9658-4c89-8c8e-3c2c1c391449"}}]},"request":{"method":"PUT","url":"Bundle/tests-75cf10f8-a7a4-4ac5-b60f-f73bfc9ae92e-bundle"}},{"fullUrl":"Observation/0bc84f15-023b-414d-b04e-5a86e5acbe8d","resource":{"resourceType":"Observation","id":"0bc84f15-023b-414d-b04e-5a86e5acbe8d","meta":{"profile":["http://hl7.org/fhir/us/qicore/StructureDefinition/qicore-observation-lab"]},"status":"final","category":[{"coding":[{"system":"http://terminology.hl7.org/CodeSystem/observation-category","code":"laboratory","display":"Laboratory"}]}],"code":{"coding":[{"system":"http://loinc.org","version":"2.72","code":"2160-0","display":"Creatinine [Mass/volume] in Serum or Plasma","userSelected":true}]},"subject":{"reference":"Patient/75cf10f8-a7a4-4ac5-b60f-f73bfc9ae92e"},"effectiveDateTime":"2026-10-01T07:35:00.000+00:00","issued":"2026-10-01T08:05:00.000+00:00","valueQuantity":{"value":1.31,"unit":"mg/dL","system":"http://unitsofmeasure.org","code":"mg/dL"}},"request":{"method":"PUT","url":"Observation/0bc84f15-023b-414d-b04e-5a86e5acbe8d"}},{"fullUrl":"MeasureReport/f11f3f6c-9658-4c89-8c8e-3c2c1c391449","resource":{"resourceType":"MeasureReport","id":"f11f3f6c-9658-4c89-8c8e-3c2c1c391449","meta":{"profile":["http://hl7.org/fhir/us/cqfmeasures/StructureDefinition/test-case-cqfm"]},"contained":[{"resourceType":"Parameters","id":"b8d15820-d8f2-4d51-abe9-c7b9195112c3-parameters","parameter":[{"name":"subject","valueString":"75cf10f8-a7a4-4ac5-b60f-f73bfc9ae92e"}]}],"extension":[{"url":"http://hl7.org/fhir/StructureDefinition/cqf-inputParameters","valueReference":{"reference":"#b8d15820-d8f2-4d51-abe9-c7b9195112c3-parameters"}},{"url":"http://hl7.org/fhir/us/cqfmeasures/StructureDefinition/cqfm-testCaseDescription","valueMarkdown":"IP Encounter with 0.4mg/dL increase in SCr. Meets Exclusion - must be at least a 0.3 increase. \nVScode: Denominator Exclusion=[Encounter(id=DENEXPass-CreatinineIncrease0.4mg-01)]\nMADiE highlight issue special characters even in titles"}],"modifierExtension":[{"url":"http://hl7.org/fhir/us/cqfmeasures/StructureDefinition/cqfm-isTestCase","valueBoolean":true}],"status":"complete","type":"individual","measure":"https://madie.cms.gov/Measure/CMS832HHAKIFHIR","period":{"start":"2026-01-01","end":"2026-12-31"},"group":[{"id":"Group_1","population":[{"id":"InitialPopulation_1","code":{"coding":[{"system":"http://terminology.hl7.org/CodeSystem/measure-population","code":"initial-population","display":"Initial Population"}]},"count":1},{"id":"Denominator_1","code":{"coding":[{"system":"http://terminology.hl7.org/CodeSystem/measure-population","code":"denominator","display":"Denominator"}]},"count":1},{"id":"DenominatorExclusion_1","code":{"coding":[{"system":"http://terminology.hl7.org/CodeSystem/measure-population","code":"denominator-exclusion","display":"Denominator Exclusion"}]},"count":1},{"id":"Numerator_1","code":{"coding":[{"system":"http://terminology.hl7.org/CodeSystem/measure-population","code":"numerator","display":"Numerator"}]},"count":0}],"measureScore":{"value":0.0}}],"evaluatedResource":[{"reference":"MeasureReport/e2c30356-be73-430b-8864-8a69510a6480"},{"reference":"Encounter/3430b7a5-f180-4ff7-b1c0-6bbc60b7445d"},{"reference":"Observation/0bc84f15-023b-414d-b04e-5a86e5acbe8d"},{"reference":"Patient/75cf10f8-a7a4-4ac5-b60f-f73bfc9ae92e"},{"reference":"Observation/f2878d52-32e4-4716-aa1b-a03a7937bdd8"},{"reference":"Coverage/6e3a402f-fe76-4cfe-b935-453ecc592d1e"},{"reference":"Organization/462a0014-a3f9-424f-b525-707c0556eef1"},{"reference":"Observation/0230c2b4-9737-4e3f-8ca2-f7b0f8c125b4"}]},"request":{"method":"PUT","url":"MeasureReport/f11f3f6c-9658-4c89-8c8e-3c2c1c391449"}},{"fullUrl":"Observation/f2878d52-32e4-4716-aa1b-a03a7937bdd8","resource":{"resourceType":"Observation","id":"f2878d52-32e4-4716-aa1b-a03a7937bdd8","meta":{"profile":["http://hl7.org/fhir/us/qicore/StructureDefinition/qicore-observation-lab"]},"status":"final","category":[{"coding":[{"system":"http://terminology.hl7.org/CodeSystem/observation-category","code":"laboratory","display":"Laboratory"}]}],"code":{"coding":[{"system":"http://loinc.org","code":"2160-0","display":"Creatinine [Mass/volume] in Serum or Plasma"}]},"subject":{"reference":"Patient/75cf10f8-a7a4-4ac5-b60f-f73bfc9ae92e"},"effectiveDateTime":"2026-09-30T07:00:00.000+00:00","issued":"2026-09-30T07:30:00.000+00:00","valueQuantity":{"value":0.9,"unit":"mg/dL","system":"http://unitsofmeasure.org","code":"mg/dL"}},"request":{"method":"PUT","url":"Observation/f2878d52-32e4-4716-aa1b-a03a7937bdd8"}},{"fullUrl":"Encounter/3430b7a5-f180-4ff7-b1c0-6bbc60b7445d","resource":{"resourceType":"Encounter","id":"3430b7a5-f180-4ff7-b1c0-6bbc60b7445d","meta":{"profile":["http://hl7.org/fhir/us/qicore/StructureDefinition/qicore-encounter"]},"status":"finished","class":{"system":"http://terminology.hl7.org/CodeSystem/v3-ActCode","code":"IMP","display":"inpatient encounter"},"type":[{"coding":[{"system":"http://snomed.info/sct","code":"183452005"}]}],"subject":{"reference":"Patient/75cf10f8-a7a4-4ac5-b60f-f73bfc9ae92e"},"period":{"start":"2026-09-29T08:00:00.000+00:00","end":"2026-10-03T20:00:00.000+00:00"}},"request":{"method":"PUT","url":"Encounter/3430b7a5-f180-4ff7-b1c0-6bbc60b7445d"}},{"fullUrl":"Organization/462a0014-a3f9-424f-b525-707c0556eef1","resource":{"resourceType":"Organization","id":"462a0014-a3f9-424f-b525-707c0556eef1","meta":{"profile":["http://hl7.org/fhir/us/qicore/StructureDefinition/qicore-organization"]},"identifier":[{"use":"temp","system":"urn:oid:2.16.840.1.113883.4.4","value":"21-3259825"}],"active":true,"type":[{"coding":[{"system":"http://terminology.hl7.org/CodeSystem/organization-type","code":"pay","display":"Payer"}]}],"name":"Blue Cross Blue Shield of Texas","telecom":[{"system":"phone","value":"(+1) 972-766-6900"}],"address":[{"use":"billing","type":"postal","line":["P.O. Box 660044"],"city":"Dallas","state":"TX","postalCode":"75266-0044","country":"USA"}]},"request":{"method":"PUT","url":"Organization/462a0014-a3f9-424f-b525-707c0556eef1"}},{"fullUrl":"Coverage/6e3a402f-fe76-4cfe-b935-453ecc592d1e","resource":{"resourceType":"Coverage","id":"6e3a402f-fe76-4cfe-b935-453ecc592d1e","meta":{"profile":["http://hl7.org/fhir/us/qicore/StructureDefinition/qicore-coverage"]},"status":"active","type":{"coding":[{"system":"https://nahdo.org/sopt","version":"9.2","code":"211","display":"Medicaid HMO"}]},"beneficiary":{"reference":"Patient/75cf10f8-a7a4-4ac5-b60f-f73bfc9ae92e"},"period":{"start":"2024-12-01T00:00:00.000+00:00"},"payor":[{"reference":"Organization/462a0014-a3f9-424f-b525-707c0556eef1"}]},"request":{"method":"PUT","url":"Coverage/6e3a402f-fe76-4cfe-b935-453ecc592d1e"}},{"fullUrl":"MeasureReport/e2c30356-be73-430b-8864-8a69510a6480","resource":{"resourceType":"MeasureReport","id":"e2c30356-be73-430b-8864-8a69510a6480","meta":{"profile":["http://hl7.org/fhir/us/cqfmeasures/StructureDefinition/test-case-cqfm"]},"contained":[{"resourceType":"Parameters","id":"aa222c67-3dc9-4d71-a923-9a3b8e9a292b-parameters","parameter":[{"name":"subject","valueString":"75cf10f8-a7a4-4ac5-b60f-f73bfc9ae92e"}]}],"extension":[{"url":"http://hl7.org/fhir/us/cqfmeasures/StructureDefinition/cqfm-inputParameters","valueReference":{"reference":"#aa222c67-3dc9-4d71-a923-9a3b8e9a292b-parameters"}},{"url":"http://hl7.org/fhir/us/cqfmeasures/StructureDefinition/cqfm-testCaseDescription","valueMarkdown":"IP Encounter with 0.4mg/dL increase in SCr. Meets Exclusion - must be at least a 0.3 increase. \nVScode: Denominator Exclusion=[Encounter(id=DENEXPass-CreatinineIncrease0.4mg-01)]\nMADiE highlight issue special characters even in titles"}],"modifierExtension":[{"url":"http://hl7.org/fhir/us/cqfmeasures/StructureDefinition/cqfm-isTestCase","valueBoolean":true}],"status":"complete","type":"individual","measure":"https://madie.cms.gov/Measure/CMS832HHAKIFHIR","period":{"start":"2026-01-01","end":"2026-12-31"},"group":[{"id":"67b50f879214df46de2f1fdb","population":[{"id":"DA0D3694-7F57-4FB9-8410-1F64E44CA01E","code":{"coding":[{"system":"http://terminology.hl7.org/CodeSystem/measure-population","code":"initial-population","display":"Initial Population"}]},"count":1},{"id":"624D8554-9CB0-4BF0-882D-05C4F88BCC2C","code":{"coding":[{"system":"http://terminology.hl7.org/CodeSystem/measure-population","code":"denominator","display":"Denominator"}]},"count":1},{"id":"000FF050-D4A2-4C8B-8123-4538D35D5441","code":{"coding":[{"system":"http://terminology.hl7.org/CodeSystem/measure-population","code":"denominator-exclusion","display":"Denominator Exclusion"}]},"count":1},{"id":"01644D07-D9F8-403E-A66D-109ABA29BB6E","code":{"coding":[{"system":"http://terminology.hl7.org/CodeSystem/measure-population","code":"numerator","display":"Numerator"}]},"count":0}],"measureScore":{"value":0}}],"evaluatedResource":[{"reference":"Patient/75cf10f8-a7a4-4ac5-b60f-f73bfc9ae92e"},{"reference":"Encounter/3430b7a5-f180-4ff7-b1c0-6bbc60b7445d"},{"reference":"Observation/0230c2b4-9737-4e3f-8ca2-f7b0f8c125b4"},{"reference":"Observation/f2878d52-32e4-4716-aa1b-a03a7937bdd8"},{"reference":"Observation/0bc84f15-023b-414d-b04e-5a86e5acbe8d"},{"reference":"Coverage/6e3a402f-fe76-4cfe-b935-453ecc592d1e"},{"reference":"Organization/462a0014-a3f9-424f-b525-707c0556eef1"}]},"request":{"method":"PUT","url":"MeasureReport/e2c30356-be73-430b-8864-8a69510a6480"}},{"fullUrl":"Observation/0230c2b4-9737-4e3f-8ca2-f7b0f8c125b4","resource":{"resourceType":"Observation","id":"0230c2b4-9737-4e3f-8ca2-f7b0f8c125b4","meta":{"profile":["http://hl7.org/fhir/us/qicore/StructureDefinition/qicore-observation-lab"]},"status":"final","category":[{"coding":[{"system":"http://terminology.hl7.org/CodeSystem/observation-category","code":"laboratory","display":"Laboratory"}]}],"code":{"coding":[{"system":"http://loinc.org","version":"2.72","code":"2160-0","display":"Creatinine [Mass/volume] in Serum or Plasma","userSelected":true}]},"subject":{"reference":"Patient/75cf10f8-a7a4-4ac5-b60f-f73bfc9ae92e"},"effectiveDateTime":"2026-10-01T08:01:00.000+00:00","issued":"2026-10-01T08:31:00.000+00:00","valueQuantity":{"value":0.9,"unit":"mg/dL","system":"http://unitsofmeasure.org","code":"mg/dL"}},"request":{"method":"PUT","url":"Observation/0230c2b4-9737-4e3f-8ca2-f7b0f8c125b4"}},{"fullUrl":"Patient/75cf10f8-a7a4-4ac5-b60f-f73bfc9ae92e","resource":{"resourceType":"Patient","id":"75cf10f8-a7a4-4ac5-b60f-f73bfc9ae92e","meta":{"profile":["http://hl7.org/fhir/us/qicore/StructureDefinition/qicore-patient"]},"text":{"status":"generated","div":"<div xmlns=\"http://www.w3.org/1999/xhtml\"><div class=\"hapiHeaderText\">Turns 18 day of Encounter <b>DENEXPass </b></div><table class=\"hapiPropertyTable\"><tbody><tr><td>Identifier</td><td>f0eda1c9668fdacdcad3378589bf6e0a71e7dec1618f14fca4d442ec96e402b1</td></tr><tr><td>Date of birth</td><td><span>29 September 2006</span></td></tr></tbody></table></div>"},"extension":[{"url":"http://hl7.org/fhir/us/core/StructureDefinition/us-core-race","extension":[{"url":"ombCategory","valueCoding":{"system":"urn:oid:2.16.840.1.113883.6.238","code":"1002-5","display":"American Indian or Alaska Native","userSelected":true}},{"url":"text","valueString":"American Indian or Alaska Native"}]},{"url":"http://hl7.org/fhir/us/core/StructureDefinition/us-core-ethnicity","extension":[{"url":"ombCategory","valueCoding":{"system":"urn:oid:2.16.840.1.113883.6.238","code":"2135-2","display":"Hispanic or Latino","userSelected":true}},{"url":"text","valueString":"Hispanic or Latino"}]},{"url":"http://hl7.org/fhir/us/core/StructureDefinition/us-core-sex","valueCode":"248152002"}],"identifier":[{"type":{"coding":[{"system":"http://terminology.hl7.org/CodeSystem/v2-0203","code":"MR"}]},"system":"http://bonnie-fhir.healthit.gov/","value":"DENEXPass-CreatinineIncrease"}],"active":true,"name":[{"use":"usual","family":"DENEXPass","given":["CreatinineIncrease"]}],"gender":"female","birthDate":"1983-10-10"},"request":{"method":"PUT","url":"Patient/75cf10f8-a7a4-4ac5-b60f-f73bfc9ae92e"}}]}