{"resourceType":"Bundle","id":"tests-056c566e-f0d0-4fd7-930e-b9ea1e5caa84-bundle","type":"transaction","entry":[{"resource":{"resourceType":"Observation","id":"bdb616c0-2dc8-40e0-b38e-69ef38d8e45d","meta":{"profile":["http://hl7.org/fhir/us/qicore/StructureDefinition/qicore-observation-lab"]},"status":"final","category":[{"coding":[{"system":"http://terminology.hl7.org/CodeSystem/observation-category","code":"laboratory","display":"Laboratory"}]}],"code":{"coding":[{"system":"http://loinc.org","version":"2.72","code":"21232-4","display":"Creatinine [Mass/volume] in Serum or Plasma"}]},"subject":{"reference":"Patient/056c566e-f0d0-4fd7-930e-b9ea1e5caa84"},"effectiveDateTime":"2026-10-02T10:00:00Z","valueQuantity":{"value":1.5,"unit":"mg/dL","system":"http://unitsofmeasure.org","code":"mg/dL"}},"request":{"method":"PUT","url":"Observation/bdb616c0-2dc8-40e0-b38e-69ef38d8e45d"}},{"resource":{"resourceType":"Bundle","id":"tests-DENEXFail-MultipleCreatinine2-CMS832-bundle","type":"transaction","entry":[{"fullUrl":"https://madie.cms.gov/Observation/22d5e9f7-3d2f-4d98-8ad0-48be8e5a3541","resource":{"resourceType":"Observation","id":"22d5e9f7-3d2f-4d98-8ad0-48be8e5a3541","meta":{"profile":["http://hl7.org/fhir/us/qicore/StructureDefinition/qicore-observation-lab"]},"status":"final","category":[{"coding":[{"system":"http://terminology.hl7.org/CodeSystem/observation-category","code":"laboratory","display":"Laboratory"}]}],"code":{"coding":[{"system":"http://loinc.org","version":"2.72","code":"21232-4","display":"Creatinine [Mass/volume] in Serum or Plasma"}]},"subject":{"reference":"Patient/056c566e-f0d0-4fd7-930e-b9ea1e5caa84"},"effectiveDateTime":"2026-10-06T10:00:00Z","valueQuantity":{"value":1.7,"unit":"mg/dL","system":"http://unitsofmeasure.org","code":"mg/dL"}},"request":{"method":"PUT","url":"Observation/22d5e9f7-3d2f-4d98-8ad0-48be8e5a3541"}},{"fullUrl":"https://madie.cms.gov/Observation/bdb616c0-2dc8-40e0-b38e-69ef38d8e45d","resource":{"resourceType":"Observation","id":"bdb616c0-2dc8-40e0-b38e-69ef38d8e45d","meta":{"profile":["http://hl7.org/fhir/us/qicore/StructureDefinition/qicore-observation-lab"]},"status":"final","category":[{"coding":[{"system":"http://terminology.hl7.org/CodeSystem/observation-category","code":"laboratory","display":"Laboratory"}]}],"code":{"coding":[{"system":"http://loinc.org","version":"2.72","code":"21232-4","display":"Creatinine [Mass/volume] in Serum or Plasma"}]},"subject":{"reference":"Patient/056c566e-f0d0-4fd7-930e-b9ea1e5caa84"},"effectiveDateTime":"2026-10-02T10:00:00Z","valueQuantity":{"value":1.5,"unit":"mg/dL","system":"http://unitsofmeasure.org","code":"mg/dL"}},"request":{"method":"PUT","url":"Observation/bdb616c0-2dc8-40e0-b38e-69ef38d8e45d"}},{"fullUrl":"https://madie.cms.gov/Observation/88a34abe-76c9-449a-801f-e4c546575efb","resource":{"resourceType":"Observation","id":"88a34abe-76c9-449a-801f-e4c546575efb","meta":{"profile":["http://hl7.org/fhir/us/qicore/StructureDefinition/qicore-observation-lab"]},"status":"final","category":[{"coding":[{"system":"http://terminology.hl7.org/CodeSystem/observation-category","code":"laboratory","display":"Laboratory"}]}],"code":{"coding":[{"system":"http://loinc.org","code":"21232-4","display":"Creatinine [Mass/volume] in Serum or Plasma"}]},"subject":{"reference":"Patient/056c566e-f0d0-4fd7-930e-b9ea1e5caa84"},"effectiveDateTime":"2026-09-20T08:13:00Z","valueQuantity":{"value":0.9,"unit":"mg/dL","system":"http://unitsofmeasure.org","code":"mg/dL"}},"request":{"method":"PUT","url":"Observation/88a34abe-76c9-449a-801f-e4c546575efb"}},{"fullUrl":"https://madie.cms.gov/Encounter/5d135d42-b5be-43d7-8703-ce00e0c1cea1","resource":{"resourceType":"Encounter","id":"5d135d42-b5be-43d7-8703-ce00e0c1cea1","meta":{"profile":["http://hl7.org/fhir/us/qicore/StructureDefinition/qicore-encounter"]},"status":"finished","class":{"system":"http://terminology.hl7.org/CodeSystem/v3-ActCode","code":"IMP","display":"inpatient encounter"},"type":[{"coding":[{"system":"http://snomed.info/sct","code":"183452005","display":"Emergency hospital admission (procedure)"}]}],"subject":{"reference":"Patient/056c566e-f0d0-4fd7-930e-b9ea1e5caa84"},"period":{"start":"2026-09-20T08:00:00Z","end":"2026-10-10T20:15:00.000+00:00"}},"request":{"method":"PUT","url":"Encounter/5d135d42-b5be-43d7-8703-ce00e0c1cea1"}},{"fullUrl":"https://madie.cms.gov/Observation/fcce536c-a6fe-4497-872d-fe2319a40d3d","resource":{"resourceType":"Observation","id":"fcce536c-a6fe-4497-872d-fe2319a40d3d","meta":{"profile":["http://hl7.org/fhir/us/qicore/StructureDefinition/qicore-observation-lab"]},"status":"final","category":[{"coding":[{"system":"http://terminology.hl7.org/CodeSystem/observation-category","code":"laboratory","display":"Laboratory"}]}],"code":{"coding":[{"system":"http://loinc.org","version":"2.72","code":"21232-4","display":"Creatinine [Mass/volume] in Serum or Plasma"}]},"subject":{"reference":"Patient/056c566e-f0d0-4fd7-930e-b9ea1e5caa84"},"effectiveDateTime":"2026-09-22T13:06:00Z","valueQuantity":{"value":1.13,"unit":"mg/dL","system":"http://unitsofmeasure.org","code":"mg/dL"}},"request":{"method":"PUT","url":"Observation/fcce536c-a6fe-4497-872d-fe2319a40d3d"}},{"fullUrl":"https://madie.cms.gov/Observation/aa183620-7229-456a-9ffa-2bd6a0ab26f8","resource":{"resourceType":"Observation","id":"aa183620-7229-456a-9ffa-2bd6a0ab26f8","meta":{"profile":["http://hl7.org/fhir/us/qicore/StructureDefinition/qicore-observation-lab"]},"status":"final","category":[{"coding":[{"system":"http://terminology.hl7.org/CodeSystem/observation-category","code":"laboratory","display":"Laboratory"}]}],"code":{"coding":[{"system":"http://loinc.org","version":"2.72","code":"21232-4","display":"Creatinine [Mass/volume] in Serum or Plasma"}]},"subject":{"reference":"Patient/056c566e-f0d0-4fd7-930e-b9ea1e5caa84"},"effectiveDateTime":"2026-09-21T07:13:00Z","valueQuantity":{"value":1,"unit":"mg/dL","system":"http://unitsofmeasure.org","code":"mg/dL"}},"request":{"method":"PUT","url":"Observation/aa183620-7229-456a-9ffa-2bd6a0ab26f8"}},{"fullUrl":"https://madie.cms.gov/Observation/7509c671-1446-4d02-ac83-85c8c31d63a1","resource":{"resourceType":"Observation","id":"7509c671-1446-4d02-ac83-85c8c31d63a1","meta":{"profile":["http://hl7.org/fhir/us/qicore/StructureDefinition/qicore-observation-lab"]},"status":"final","category":[{"coding":[{"system":"http://terminology.hl7.org/CodeSystem/observation-category","code":"laboratory","display":"Laboratory"}]}],"code":{"coding":[{"system":"http://loinc.org","version":"2.72","code":"21232-4","display":"Creatinine [Mass/volume] in Serum or Plasma"}]},"subject":{"reference":"Patient/056c566e-f0d0-4fd7-930e-b9ea1e5caa84"},"effectiveDateTime":"2026-09-29T07:01:00Z","valueQuantity":{"value":1.7,"unit":"mg/dL","system":"http://unitsofmeasure.org","code":"mg/dL"}},"request":{"method":"PUT","url":"Observation/7509c671-1446-4d02-ac83-85c8c31d63a1"}},{"fullUrl":"https://madie.cms.gov/Observation/9efa4a82-83b2-4597-9e7f-b05a872d9448","resource":{"resourceType":"Observation","id":"9efa4a82-83b2-4597-9e7f-b05a872d9448","meta":{"profile":["http://hl7.org/fhir/us/qicore/StructureDefinition/qicore-observation-lab"]},"status":"final","category":[{"coding":[{"system":"http://terminology.hl7.org/CodeSystem/observation-category","code":"laboratory","display":"Laboratory"}]}],"code":{"coding":[{"system":"http://loinc.org","version":"2.72","code":"21232-4","display":"Creatinine [Mass/volume] in Serum or Plasma"}]},"subject":{"reference":"Patient/056c566e-f0d0-4fd7-930e-b9ea1e5caa84"},"effectiveDateTime":"2026-10-08T08:00:00Z","valueQuantity":{"value":2,"unit":"mg/dL","system":"http://unitsofmeasure.org","code":"mg/dL"}},"request":{"method":"PUT","url":"Observation/9efa4a82-83b2-4597-9e7f-b05a872d9448"}},{"fullUrl":"https://madie.cms.gov/Observation/7b93291f-bee3-4a70-bf5b-8682b5571c7f","resource":{"resourceType":"Observation","id":"7b93291f-bee3-4a70-bf5b-8682b5571c7f","meta":{"profile":["http://hl7.org/fhir/us/qicore/StructureDefinition/qicore-observation-lab"]},"status":"final","category":[{"coding":[{"system":"http://terminology.hl7.org/CodeSystem/observation-category","code":"laboratory","display":"Laboratory"}]}],"code":{"coding":[{"system":"http://loinc.org","version":"2.72","code":"21232-4","display":"Creatinine [Mass/volume] in Serum or Plasma"}]},"subject":{"reference":"Patient/056c566e-f0d0-4fd7-930e-b9ea1e5caa84"},"effectiveDateTime":"2026-10-07T09:00:00Z","valueQuantity":{"value":1.8,"unit":"mg/dL","system":"http://unitsofmeasure.org","code":"mg/dL"}},"request":{"method":"PUT","url":"Observation/7b93291f-bee3-4a70-bf5b-8682b5571c7f"}},{"fullUrl":"https://madie.cms.gov/Patient/056c566e-f0d0-4fd7-930e-b9ea1e5caa84","resource":{"resourceType":"Patient","id":"056c566e-f0d0-4fd7-930e-b9ea1e5caa84","meta":{"profile":["http://hl7.org/fhir/us/qicore/StructureDefinition/qicore-patient"]},"extension":[{"url":"http://hl7.org/fhir/us/core/StructureDefinition/us-core-race","extension":[{"url":"ombCategory","valueCoding":{"system":"urn:oid:2.16.840.1.113883.6.238","code":"2106-3","display":"White"}},{"url":"text","valueString":"White"}]},{"url":"http://hl7.org/fhir/us/core/StructureDefinition/us-core-ethnicity","extension":[{"url":"ombCategory","valueCoding":{"system":"urn:oid:2.16.840.1.113883.6.238","code":"2135-2","display":"Hispanic or Latino"}},{"url":"text","valueString":"Hispanic or Latino"}]},{"url":"http://hl7.org/fhir/us/core/StructureDefinition/us-core-sex","valueCode":"248153007"}],"identifier":[{"system":"http://hospital.smarthealthit.org","value":"999999999"}],"name":[{"family":"Example","given":["Patient"]}],"gender":"female","birthDate":"1956-01-01"},"request":{"method":"PUT","url":"Patient/056c566e-f0d0-4fd7-930e-b9ea1e5caa84"}},{"fullUrl":"https://madie.cms.gov/Observation/ee5981fd-245b-4d71-8441-c7149963b7a5","resource":{"resourceType":"Observation","id":"ee5981fd-245b-4d71-8441-c7149963b7a5","meta":{"profile":["http://hl7.org/fhir/us/qicore/StructureDefinition/qicore-observation-lab"]},"status":"final","category":[{"coding":[{"system":"http://terminology.hl7.org/CodeSystem/observation-category","code":"laboratory","display":"Laboratory"}]}],"code":{"coding":[{"system":"http://loinc.org","version":"2.72","code":"21232-4","display":"Creatinine [Mass/volume] in Serum or Plasma"}]},"subject":{"reference":"Patient/056c566e-f0d0-4fd7-930e-b9ea1e5caa84"},"effectiveDateTime":"2026-09-23T10:01:00Z","valueQuantity":{"value":1.9,"unit":"mg/dL","system":"http://unitsofmeasure.org","code":"mg/dL"}},"request":{"method":"PUT","url":"Observation/ee5981fd-245b-4d71-8441-c7149963b7a5"}},{"fullUrl":"https://madie.cms.gov/MeasureReport/909122ef-5228-40b0-8f27-a1db840e7414","resource":{"resourceType":"MeasureReport","id":"909122ef-5228-40b0-8f27-a1db840e7414","meta":{"profile":["http://hl7.org/fhir/us/cqfmeasures/StructureDefinition/test-case-cqfm"]},"contained":[{"resourceType":"Parameters","id":"82af6904-60d7-4196-86e8-4e33fbfb3d48-parameters","parameter":[{"name":"subject","valueString":"056c566e-f0d0-4fd7-930e-b9ea1e5caa84"}]}],"extension":[{"url":"http://hl7.org/fhir/StructureDefinition/cqf-inputParameters","valueReference":{"reference":"#82af6904-60d7-4196-86e8-4e33fbfb3d48-parameters"}},{"url":"http://hl7.org/fhir/us/cqfmeasures/StructureDefinition/cqfm-testCaseDescription","valueMarkdown":"Encounter similar to MultipleCreatinine and following tests\n1\t09-20 08:13 AM\t0.9\n2\t09-21 07:13 AM\t1.0\n3\t09-22 01:06 PM\t1.13\n4\t09-23 10:01 AM\t1.9\n5\t09-29 07:01 AM\t1.7\n6\t10-02 10:00 AM\t1.5\n7\t10-06 10:00 AM\t1.7\n8\t10-07 09:00 AM\t1.8\n9\t10-08 08:00 AM\t2.0"}],"modifierExtension":[{"url":"http://hl7.org/fhir/us/cqfmeasures/StructureDefinition/cqfm-isTestCase","valueBoolean":true}],"status":"complete","type":"individual","measure":"https://madie.cms.gov/Measure/CMS832HHAKIFHIR","period":{"start":"2026-01-01","end":"2026-12-31"},"group":[{"id":"Group_1","population":[{"id":"InitialPopulation_1","code":{"coding":[{"system":"http://terminology.hl7.org/CodeSystem/measure-population","code":"initial-population","display":"Initial Population"}]},"count":1},{"id":"Denominator_1","code":{"coding":[{"system":"http://terminology.hl7.org/CodeSystem/measure-population","code":"denominator","display":"Denominator"}]},"count":1},{"id":"DenominatorExclusion_1","code":{"coding":[{"system":"http://terminology.hl7.org/CodeSystem/measure-population","code":"denominator-exclusion","display":"Denominator Exclusion"}]},"count":0},{"id":"Numerator_1","code":{"coding":[{"system":"http://terminology.hl7.org/CodeSystem/measure-population","code":"numerator","display":"Numerator"}]},"count":0}],"measureScore":{"value":0.0}}],"evaluatedResource":[{"reference":"Observation/22d5e9f7-3d2f-4d98-8ad0-48be8e5a3541"},{"reference":"Observation/bdb616c0-2dc8-40e0-b38e-69ef38d8e45d"},{"reference":"Observation/88a34abe-76c9-449a-801f-e4c546575efb"},{"reference":"Encounter/5d135d42-b5be-43d7-8703-ce00e0c1cea1"},{"reference":"Observation/fcce536c-a6fe-4497-872d-fe2319a40d3d"},{"reference":"Observation/aa183620-7229-456a-9ffa-2bd6a0ab26f8"},{"reference":"Observation/7509c671-1446-4d02-ac83-85c8c31d63a1"},{"reference":"Observation/9efa4a82-83b2-4597-9e7f-b05a872d9448"},{"reference":"Observation/7b93291f-bee3-4a70-bf5b-8682b5571c7f"},{"reference":"Patient/056c566e-f0d0-4fd7-930e-b9ea1e5caa84"},{"reference":"Observation/ee5981fd-245b-4d71-8441-c7149963b7a5"}]},"request":{"method":"PUT","url":"MeasureReport/909122ef-5228-40b0-8f27-a1db840e7414"}}]},"request":{"method":"PUT","url":"Bundle/tests-DENEXFail-MultipleCreatinine2-CMS832-bundle"}},{"resource":{"resourceType":"Observation","id":"22d5e9f7-3d2f-4d98-8ad0-48be8e5a3541","meta":{"profile":["http://hl7.org/fhir/us/qicore/StructureDefinition/qicore-observation-lab"]},"status":"final","category":[{"coding":[{"system":"http://terminology.hl7.org/CodeSystem/observation-category","code":"laboratory","display":"Laboratory"}]}],"code":{"coding":[{"system":"http://loinc.org","version":"2.72","code":"21232-4","display":"Creatinine [Mass/volume] in Serum or Plasma"}]},"subject":{"reference":"Patient/056c566e-f0d0-4fd7-930e-b9ea1e5caa84"},"effectiveDateTime":"2026-10-06T10:00:00Z","valueQuantity":{"value":1.7,"unit":"mg/dL","system":"http://unitsofmeasure.org","code":"mg/dL"}},"request":{"method":"PUT","url":"Observation/22d5e9f7-3d2f-4d98-8ad0-48be8e5a3541"}},{"resource":{"resourceType":"Encounter","id":"5d135d42-b5be-43d7-8703-ce00e0c1cea1","meta":{"profile":["http://hl7.org/fhir/us/qicore/StructureDefinition/qicore-encounter"]},"status":"finished","class":{"system":"http://terminology.hl7.org/CodeSystem/v3-ActCode","code":"IMP","display":"inpatient encounter"},"type":[{"coding":[{"system":"http://snomed.info/sct","code":"183452005","display":"Emergency hospital admission (procedure)"}]}],"subject":{"reference":"Patient/056c566e-f0d0-4fd7-930e-b9ea1e5caa84"},"period":{"start":"2026-09-20T08:00:00Z","end":"2026-10-10T20:15:00.000+00:00"}},"request":{"method":"PUT","url":"Encounter/5d135d42-b5be-43d7-8703-ce00e0c1cea1"}},{"resource":{"resourceType":"Patient","id":"056c566e-f0d0-4fd7-930e-b9ea1e5caa84","meta":{"profile":["http://hl7.org/fhir/us/qicore/StructureDefinition/qicore-patient"]},"extension":[{"url":"http://hl7.org/fhir/us/core/StructureDefinition/us-core-race","extension":[{"url":"ombCategory","valueCoding":{"system":"urn:oid:2.16.840.1.113883.6.238","code":"2106-3","display":"White"}},{"url":"text","valueString":"White"}]},{"url":"http://hl7.org/fhir/us/core/StructureDefinition/us-core-ethnicity","extension":[{"url":"ombCategory","valueCoding":{"system":"urn:oid:2.16.840.1.113883.6.238","code":"2135-2","display":"Hispanic or Latino"}},{"url":"text","valueString":"Hispanic or Latino"}]},{"url":"http://hl7.org/fhir/us/core/StructureDefinition/us-core-sex","valueCode":"248153007"}],"identifier":[{"system":"http://hospital.smarthealthit.org","value":"999999999"}],"name":[{"family":"Example","given":["Patient"]}],"gender":"female","birthDate":"1956-01-01"},"request":{"method":"PUT","url":"Patient/056c566e-f0d0-4fd7-930e-b9ea1e5caa84"}},{"resource":{"resourceType":"Observation","id":"7b93291f-bee3-4a70-bf5b-8682b5571c7f","meta":{"profile":["http://hl7.org/fhir/us/qicore/StructureDefinition/qicore-observation-lab"]},"status":"final","category":[{"coding":[{"system":"http://terminology.hl7.org/CodeSystem/observation-category","code":"laboratory","display":"Laboratory"}]}],"code":{"coding":[{"system":"http://loinc.org","version":"2.72","code":"21232-4","display":"Creatinine [Mass/volume] in Serum or Plasma"}]},"subject":{"reference":"Patient/056c566e-f0d0-4fd7-930e-b9ea1e5caa84"},"effectiveDateTime":"2026-10-07T09:00:00Z","valueQuantity":{"value":1.8,"unit":"mg/dL","system":"http://unitsofmeasure.org","code":"mg/dL"}},"request":{"method":"PUT","url":"Observation/7b93291f-bee3-4a70-bf5b-8682b5571c7f"}},{"resource":{"resourceType":"Observation","id":"88a34abe-76c9-449a-801f-e4c546575efb","meta":{"profile":["http://hl7.org/fhir/us/qicore/StructureDefinition/qicore-observation-lab"]},"status":"final","category":[{"coding":[{"system":"http://terminology.hl7.org/CodeSystem/observation-category","code":"laboratory","display":"Laboratory"}]}],"code":{"coding":[{"system":"http://loinc.org","code":"21232-4","display":"Creatinine [Mass/volume] in Serum or Plasma"}]},"subject":{"reference":"Patient/056c566e-f0d0-4fd7-930e-b9ea1e5caa84"},"effectiveDateTime":"2026-09-20T08:13:00Z","valueQuantity":{"value":0.9,"unit":"mg/dL","system":"http://unitsofmeasure.org","code":"mg/dL"}},"request":{"method":"PUT","url":"Observation/88a34abe-76c9-449a-801f-e4c546575efb"}},{"resource":{"resourceType":"Observation","id":"fcce536c-a6fe-4497-872d-fe2319a40d3d","meta":{"profile":["http://hl7.org/fhir/us/qicore/StructureDefinition/qicore-observation-lab"]},"status":"final","category":[{"coding":[{"system":"http://terminology.hl7.org/CodeSystem/observation-category","code":"laboratory","display":"Laboratory"}]}],"code":{"coding":[{"system":"http://loinc.org","version":"2.72","code":"21232-4","display":"Creatinine [Mass/volume] in Serum or Plasma"}]},"subject":{"reference":"Patient/056c566e-f0d0-4fd7-930e-b9ea1e5caa84"},"effectiveDateTime":"2026-09-22T13:06:00Z","valueQuantity":{"value":1.13,"unit":"mg/dL","system":"http://unitsofmeasure.org","code":"mg/dL"}},"request":{"method":"PUT","url":"Observation/fcce536c-a6fe-4497-872d-fe2319a40d3d"}},{"resource":{"resourceType":"MeasureReport","id":"909122ef-5228-40b0-8f27-a1db840e7414","meta":{"profile":["http://hl7.org/fhir/us/cqfmeasures/StructureDefinition/test-case-cqfm"]},"contained":[{"resourceType":"Parameters","id":"82af6904-60d7-4196-86e8-4e33fbfb3d48-parameters","parameter":[{"name":"subject","valueString":"056c566e-f0d0-4fd7-930e-b9ea1e5caa84"}]}],"extension":[{"url":"http://hl7.org/fhir/StructureDefinition/cqf-inputParameters","valueReference":{"reference":"#82af6904-60d7-4196-86e8-4e33fbfb3d48-parameters"}},{"url":"http://hl7.org/fhir/us/cqfmeasures/StructureDefinition/cqfm-testCaseDescription","valueMarkdown":"Encounter similar to MultipleCreatinine and following tests\n1\t09-20 08:13 AM\t0.9\n2\t09-21 07:13 AM\t1.0\n3\t09-22 01:06 PM\t1.13\n4\t09-23 10:01 AM\t1.9\n5\t09-29 07:01 AM\t1.7\n6\t10-02 10:00 AM\t1.5\n7\t10-06 10:00 AM\t1.7\n8\t10-07 09:00 AM\t1.8\n9\t10-08 08:00 AM\t2.0"}],"modifierExtension":[{"url":"http://hl7.org/fhir/us/cqfmeasures/StructureDefinition/cqfm-isTestCase","valueBoolean":true}],"status":"complete","type":"individual","measure":"https://madie.cms.gov/Measure/CMS832HHAKIFHIR","period":{"start":"2026-01-01","end":"2026-12-31"},"group":[{"id":"Group_1","population":[{"id":"InitialPopulation_1","code":{"coding":[{"system":"http://terminology.hl7.org/CodeSystem/measure-population","code":"initial-population","display":"Initial Population"}]},"count":1},{"id":"Denominator_1","code":{"coding":[{"system":"http://terminology.hl7.org/CodeSystem/measure-population","code":"denominator","display":"Denominator"}]},"count":1},{"id":"DenominatorExclusion_1","code":{"coding":[{"system":"http://terminology.hl7.org/CodeSystem/measure-population","code":"denominator-exclusion","display":"Denominator Exclusion"}]},"count":0},{"id":"Numerator_1","code":{"coding":[{"system":"http://terminology.hl7.org/CodeSystem/measure-population","code":"numerator","display":"Numerator"}]},"count":0}],"measureScore":{"value":0.0}}],"evaluatedResource":[{"reference":"Observation/22d5e9f7-3d2f-4d98-8ad0-48be8e5a3541"},{"reference":"Observation/bdb616c0-2dc8-40e0-b38e-69ef38d8e45d"},{"reference":"Observation/88a34abe-76c9-449a-801f-e4c546575efb"},{"reference":"Encounter/5d135d42-b5be-43d7-8703-ce00e0c1cea1"},{"reference":"Observation/fcce536c-a6fe-4497-872d-fe2319a40d3d"},{"reference":"Observation/aa183620-7229-456a-9ffa-2bd6a0ab26f8"},{"reference":"Observation/7509c671-1446-4d02-ac83-85c8c31d63a1"},{"reference":"Observation/9efa4a82-83b2-4597-9e7f-b05a872d9448"},{"reference":"Observation/7b93291f-bee3-4a70-bf5b-8682b5571c7f"},{"reference":"Patient/056c566e-f0d0-4fd7-930e-b9ea1e5caa84"},{"reference":"Observation/ee5981fd-245b-4d71-8441-c7149963b7a5"}]},"request":{"method":"PUT","url":"MeasureReport/909122ef-5228-40b0-8f27-a1db840e7414"}},{"resource":{"resourceType":"Observation","id":"ee5981fd-245b-4d71-8441-c7149963b7a5","meta":{"profile":["http://hl7.org/fhir/us/qicore/StructureDefinition/qicore-observation-lab"]},"status":"final","category":[{"coding":[{"system":"http://terminology.hl7.org/CodeSystem/observation-category","code":"laboratory","display":"Laboratory"}]}],"code":{"coding":[{"system":"http://loinc.org","version":"2.72","code":"21232-4","display":"Creatinine [Mass/volume] in Serum or Plasma"}]},"subject":{"reference":"Patient/056c566e-f0d0-4fd7-930e-b9ea1e5caa84"},"effectiveDateTime":"2026-09-23T10:01:00Z","valueQuantity":{"value":1.9,"unit":"mg/dL","system":"http://unitsofmeasure.org","code":"mg/dL"}},"request":{"method":"PUT","url":"Observation/ee5981fd-245b-4d71-8441-c7149963b7a5"}},{"resource":{"resourceType":"Observation","id":"9efa4a82-83b2-4597-9e7f-b05a872d9448","meta":{"profile":["http://hl7.org/fhir/us/qicore/StructureDefinition/qicore-observation-lab"]},"status":"final","category":[{"coding":[{"system":"http://terminology.hl7.org/CodeSystem/observation-category","code":"laboratory","display":"Laboratory"}]}],"code":{"coding":[{"system":"http://loinc.org","version":"2.72","code":"21232-4","display":"Creatinine [Mass/volume] in Serum or Plasma"}]},"subject":{"reference":"Patient/056c566e-f0d0-4fd7-930e-b9ea1e5caa84"},"effectiveDateTime":"2026-10-08T08:00:00Z","valueQuantity":{"value":2,"unit":"mg/dL","system":"http://unitsofmeasure.org","code":"mg/dL"}},"request":{"method":"PUT","url":"Observation/9efa4a82-83b2-4597-9e7f-b05a872d9448"}},{"resource":{"resourceType":"Observation","id":"aa183620-7229-456a-9ffa-2bd6a0ab26f8","meta":{"profile":["http://hl7.org/fhir/us/qicore/StructureDefinition/qicore-observation-lab"]},"status":"final","category":[{"coding":[{"system":"http://terminology.hl7.org/CodeSystem/observation-category","code":"laboratory","display":"Laboratory"}]}],"code":{"coding":[{"system":"http://loinc.org","version":"2.72","code":"21232-4","display":"Creatinine [Mass/volume] in Serum or Plasma"}]},"subject":{"reference":"Patient/056c566e-f0d0-4fd7-930e-b9ea1e5caa84"},"effectiveDateTime":"2026-09-21T07:13:00Z","valueQuantity":{"value":1,"unit":"mg/dL","system":"http://unitsofmeasure.org","code":"mg/dL"}},"request":{"method":"PUT","url":"Observation/aa183620-7229-456a-9ffa-2bd6a0ab26f8"}},{"resource":{"resourceType":"Observation","id":"7509c671-1446-4d02-ac83-85c8c31d63a1","meta":{"profile":["http://hl7.org/fhir/us/qicore/StructureDefinition/qicore-observation-lab"]},"status":"final","category":[{"coding":[{"system":"http://terminology.hl7.org/CodeSystem/observation-category","code":"laboratory","display":"Laboratory"}]}],"code":{"coding":[{"system":"http://loinc.org","version":"2.72","code":"21232-4","display":"Creatinine [Mass/volume] in Serum or Plasma"}]},"subject":{"reference":"Patient/056c566e-f0d0-4fd7-930e-b9ea1e5caa84"},"effectiveDateTime":"2026-09-29T07:01:00Z","valueQuantity":{"value":1.7,"unit":"mg/dL","system":"http://unitsofmeasure.org","code":"mg/dL"}},"request":{"method":"PUT","url":"Observation/7509c671-1446-4d02-ac83-85c8c31d63a1"}}]}