{"resourceType":"Bundle","id":"tests-3731688f-4261-42cc-943a-202b69beab97-bundle","type":"transaction","entry":[{"fullUrl":"Encounter/9ab4f707-c85d-4ee8-a6f5-3e272b1680a9","resource":{"resourceType":"Encounter","id":"9ab4f707-c85d-4ee8-a6f5-3e272b1680a9","meta":{"profile":["http://hl7.org/fhir/us/qicore/StructureDefinition/qicore-encounter"]},"status":"finished","class":{"system":"http://terminology.hl7.org/CodeSystem/v3-ActCode","code":"IMP","display":"inpatient encounter"},"type":[{"coding":[{"system":"http://snomed.info/sct","code":"183452005"}]}],"subject":{"reference":"Patient/3731688f-4261-42cc-943a-202b69beab97"},"period":{"start":"2026-09-29T20:01:00.000+00:00","end":"2026-10-03T20:00:00.000+00:00"}},"request":{"method":"PUT","url":"Encounter/9ab4f707-c85d-4ee8-a6f5-3e272b1680a9"}},{"fullUrl":"Observation/09e295f9-5988-4709-9c79-5582089eb310","resource":{"resourceType":"Observation","id":"09e295f9-5988-4709-9c79-5582089eb310","meta":{"profile":["http://hl7.org/fhir/us/qicore/StructureDefinition/qicore-observation-lab"]},"status":"final","category":[{"coding":[{"system":"http://terminology.hl7.org/CodeSystem/observation-category","code":"laboratory","display":"Laboratory"}]}],"code":{"coding":[{"system":"http://loinc.org","code":"2160-0","display":"Creatinine [Mass/volume] in Serum or Plasma"}]},"subject":{"reference":"Patient/3731688f-4261-42cc-943a-202b69beab97"},"effectiveDateTime":"2026-10-01T07:00:00.000+00:00","issued":"2026-10-01T07:30:00.000+00:00","valueQuantity":{"value":1,"unit":"mg/dL","system":"http://unitsofmeasure.org","code":"mg/dL"}},"request":{"method":"PUT","url":"Observation/09e295f9-5988-4709-9c79-5582089eb310"}},{"fullUrl":"Patient/3731688f-4261-42cc-943a-202b69beab97","resource":{"resourceType":"Patient","id":"3731688f-4261-42cc-943a-202b69beab97","meta":{"profile":["http://hl7.org/fhir/us/qicore/StructureDefinition/qicore-patient"]},"text":{"status":"generated","div":"<div xmlns=\"http://www.w3.org/1999/xhtml\"><div class=\"hapiHeaderText\">Turns 18 day of Encounter <b>DENEXPass </b></div><table class=\"hapiPropertyTable\"><tbody><tr><td>Identifier</td><td>f0eda1c9668fdacdcad3378589bf6e0a71e7dec1618f14fca4d442ec96e402b1</td></tr><tr><td>Date of birth</td><td><span>29 September 2006</span></td></tr></tbody></table></div>"},"extension":[{"url":"http://hl7.org/fhir/us/core/StructureDefinition/us-core-race","extension":[{"url":"ombCategory","valueCoding":{"system":"urn:oid:2.16.840.1.113883.6.238","code":"1002-5","display":"American Indian or Alaska Native","userSelected":true}},{"url":"text","valueString":"American Indian or Alaska Native"}]},{"url":"http://hl7.org/fhir/us/core/StructureDefinition/us-core-ethnicity","extension":[{"url":"ombCategory","valueCoding":{"system":"urn:oid:2.16.840.1.113883.6.238","code":"2135-2","display":"Hispanic or Latino","userSelected":true}},{"url":"text","valueString":"Hispanic or Latino"}]},{"url":"http://hl7.org/fhir/us/core/StructureDefinition/us-core-sex","valueCode":"248152002"}],"identifier":[{"type":{"coding":[{"system":"http://terminology.hl7.org/CodeSystem/v2-0203","code":"MR"}]},"system":"http://bonnie-fhir.healthit.gov/","value":"DENEXPass-TwoEncFemaleeGFRLowAndHigh"}],"active":true,"name":[{"use":"usual","family":"DENEXPass","given":["TwoEncFemaleeGFRLowAndHigh"]}],"gender":"female","birthDate":"1983-10-10"},"request":{"method":"PUT","url":"Patient/3731688f-4261-42cc-943a-202b69beab97"}},{"fullUrl":"Encounter/ac310383-d5e6-443d-9913-d4593115f622","resource":{"resourceType":"Encounter","id":"ac310383-d5e6-443d-9913-d4593115f622","meta":{"profile":["http://hl7.org/fhir/us/qicore/StructureDefinition/qicore-encounter"]},"status":"finished","class":{"system":"http://terminology.hl7.org/CodeSystem/v3-ActCode","code":"EMER","display":"emergency"},"type":[{"coding":[{"system":"http://snomed.info/sct","code":"4525004"}]}],"subject":{"reference":"Patient/3731688f-4261-42cc-943a-202b69beab97"},"period":{"start":"2026-09-29T08:00:00.000+00:00","end":"2026-09-29T20:00:00.000+00:00"}},"request":{"method":"PUT","url":"Encounter/ac310383-d5e6-443d-9913-d4593115f622"}},{"fullUrl":"Coverage/38451547-717b-41e1-8fdb-b06ba9026972","resource":{"resourceType":"Coverage","id":"38451547-717b-41e1-8fdb-b06ba9026972","meta":{"profile":["http://hl7.org/fhir/us/qicore/StructureDefinition/qicore-coverage"]},"status":"active","type":{"coding":[{"system":"https://nahdo.org/sopt","version":"9.2","code":"211","display":"Medicaid HMO"}]},"beneficiary":{"reference":"Patient/3731688f-4261-42cc-943a-202b69beab97"},"period":{"start":"2024-12-01T00:00:00.000+00:00"},"payor":[{"reference":"Organization/d1e41c5c-2731-43e3-a06d-0fc563b323e4"}]},"request":{"method":"PUT","url":"Coverage/38451547-717b-41e1-8fdb-b06ba9026972"}},{"fullUrl":"MeasureReport/b8a1331a-81d8-4166-baaa-daeb3c6b1b51","resource":{"resourceType":"MeasureReport","id":"b8a1331a-81d8-4166-baaa-daeb3c6b1b51","meta":{"profile":["http://hl7.org/fhir/us/cqfmeasures/StructureDefinition/test-case-cqfm"]},"contained":[{"resourceType":"Parameters","id":"a3f07901-e123-425a-b394-86d6d9c830cc-parameters","parameter":[{"name":"subject","valueString":"3731688f-4261-42cc-943a-202b69beab97"}]}],"extension":[{"url":"http://hl7.org/fhir/us/cqfmeasures/StructureDefinition/cqfm-inputParameters","valueReference":{"reference":"#a3f07901-e123-425a-b394-86d6d9c830cc-parameters"}},{"url":"http://hl7.org/fhir/us/cqfmeasures/StructureDefinition/cqfm-testCaseDescription","valueMarkdown":"IP Female Enc #1 with eGFR of 63. SCr is within first 24 hours.\nVScode: Denominator Exclusion=[Encounter(id=DENEXPass-TwoEncFemaleeGFRLowAndHigh-03)]"}],"modifierExtension":[{"url":"http://hl7.org/fhir/us/cqfmeasures/StructureDefinition/cqfm-isTestCase","valueBoolean":true}],"status":"complete","type":"individual","measure":"https://madie.cms.gov/Measure/CMS832HHAKIFHIR","period":{"start":"2026-01-01","end":"2026-12-31"},"group":[{"id":"67b50f879214df46de2f1fdb","population":[{"id":"DA0D3694-7F57-4FB9-8410-1F64E44CA01E","code":{"coding":[{"system":"http://terminology.hl7.org/CodeSystem/measure-population","code":"initial-population","display":"Initial Population"}]},"count":2},{"id":"624D8554-9CB0-4BF0-882D-05C4F88BCC2C","code":{"coding":[{"system":"http://terminology.hl7.org/CodeSystem/measure-population","code":"denominator","display":"Denominator"}]},"count":2},{"id":"000FF050-D4A2-4C8B-8123-4538D35D5441","code":{"coding":[{"system":"http://terminology.hl7.org/CodeSystem/measure-population","code":"denominator-exclusion","display":"Denominator Exclusion"}]},"count":1},{"id":"01644D07-D9F8-403E-A66D-109ABA29BB6E","code":{"coding":[{"system":"http://terminology.hl7.org/CodeSystem/measure-population","code":"numerator","display":"Numerator"}]},"count":0}],"measureScore":{"value":0}}],"evaluatedResource":[{"reference":"Patient/3731688f-4261-42cc-943a-202b69beab97"},{"reference":"Encounter/ac310383-d5e6-443d-9913-d4593115f622"},{"reference":"Encounter/9ab4f707-c85d-4ee8-a6f5-3e272b1680a9"},{"reference":"Encounter/36b9e3b4-6eb1-4d3c-9dd4-ae2b4c2b64a8"},{"reference":"Observation/8736167f-a40d-430c-b426-366987c59f07"},{"reference":"Observation/f5b13ad3-ca0b-4612-85d1-b83c86419ede"},{"reference":"Observation/c52c8cfc-95ae-405b-bee8-b53455bb1036"},{"reference":"Observation/6007b282-df88-4cf8-9900-9c2748704fe4"},{"reference":"Observation/09e295f9-5988-4709-9c79-5582089eb310"},{"reference":"Observation/a1477c06-eecc-4627-b124-a89dcfaa97db"},{"reference":"Coverage/38451547-717b-41e1-8fdb-b06ba9026972"},{"reference":"Organization/d1e41c5c-2731-43e3-a06d-0fc563b323e4"}]},"request":{"method":"PUT","url":"MeasureReport/b8a1331a-81d8-4166-baaa-daeb3c6b1b51"}},{"fullUrl":"Observation/a1477c06-eecc-4627-b124-a89dcfaa97db","resource":{"resourceType":"Observation","id":"a1477c06-eecc-4627-b124-a89dcfaa97db","meta":{"profile":["http://hl7.org/fhir/us/qicore/StructureDefinition/qicore-observation-lab"]},"status":"final","category":[{"coding":[{"system":"http://terminology.hl7.org/CodeSystem/observation-category","code":"laboratory","display":"Laboratory"}]}],"code":{"coding":[{"system":"http://loinc.org","version":"2.72","code":"2160-0","display":"Creatinine [Mass/volume] in Serum or Plasma","userSelected":true}]},"subject":{"reference":"Patient/3731688f-4261-42cc-943a-202b69beab97"},"effectiveDateTime":"2026-10-01T07:35:00.000+00:00","issued":"2026-10-01T08:05:00.000+00:00","valueQuantity":{"value":1.12,"unit":"mg/dL","system":"http://unitsofmeasure.org","code":"mg/dL"}},"request":{"method":"PUT","url":"Observation/a1477c06-eecc-4627-b124-a89dcfaa97db"}},{"fullUrl":"Bundle/tests-3731688f-4261-42cc-943a-202b69beab97-bundle","resource":{"resourceType":"Bundle","id":"tests-3731688f-4261-42cc-943a-202b69beab97-bundle","type":"transaction","entry":[{"fullUrl":"https://madie.cms.gov/Encounter/36b9e3b4-6eb1-4d3c-9dd4-ae2b4c2b64a8","resource":{"resourceType":"Encounter","id":"36b9e3b4-6eb1-4d3c-9dd4-ae2b4c2b64a8","meta":{"profile":["http://hl7.org/fhir/us/qicore/StructureDefinition/qicore-encounter"]},"status":"finished","class":{"system":"http://terminology.hl7.org/CodeSystem/v3-ActCode","code":"IMP","display":"inpatient encounter"},"type":[{"coding":[{"system":"http://snomed.info/sct","code":"183452005"}]}],"subject":{"reference":"Patient/3731688f-4261-42cc-943a-202b69beab97"},"period":{"start":"2026-11-04T08:00:00.000+00:00","end":"2026-11-12T08:15:00.000+00:00"}},"request":{"method":"PUT","url":"Encounter/36b9e3b4-6eb1-4d3c-9dd4-ae2b4c2b64a8"}},{"fullUrl":"https://madie.cms.gov/Observation/6007b282-df88-4cf8-9900-9c2748704fe4","resource":{"resourceType":"Observation","id":"6007b282-df88-4cf8-9900-9c2748704fe4","meta":{"profile":["http://hl7.org/fhir/us/qicore/StructureDefinition/qicore-observation-lab"]},"status":"final","category":[{"coding":[{"system":"http://terminology.hl7.org/CodeSystem/observation-category","code":"laboratory","display":"Laboratory"}]}],"code":{"coding":[{"system":"http://loinc.org","version":"2.72","code":"2160-0","display":"Creatinine [Mass/volume] in Serum or Plasma","userSelected":true}]},"subject":{"reference":"Patient/3731688f-4261-42cc-943a-202b69beab97"},"effectiveDateTime":"2026-10-01T08:01:00.000+00:00","issued":"2026-10-01T08:31:00.000+00:00","valueQuantity":{"value":1.14,"unit":"mg/dL","system":"http://unitsofmeasure.org","code":"mg/dL"}},"request":{"method":"PUT","url":"Observation/6007b282-df88-4cf8-9900-9c2748704fe4"}},{"fullUrl":"https://madie.cms.gov/Observation/09e295f9-5988-4709-9c79-5582089eb310","resource":{"resourceType":"Observation","id":"09e295f9-5988-4709-9c79-5582089eb310","meta":{"profile":["http://hl7.org/fhir/us/qicore/StructureDefinition/qicore-observation-lab"]},"status":"final","category":[{"coding":[{"system":"http://terminology.hl7.org/CodeSystem/observation-category","code":"laboratory","display":"Laboratory"}]}],"code":{"coding":[{"system":"http://loinc.org","code":"2160-0","display":"Creatinine [Mass/volume] in Serum or Plasma"}]},"subject":{"reference":"Patient/3731688f-4261-42cc-943a-202b69beab97"},"effectiveDateTime":"2026-10-01T07:00:00.000+00:00","issued":"2026-10-01T07:30:00.000+00:00","valueQuantity":{"value":1,"unit":"mg/dL","system":"http://unitsofmeasure.org","code":"mg/dL"}},"request":{"method":"PUT","url":"Observation/09e295f9-5988-4709-9c79-5582089eb310"}},{"fullUrl":"https://madie.cms.gov/Observation/f5b13ad3-ca0b-4612-85d1-b83c86419ede","resource":{"resourceType":"Observation","id":"f5b13ad3-ca0b-4612-85d1-b83c86419ede","meta":{"profile":["http://hl7.org/fhir/us/qicore/StructureDefinition/qicore-observation-lab"]},"status":"final","category":[{"coding":[{"system":"http://terminology.hl7.org/CodeSystem/observation-category","code":"laboratory","display":"Laboratory"}]}],"code":{"coding":[{"system":"http://loinc.org","version":"2.72","code":"2160-0","display":"Creatinine [Mass/volume] in Serum or Plasma","userSelected":true}]},"subject":{"reference":"Patient/3731688f-4261-42cc-943a-202b69beab97"},"effectiveDateTime":"2026-11-05T09:00:00.000+00:00","issued":"2026-11-05T09:30:00.000+00:00","valueQuantity":{"value":0.7,"unit":"mg/dL","system":"http://unitsofmeasure.org","code":"mg/dL"}},"request":{"method":"PUT","url":"Observation/f5b13ad3-ca0b-4612-85d1-b83c86419ede"}},{"fullUrl":"https://madie.cms.gov/Observation/8736167f-a40d-430c-b426-366987c59f07","resource":{"resourceType":"Observation","id":"8736167f-a40d-430c-b426-366987c59f07","meta":{"profile":["http://hl7.org/fhir/us/qicore/StructureDefinition/qicore-observation-lab"]},"status":"final","category":[{"coding":[{"system":"http://terminology.hl7.org/CodeSystem/observation-category","code":"laboratory","display":"Laboratory"}]}],"code":{"coding":[{"system":"http://loinc.org","version":"2.72","code":"2160-0","display":"Creatinine [Mass/volume] in Serum or Plasma","userSelected":true}]},"subject":{"reference":"Patient/3731688f-4261-42cc-943a-202b69beab97"},"effectiveDateTime":"2026-11-07T09:00:00.000+00:00","issued":"2026-11-07T09:30:00.000+00:00","valueQuantity":{"value":0.7,"unit":"mg/dL","system":"http://unitsofmeasure.org","code":"mg/dL"}},"request":{"method":"PUT","url":"Observation/8736167f-a40d-430c-b426-366987c59f07"}},{"fullUrl":"https://madie.cms.gov/Observation/a1477c06-eecc-4627-b124-a89dcfaa97db","resource":{"resourceType":"Observation","id":"a1477c06-eecc-4627-b124-a89dcfaa97db","meta":{"profile":["http://hl7.org/fhir/us/qicore/StructureDefinition/qicore-observation-lab"]},"status":"final","category":[{"coding":[{"system":"http://terminology.hl7.org/CodeSystem/observation-category","code":"laboratory","display":"Laboratory"}]}],"code":{"coding":[{"system":"http://loinc.org","version":"2.72","code":"2160-0","display":"Creatinine [Mass/volume] in Serum or Plasma","userSelected":true}]},"subject":{"reference":"Patient/3731688f-4261-42cc-943a-202b69beab97"},"effectiveDateTime":"2026-10-01T07:35:00.000+00:00","issued":"2026-10-01T08:05:00.000+00:00","valueQuantity":{"value":1.12,"unit":"mg/dL","system":"http://unitsofmeasure.org","code":"mg/dL"}},"request":{"method":"PUT","url":"Observation/a1477c06-eecc-4627-b124-a89dcfaa97db"}},{"fullUrl":"https://madie.cms.gov/Coverage/38451547-717b-41e1-8fdb-b06ba9026972","resource":{"resourceType":"Coverage","id":"38451547-717b-41e1-8fdb-b06ba9026972","meta":{"profile":["http://hl7.org/fhir/us/qicore/StructureDefinition/qicore-coverage"]},"status":"active","type":{"coding":[{"system":"https://nahdo.org/sopt","version":"9.2","code":"211","display":"Medicaid HMO"}]},"beneficiary":{"reference":"Patient/3731688f-4261-42cc-943a-202b69beab97"},"period":{"start":"2024-12-01T00:00:00.000+00:00"},"payor":[{"reference":"Organization/d1e41c5c-2731-43e3-a06d-0fc563b323e4"}]},"request":{"method":"PUT","url":"Coverage/38451547-717b-41e1-8fdb-b06ba9026972"}},{"fullUrl":"https://madie.cms.gov/Encounter/9ab4f707-c85d-4ee8-a6f5-3e272b1680a9","resource":{"resourceType":"Encounter","id":"9ab4f707-c85d-4ee8-a6f5-3e272b1680a9","meta":{"profile":["http://hl7.org/fhir/us/qicore/StructureDefinition/qicore-encounter"]},"status":"finished","class":{"system":"http://terminology.hl7.org/CodeSystem/v3-ActCode","code":"IMP","display":"inpatient encounter"},"type":[{"coding":[{"system":"http://snomed.info/sct","code":"183452005"}]}],"subject":{"reference":"Patient/3731688f-4261-42cc-943a-202b69beab97"},"period":{"start":"2026-09-29T20:01:00.000+00:00","end":"2026-10-03T20:00:00.000+00:00"}},"request":{"method":"PUT","url":"Encounter/9ab4f707-c85d-4ee8-a6f5-3e272b1680a9"}},{"fullUrl":"https://madie.cms.gov/Patient/3731688f-4261-42cc-943a-202b69beab97","resource":{"resourceType":"Patient","id":"3731688f-4261-42cc-943a-202b69beab97","meta":{"profile":["http://hl7.org/fhir/us/qicore/StructureDefinition/qicore-patient"]},"text":{"status":"generated","div":"<div xmlns=\"http://www.w3.org/1999/xhtml\"><div class=\"hapiHeaderText\">Turns 18 day of Encounter <b>DENEXPass </b></div><table class=\"hapiPropertyTable\"><tbody><tr><td>Identifier</td><td>f0eda1c9668fdacdcad3378589bf6e0a71e7dec1618f14fca4d442ec96e402b1</td></tr><tr><td>Date of birth</td><td><span>29 September 2006</span></td></tr></tbody></table></div>"},"extension":[{"url":"http://hl7.org/fhir/us/core/StructureDefinition/us-core-race","extension":[{"url":"ombCategory","valueCoding":{"system":"urn:oid:2.16.840.1.113883.6.238","code":"1002-5","display":"American Indian or Alaska Native","userSelected":true}},{"url":"text","valueString":"American Indian or Alaska Native"}]},{"url":"http://hl7.org/fhir/us/core/StructureDefinition/us-core-ethnicity","extension":[{"url":"ombCategory","valueCoding":{"system":"urn:oid:2.16.840.1.113883.6.238","code":"2135-2","display":"Hispanic or Latino","userSelected":true}},{"url":"text","valueString":"Hispanic or Latino"}]},{"url":"http://hl7.org/fhir/us/core/StructureDefinition/us-core-sex","valueCode":"248152002"}],"identifier":[{"type":{"coding":[{"system":"http://terminology.hl7.org/CodeSystem/v2-0203","code":"MR"}]},"system":"http://bonnie-fhir.healthit.gov/","value":"DENEXPass-TwoEncFemaleeGFRLowAndHigh"}],"active":true,"name":[{"use":"usual","family":"DENEXPass","given":["TwoEncFemaleeGFRLowAndHigh"]}],"gender":"female","birthDate":"1983-10-10"},"request":{"method":"PUT","url":"Patient/3731688f-4261-42cc-943a-202b69beab97"}},{"fullUrl":"https://madie.cms.gov/Observation/c52c8cfc-95ae-405b-bee8-b53455bb1036","resource":{"resourceType":"Observation","id":"c52c8cfc-95ae-405b-bee8-b53455bb1036","meta":{"profile":["http://hl7.org/fhir/us/qicore/StructureDefinition/qicore-observation-lab"]},"status":"final","category":[{"coding":[{"system":"http://terminology.hl7.org/CodeSystem/observation-category","code":"laboratory","display":"Laboratory"}]}],"code":{"coding":[{"system":"http://loinc.org","code":"2160-0","display":"Creatinine [Mass/volume] in Serum or Plasma"}]},"subject":{"reference":"Patient/3731688f-4261-42cc-943a-202b69beab97"},"effectiveDateTime":"2026-11-04T09:00:00.000+00:00","issued":"2026-11-04T09:30:00.000+00:00","valueQuantity":{"value":1.5,"unit":"mg/dL","system":"http://unitsofmeasure.org","code":"mg/dL"}},"request":{"method":"PUT","url":"Observation/c52c8cfc-95ae-405b-bee8-b53455bb1036"}},{"fullUrl":"https://madie.cms.gov/Organization/d1e41c5c-2731-43e3-a06d-0fc563b323e4","resource":{"resourceType":"Organization","id":"d1e41c5c-2731-43e3-a06d-0fc563b323e4","meta":{"profile":["http://hl7.org/fhir/us/qicore/StructureDefinition/qicore-organization"]},"identifier":[{"use":"temp","system":"urn:oid:2.16.840.1.113883.4.4","value":"21-3259825"}],"active":true,"type":[{"coding":[{"system":"http://terminology.hl7.org/CodeSystem/organization-type","code":"pay","display":"Payer"}]}],"name":"Blue Cross Blue Shield of Texas","telecom":[{"system":"phone","value":"(+1) 972-766-6900"}],"address":[{"use":"billing","type":"postal","line":["P.O. Box 660044"],"city":"Dallas","state":"TX","postalCode":"75266-0044","country":"USA"}]},"request":{"method":"PUT","url":"Organization/d1e41c5c-2731-43e3-a06d-0fc563b323e4"}},{"fullUrl":"https://madie.cms.gov/MeasureReport/b8a1331a-81d8-4166-baaa-daeb3c6b1b51","resource":{"resourceType":"MeasureReport","id":"b8a1331a-81d8-4166-baaa-daeb3c6b1b51","meta":{"profile":["http://hl7.org/fhir/us/cqfmeasures/StructureDefinition/test-case-cqfm"]},"contained":[{"resourceType":"Parameters","id":"a3f07901-e123-425a-b394-86d6d9c830cc-parameters","parameter":[{"name":"subject","valueString":"3731688f-4261-42cc-943a-202b69beab97"}]}],"extension":[{"url":"http://hl7.org/fhir/us/cqfmeasures/StructureDefinition/cqfm-inputParameters","valueReference":{"reference":"#a3f07901-e123-425a-b394-86d6d9c830cc-parameters"}},{"url":"http://hl7.org/fhir/us/cqfmeasures/StructureDefinition/cqfm-testCaseDescription","valueMarkdown":"IP Female Enc #1 with eGFR of 63. SCr is within first 24 hours.\nVScode: Denominator Exclusion=[Encounter(id=DENEXPass-TwoEncFemaleeGFRLowAndHigh-03)]"}],"modifierExtension":[{"url":"http://hl7.org/fhir/us/cqfmeasures/StructureDefinition/cqfm-isTestCase","valueBoolean":true}],"status":"complete","type":"individual","measure":"https://madie.cms.gov/Measure/CMS832HHAKIFHIR","period":{"start":"2026-01-01","end":"2026-12-31"},"group":[{"id":"67b50f879214df46de2f1fdb","population":[{"id":"DA0D3694-7F57-4FB9-8410-1F64E44CA01E","code":{"coding":[{"system":"http://terminology.hl7.org/CodeSystem/measure-population","code":"initial-population","display":"Initial Population"}]},"count":2},{"id":"624D8554-9CB0-4BF0-882D-05C4F88BCC2C","code":{"coding":[{"system":"http://terminology.hl7.org/CodeSystem/measure-population","code":"denominator","display":"Denominator"}]},"count":2},{"id":"000FF050-D4A2-4C8B-8123-4538D35D5441","code":{"coding":[{"system":"http://terminology.hl7.org/CodeSystem/measure-population","code":"denominator-exclusion","display":"Denominator Exclusion"}]},"count":1},{"id":"01644D07-D9F8-403E-A66D-109ABA29BB6E","code":{"coding":[{"system":"http://terminology.hl7.org/CodeSystem/measure-population","code":"numerator","display":"Numerator"}]},"count":0}],"measureScore":{"value":0}}],"evaluatedResource":[{"reference":"Patient/3731688f-4261-42cc-943a-202b69beab97"},{"reference":"Encounter/ac310383-d5e6-443d-9913-d4593115f622"},{"reference":"Encounter/9ab4f707-c85d-4ee8-a6f5-3e272b1680a9"},{"reference":"Encounter/36b9e3b4-6eb1-4d3c-9dd4-ae2b4c2b64a8"},{"reference":"Observation/8736167f-a40d-430c-b426-366987c59f07"},{"reference":"Observation/f5b13ad3-ca0b-4612-85d1-b83c86419ede"},{"reference":"Observation/c52c8cfc-95ae-405b-bee8-b53455bb1036"},{"reference":"Observation/6007b282-df88-4cf8-9900-9c2748704fe4"},{"reference":"Observation/09e295f9-5988-4709-9c79-5582089eb310"},{"reference":"Observation/a1477c06-eecc-4627-b124-a89dcfaa97db"},{"reference":"Coverage/38451547-717b-41e1-8fdb-b06ba9026972"},{"reference":"Organization/d1e41c5c-2731-43e3-a06d-0fc563b323e4"}]},"request":{"method":"PUT","url":"MeasureReport/b8a1331a-81d8-4166-baaa-daeb3c6b1b51"}},{"fullUrl":"https://madie.cms.gov/Encounter/ac310383-d5e6-443d-9913-d4593115f622","resource":{"resourceType":"Encounter","id":"ac310383-d5e6-443d-9913-d4593115f622","meta":{"profile":["http://hl7.org/fhir/us/qicore/StructureDefinition/qicore-encounter"]},"status":"finished","class":{"system":"http://terminology.hl7.org/CodeSystem/v3-ActCode","code":"EMER","display":"emergency"},"type":[{"coding":[{"system":"http://snomed.info/sct","code":"4525004"}]}],"subject":{"reference":"Patient/3731688f-4261-42cc-943a-202b69beab97"},"period":{"start":"2026-09-29T08:00:00.000+00:00","end":"2026-09-29T20:00:00.000+00:00"}},"request":{"method":"PUT","url":"Encounter/ac310383-d5e6-443d-9913-d4593115f622"}},{"fullUrl":"https://madie.cms.gov/MeasureReport/281bf121-6817-4de6-b888-84868ac2aeaa","resource":{"resourceType":"MeasureReport","id":"281bf121-6817-4de6-b888-84868ac2aeaa","meta":{"profile":["http://hl7.org/fhir/us/cqfmeasures/StructureDefinition/test-case-cqfm"]},"contained":[{"resourceType":"Parameters","id":"4f549fcc-42f4-4c83-8348-638c0c4f3d20-parameters","parameter":[{"name":"subject","valueString":"3731688f-4261-42cc-943a-202b69beab97"}]}],"extension":[{"url":"http://hl7.org/fhir/StructureDefinition/cqf-inputParameters","valueReference":{"reference":"#4f549fcc-42f4-4c83-8348-638c0c4f3d20-parameters"}},{"url":"http://hl7.org/fhir/us/cqfmeasures/StructureDefinition/cqfm-testCaseDescription","valueMarkdown":"IP Female Enc #1 with eGFR of 63. SCr is within first 24 hours.\nVScode: Denominator Exclusion=[Encounter(id=DENEXPass-TwoEncFemaleeGFRLowAndHigh-03)]"}],"modifierExtension":[{"url":"http://hl7.org/fhir/us/cqfmeasures/StructureDefinition/cqfm-isTestCase","valueBoolean":true}],"status":"complete","type":"individual","measure":"https://madie.cms.gov/Measure/CMS832HHAKIFHIR","period":{"start":"2026-01-01","end":"2026-12-31"},"group":[{"id":"Group_1","population":[{"id":"InitialPopulation_1","code":{"coding":[{"system":"http://terminology.hl7.org/CodeSystem/measure-population","code":"initial-population","display":"Initial Population"}]},"count":2},{"id":"Denominator_1","code":{"coding":[{"system":"http://terminology.hl7.org/CodeSystem/measure-population","code":"denominator","display":"Denominator"}]},"count":2},{"id":"DenominatorExclusion_1","code":{"coding":[{"system":"http://terminology.hl7.org/CodeSystem/measure-population","code":"denominator-exclusion","display":"Denominator Exclusion"}]},"count":1},{"id":"Numerator_1","code":{"coding":[{"system":"http://terminology.hl7.org/CodeSystem/measure-population","code":"numerator","display":"Numerator"}]},"count":0}],"measureScore":{"value":0.0}}],"evaluatedResource":[{"reference":"Encounter/36b9e3b4-6eb1-4d3c-9dd4-ae2b4c2b64a8"},{"reference":"Observation/6007b282-df88-4cf8-9900-9c2748704fe4"},{"reference":"Observation/09e295f9-5988-4709-9c79-5582089eb310"},{"reference":"Observation/f5b13ad3-ca0b-4612-85d1-b83c86419ede"},{"reference":"Observation/8736167f-a40d-430c-b426-366987c59f07"},{"reference":"Observation/a1477c06-eecc-4627-b124-a89dcfaa97db"},{"reference":"Coverage/38451547-717b-41e1-8fdb-b06ba9026972"},{"reference":"Encounter/9ab4f707-c85d-4ee8-a6f5-3e272b1680a9"},{"reference":"Patient/3731688f-4261-42cc-943a-202b69beab97"},{"reference":"Observation/c52c8cfc-95ae-405b-bee8-b53455bb1036"},{"reference":"Organization/d1e41c5c-2731-43e3-a06d-0fc563b323e4"},{"reference":"MeasureReport/b8a1331a-81d8-4166-baaa-daeb3c6b1b51"},{"reference":"Encounter/ac310383-d5e6-443d-9913-d4593115f622"}]},"request":{"method":"PUT","url":"MeasureReport/281bf121-6817-4de6-b888-84868ac2aeaa"}}]},"request":{"method":"PUT","url":"Bundle/tests-3731688f-4261-42cc-943a-202b69beab97-bundle"}},{"fullUrl":"Observation/6007b282-df88-4cf8-9900-9c2748704fe4","resource":{"resourceType":"Observation","id":"6007b282-df88-4cf8-9900-9c2748704fe4","meta":{"profile":["http://hl7.org/fhir/us/qicore/StructureDefinition/qicore-observation-lab"]},"status":"final","category":[{"coding":[{"system":"http://terminology.hl7.org/CodeSystem/observation-category","code":"laboratory","display":"Laboratory"}]}],"code":{"coding":[{"system":"http://loinc.org","version":"2.72","code":"2160-0","display":"Creatinine [Mass/volume] in Serum or Plasma","userSelected":true}]},"subject":{"reference":"Patient/3731688f-4261-42cc-943a-202b69beab97"},"effectiveDateTime":"2026-10-01T08:01:00.000+00:00","issued":"2026-10-01T08:31:00.000+00:00","valueQuantity":{"value":1.14,"unit":"mg/dL","system":"http://unitsofmeasure.org","code":"mg/dL"}},"request":{"method":"PUT","url":"Observation/6007b282-df88-4cf8-9900-9c2748704fe4"}},{"fullUrl":"Observation/8736167f-a40d-430c-b426-366987c59f07","resource":{"resourceType":"Observation","id":"8736167f-a40d-430c-b426-366987c59f07","meta":{"profile":["http://hl7.org/fhir/us/qicore/StructureDefinition/qicore-observation-lab"]},"status":"final","category":[{"coding":[{"system":"http://terminology.hl7.org/CodeSystem/observation-category","code":"laboratory","display":"Laboratory"}]}],"code":{"coding":[{"system":"http://loinc.org","version":"2.72","code":"2160-0","display":"Creatinine [Mass/volume] in Serum or Plasma","userSelected":true}]},"subject":{"reference":"Patient/3731688f-4261-42cc-943a-202b69beab97"},"effectiveDateTime":"2026-11-07T09:00:00.000+00:00","issued":"2026-11-07T09:30:00.000+00:00","valueQuantity":{"value":0.7,"unit":"mg/dL","system":"http://unitsofmeasure.org","code":"mg/dL"}},"request":{"method":"PUT","url":"Observation/8736167f-a40d-430c-b426-366987c59f07"}},{"fullUrl":"MeasureReport/281bf121-6817-4de6-b888-84868ac2aeaa","resource":{"resourceType":"MeasureReport","id":"281bf121-6817-4de6-b888-84868ac2aeaa","meta":{"profile":["http://hl7.org/fhir/us/cqfmeasures/StructureDefinition/test-case-cqfm"]},"contained":[{"resourceType":"Parameters","id":"4f549fcc-42f4-4c83-8348-638c0c4f3d20-parameters","parameter":[{"name":"subject","valueString":"3731688f-4261-42cc-943a-202b69beab97"}]}],"extension":[{"url":"http://hl7.org/fhir/StructureDefinition/cqf-inputParameters","valueReference":{"reference":"#4f549fcc-42f4-4c83-8348-638c0c4f3d20-parameters"}},{"url":"http://hl7.org/fhir/us/cqfmeasures/StructureDefinition/cqfm-testCaseDescription","valueMarkdown":"IP Female Enc #1 with eGFR of 63. SCr is within first 24 hours.\nVScode: Denominator Exclusion=[Encounter(id=DENEXPass-TwoEncFemaleeGFRLowAndHigh-03)]"}],"modifierExtension":[{"url":"http://hl7.org/fhir/us/cqfmeasures/StructureDefinition/cqfm-isTestCase","valueBoolean":true}],"status":"complete","type":"individual","measure":"https://madie.cms.gov/Measure/CMS832HHAKIFHIR","period":{"start":"2026-01-01","end":"2026-12-31"},"group":[{"id":"Group_1","population":[{"id":"InitialPopulation_1","code":{"coding":[{"system":"http://terminology.hl7.org/CodeSystem/measure-population","code":"initial-population","display":"Initial Population"}]},"count":2},{"id":"Denominator_1","code":{"coding":[{"system":"http://terminology.hl7.org/CodeSystem/measure-population","code":"denominator","display":"Denominator"}]},"count":2},{"id":"DenominatorExclusion_1","code":{"coding":[{"system":"http://terminology.hl7.org/CodeSystem/measure-population","code":"denominator-exclusion","display":"Denominator Exclusion"}]},"count":1},{"id":"Numerator_1","code":{"coding":[{"system":"http://terminology.hl7.org/CodeSystem/measure-population","code":"numerator","display":"Numerator"}]},"count":0}],"measureScore":{"value":0.0}}],"evaluatedResource":[{"reference":"Encounter/36b9e3b4-6eb1-4d3c-9dd4-ae2b4c2b64a8"},{"reference":"Observation/6007b282-df88-4cf8-9900-9c2748704fe4"},{"reference":"Observation/09e295f9-5988-4709-9c79-5582089eb310"},{"reference":"Observation/f5b13ad3-ca0b-4612-85d1-b83c86419ede"},{"reference":"Observation/8736167f-a40d-430c-b426-366987c59f07"},{"reference":"Observation/a1477c06-eecc-4627-b124-a89dcfaa97db"},{"reference":"Coverage/38451547-717b-41e1-8fdb-b06ba9026972"},{"reference":"Encounter/9ab4f707-c85d-4ee8-a6f5-3e272b1680a9"},{"reference":"Patient/3731688f-4261-42cc-943a-202b69beab97"},{"reference":"Observation/c52c8cfc-95ae-405b-bee8-b53455bb1036"},{"reference":"Organization/d1e41c5c-2731-43e3-a06d-0fc563b323e4"},{"reference":"MeasureReport/b8a1331a-81d8-4166-baaa-daeb3c6b1b51"},{"reference":"Encounter/ac310383-d5e6-443d-9913-d4593115f622"}]},"request":{"method":"PUT","url":"MeasureReport/281bf121-6817-4de6-b888-84868ac2aeaa"}},{"fullUrl":"Organization/d1e41c5c-2731-43e3-a06d-0fc563b323e4","resource":{"resourceType":"Organization","id":"d1e41c5c-2731-43e3-a06d-0fc563b323e4","meta":{"profile":["http://hl7.org/fhir/us/qicore/StructureDefinition/qicore-organization"]},"identifier":[{"use":"temp","system":"urn:oid:2.16.840.1.113883.4.4","value":"21-3259825"}],"active":true,"type":[{"coding":[{"system":"http://terminology.hl7.org/CodeSystem/organization-type","code":"pay","display":"Payer"}]}],"name":"Blue Cross Blue Shield of Texas","telecom":[{"system":"phone","value":"(+1) 972-766-6900"}],"address":[{"use":"billing","type":"postal","line":["P.O. Box 660044"],"city":"Dallas","state":"TX","postalCode":"75266-0044","country":"USA"}]},"request":{"method":"PUT","url":"Organization/d1e41c5c-2731-43e3-a06d-0fc563b323e4"}},{"fullUrl":"Observation/c52c8cfc-95ae-405b-bee8-b53455bb1036","resource":{"resourceType":"Observation","id":"c52c8cfc-95ae-405b-bee8-b53455bb1036","meta":{"profile":["http://hl7.org/fhir/us/qicore/StructureDefinition/qicore-observation-lab"]},"status":"final","category":[{"coding":[{"system":"http://terminology.hl7.org/CodeSystem/observation-category","code":"laboratory","display":"Laboratory"}]}],"code":{"coding":[{"system":"http://loinc.org","code":"2160-0","display":"Creatinine [Mass/volume] in Serum or Plasma"}]},"subject":{"reference":"Patient/3731688f-4261-42cc-943a-202b69beab97"},"effectiveDateTime":"2026-11-04T09:00:00.000+00:00","issued":"2026-11-04T09:30:00.000+00:00","valueQuantity":{"value":1.5,"unit":"mg/dL","system":"http://unitsofmeasure.org","code":"mg/dL"}},"request":{"method":"PUT","url":"Observation/c52c8cfc-95ae-405b-bee8-b53455bb1036"}},{"fullUrl":"Encounter/36b9e3b4-6eb1-4d3c-9dd4-ae2b4c2b64a8","resource":{"resourceType":"Encounter","id":"36b9e3b4-6eb1-4d3c-9dd4-ae2b4c2b64a8","meta":{"profile":["http://hl7.org/fhir/us/qicore/StructureDefinition/qicore-encounter"]},"status":"finished","class":{"system":"http://terminology.hl7.org/CodeSystem/v3-ActCode","code":"IMP","display":"inpatient encounter"},"type":[{"coding":[{"system":"http://snomed.info/sct","code":"183452005"}]}],"subject":{"reference":"Patient/3731688f-4261-42cc-943a-202b69beab97"},"period":{"start":"2026-11-04T08:00:00.000+00:00","end":"2026-11-12T08:15:00.000+00:00"}},"request":{"method":"PUT","url":"Encounter/36b9e3b4-6eb1-4d3c-9dd4-ae2b4c2b64a8"}},{"fullUrl":"Observation/f5b13ad3-ca0b-4612-85d1-b83c86419ede","resource":{"resourceType":"Observation","id":"f5b13ad3-ca0b-4612-85d1-b83c86419ede","meta":{"profile":["http://hl7.org/fhir/us/qicore/StructureDefinition/qicore-observation-lab"]},"status":"final","category":[{"coding":[{"system":"http://terminology.hl7.org/CodeSystem/observation-category","code":"laboratory","display":"Laboratory"}]}],"code":{"coding":[{"system":"http://loinc.org","version":"2.72","code":"2160-0","display":"Creatinine [Mass/volume] in Serum or Plasma","userSelected":true}]},"subject":{"reference":"Patient/3731688f-4261-42cc-943a-202b69beab97"},"effectiveDateTime":"2026-11-05T09:00:00.000+00:00","issued":"2026-11-05T09:30:00.000+00:00","valueQuantity":{"value":0.7,"unit":"mg/dL","system":"http://unitsofmeasure.org","code":"mg/dL"}},"request":{"method":"PUT","url":"Observation/f5b13ad3-ca0b-4612-85d1-b83c86419ede"}}]}