{"resourceType":"Bundle","id":"tests-ce6698d6-ca56-44f7-9390-17e3e7a3dfde-bundle","type":"transaction","entry":[{"fullUrl":"Observation/18101994-532f-470c-96c5-4ac7fb4ee003","resource":{"resourceType":"Observation","id":"18101994-532f-470c-96c5-4ac7fb4ee003","meta":{"profile":["http://hl7.org/fhir/us/qicore/StructureDefinition/qicore-observation-lab"]},"status":"final","category":[{"coding":[{"system":"http://terminology.hl7.org/CodeSystem/observation-category","code":"laboratory","display":"Laboratory"}]}],"code":{"coding":[{"system":"http://loinc.org","version":"2.72","code":"2160-0","display":"Creatinine [Mass/volume] in Serum or Plasma","userSelected":true}]},"subject":{"reference":"Patient/ce6698d6-ca56-44f7-9390-17e3e7a3dfde"},"effectiveDateTime":"2026-11-01T10:15:00.000+00:00","issued":"2026-11-01T10:45:00.000+00:00","valueQuantity":{"value":0.91,"unit":"mg/dL","system":"http://unitsofmeasure.org","code":"mg/dL"}},"request":{"method":"PUT","url":"Observation/18101994-532f-470c-96c5-4ac7fb4ee003"}},{"fullUrl":"Observation/38c023bc-2879-433e-966d-7b1f90dce714","resource":{"resourceType":"Observation","id":"38c023bc-2879-433e-966d-7b1f90dce714","meta":{"profile":["http://hl7.org/fhir/us/qicore/StructureDefinition/qicore-observation-lab"]},"status":"final","category":[{"coding":[{"system":"http://terminology.hl7.org/CodeSystem/observation-category","code":"laboratory","display":"Laboratory"}]}],"code":{"coding":[{"system":"http://loinc.org","version":"2.72","code":"2160-0","display":"Creatinine [Mass/volume] in Serum or Plasma","userSelected":true}]},"subject":{"reference":"Patient/ce6698d6-ca56-44f7-9390-17e3e7a3dfde"},"effectiveDateTime":"2026-11-03T10:15:00.000+00:00","issued":"2026-11-03T10:45:00.000+00:00","valueQuantity":{"value":1.82,"unit":"mg/dL","system":"http://unitsofmeasure.org","code":"mg/dL"}},"request":{"method":"PUT","url":"Observation/38c023bc-2879-433e-966d-7b1f90dce714"}},{"fullUrl":"MeasureReport/eb05f688-327f-479a-9fb1-37fa7e21cf04","resource":{"resourceType":"MeasureReport","id":"eb05f688-327f-479a-9fb1-37fa7e21cf04","meta":{"profile":["http://hl7.org/fhir/us/cqfmeasures/StructureDefinition/test-case-cqfm"]},"contained":[{"resourceType":"Parameters","id":"b16638b6-0be9-4281-aedd-568b7d7483a1-parameters","parameter":[{"name":"subject","valueString":"ce6698d6-ca56-44f7-9390-17e3e7a3dfde"}]}],"extension":[{"url":"http://hl7.org/fhir/StructureDefinition/cqf-inputParameters","valueReference":{"reference":"#b16638b6-0be9-4281-aedd-568b7d7483a1-parameters"}},{"url":"http://hl7.org/fhir/us/cqfmeasures/StructureDefinition/cqfm-testCaseDescription","valueMarkdown":"Both Enc Cr after 48 hrs: 1.81, 1.82. This is double of earlier creat 0.9, .91. Meets Numerator for both Enc.\nVScode: Numerator=[Encounter(id=NUMERPass-TwoEncountersCreatinineDoubled-01), Encounter(id=NUMERPass-TwoEncountersCreatinineDoubled-02)]\n"}],"modifierExtension":[{"url":"http://hl7.org/fhir/us/cqfmeasures/StructureDefinition/cqfm-isTestCase","valueBoolean":true}],"status":"complete","type":"individual","measure":"https://madie.cms.gov/Measure/CMS832HHAKIFHIR","period":{"start":"2026-01-01","end":"2026-12-31"},"group":[{"id":"Group_1","population":[{"id":"InitialPopulation_1","code":{"coding":[{"system":"http://terminology.hl7.org/CodeSystem/measure-population","code":"initial-population","display":"Initial Population"}]},"count":2},{"id":"Denominator_1","code":{"coding":[{"system":"http://terminology.hl7.org/CodeSystem/measure-population","code":"denominator","display":"Denominator"}]},"count":2},{"id":"DenominatorExclusion_1","code":{"coding":[{"system":"http://terminology.hl7.org/CodeSystem/measure-population","code":"denominator-exclusion","display":"Denominator Exclusion"}]},"count":0},{"id":"Numerator_1","code":{"coding":[{"system":"http://terminology.hl7.org/CodeSystem/measure-population","code":"numerator","display":"Numerator"}]},"count":2}],"measureScore":{"value":0.0}}],"evaluatedResource":[{"reference":"Coverage/f647e3d8-77f3-448a-befd-2e6ada135915"},{"reference":"Observation/0172fe7f-42bf-4080-8fa4-39f201fc5a83"},{"reference":"Organization/300d69c8-b3ac-4f44-8476-2c6132735821"},{"reference":"Observation/d37e5d24-9a18-4a8e-9c01-52f380abc260"},{"reference":"Observation/0278359a-0a9b-4b6c-b3d5-8c73509168e0"},{"reference":"Observation/38c023bc-2879-433e-966d-7b1f90dce714"},{"reference":"Observation/18101994-532f-470c-96c5-4ac7fb4ee003"},{"reference":"Observation/4fdce442-04d6-42e9-9ea1-30bd1baf1f59"},{"reference":"Patient/ce6698d6-ca56-44f7-9390-17e3e7a3dfde"},{"reference":"MeasureReport/bbbc9a15-670f-4366-a10a-1c24a372f753"},{"reference":"Encounter/b422a6f1-afdb-49c6-b846-bf00e51df74f"},{"reference":"Observation/09739404-9012-4e46-8706-d7e84d9733fc"},{"reference":"Encounter/b9bb6420-9c47-4eae-a435-d005e8cf5da1"}]},"request":{"method":"PUT","url":"MeasureReport/eb05f688-327f-479a-9fb1-37fa7e21cf04"}},{"fullUrl":"Organization/300d69c8-b3ac-4f44-8476-2c6132735821","resource":{"resourceType":"Organization","id":"300d69c8-b3ac-4f44-8476-2c6132735821","meta":{"profile":["http://hl7.org/fhir/us/qicore/StructureDefinition/qicore-organization"]},"identifier":[{"use":"temp","system":"urn:oid:2.16.840.1.113883.4.4","value":"21-3259825"}],"active":true,"type":[{"coding":[{"system":"http://terminology.hl7.org/CodeSystem/organization-type","code":"pay","display":"Payer"}]}],"name":"Blue Cross Blue Shield of Texas","telecom":[{"system":"phone","value":"(+1) 972-766-6900"}],"address":[{"use":"billing","type":"postal","line":["P.O. Box 660044"],"city":"Dallas","state":"TX","postalCode":"75266-0044","country":"USA"}]},"request":{"method":"PUT","url":"Organization/300d69c8-b3ac-4f44-8476-2c6132735821"}},{"fullUrl":"MeasureReport/bbbc9a15-670f-4366-a10a-1c24a372f753","resource":{"resourceType":"MeasureReport","id":"bbbc9a15-670f-4366-a10a-1c24a372f753","meta":{"profile":["http://hl7.org/fhir/us/cqfmeasures/StructureDefinition/test-case-cqfm"]},"contained":[{"resourceType":"Parameters","id":"a5fb18ab-d031-4f11-9367-24252b007d9b-parameters","parameter":[{"name":"subject","valueString":"ce6698d6-ca56-44f7-9390-17e3e7a3dfde"}]}],"extension":[{"url":"http://hl7.org/fhir/us/cqfmeasures/StructureDefinition/cqfm-inputParameters","valueReference":{"reference":"#a5fb18ab-d031-4f11-9367-24252b007d9b-parameters"}},{"url":"http://hl7.org/fhir/us/cqfmeasures/StructureDefinition/cqfm-testCaseDescription","valueMarkdown":"Both Enc Cr after 48 hrs: 1.81, 1.82. This is double of earlier creat 0.9, .91. Meets Numerator for both Enc.\nVScode: Numerator=[Encounter(id=NUMERPass-TwoEncountersCreatinineDoubled-01), Encounter(id=NUMERPass-TwoEncountersCreatinineDoubled-02)]"}],"modifierExtension":[{"url":"http://hl7.org/fhir/us/cqfmeasures/StructureDefinition/cqfm-isTestCase","valueBoolean":true}],"status":"complete","type":"individual","measure":"https://madie.cms.gov/Measure/CMS832HHAKIFHIR","period":{"start":"2026-01-01","end":"2026-12-31"},"group":[{"id":"67b50f879214df46de2f1fdb","population":[{"id":"DA0D3694-7F57-4FB9-8410-1F64E44CA01E","code":{"coding":[{"system":"http://terminology.hl7.org/CodeSystem/measure-population","code":"initial-population","display":"Initial Population"}]},"count":2},{"id":"624D8554-9CB0-4BF0-882D-05C4F88BCC2C","code":{"coding":[{"system":"http://terminology.hl7.org/CodeSystem/measure-population","code":"denominator","display":"Denominator"}]},"count":2},{"id":"000FF050-D4A2-4C8B-8123-4538D35D5441","code":{"coding":[{"system":"http://terminology.hl7.org/CodeSystem/measure-population","code":"denominator-exclusion","display":"Denominator Exclusion"}]},"count":0},{"id":"01644D07-D9F8-403E-A66D-109ABA29BB6E","code":{"coding":[{"system":"http://terminology.hl7.org/CodeSystem/measure-population","code":"numerator","display":"Numerator"}]},"count":2}],"measureScore":{"value":0}}],"evaluatedResource":[{"reference":"Patient/ce6698d6-ca56-44f7-9390-17e3e7a3dfde"},{"reference":"Encounter/b9bb6420-9c47-4eae-a435-d005e8cf5da1"},{"reference":"Encounter/b422a6f1-afdb-49c6-b846-bf00e51df74f"},{"reference":"Observation/38c023bc-2879-433e-966d-7b1f90dce714"},{"reference":"Observation/18101994-532f-470c-96c5-4ac7fb4ee003"},{"reference":"Observation/4fdce442-04d6-42e9-9ea1-30bd1baf1f59"},{"reference":"Observation/0172fe7f-42bf-4080-8fa4-39f201fc5a83"},{"reference":"Observation/0278359a-0a9b-4b6c-b3d5-8c73509168e0"},{"reference":"Observation/09739404-9012-4e46-8706-d7e84d9733fc"},{"reference":"Observation/d37e5d24-9a18-4a8e-9c01-52f380abc260"},{"reference":"Coverage/f647e3d8-77f3-448a-befd-2e6ada135915"},{"reference":"Organization/300d69c8-b3ac-4f44-8476-2c6132735821"}]},"request":{"method":"PUT","url":"MeasureReport/bbbc9a15-670f-4366-a10a-1c24a372f753"}},{"fullUrl":"Patient/ce6698d6-ca56-44f7-9390-17e3e7a3dfde","resource":{"resourceType":"Patient","id":"ce6698d6-ca56-44f7-9390-17e3e7a3dfde","meta":{"profile":["http://hl7.org/fhir/us/qicore/StructureDefinition/qicore-patient"]},"text":{"status":"generated","div":"<div xmlns=\"http://www.w3.org/1999/xhtml\"><div class=\"hapiHeaderText\">Turns 18 day of Encounter <b>NUMERPass </b></div><table class=\"hapiPropertyTable\"><tbody><tr><td>Identifier</td><td>f0eda1c9668fdacdcad3378589bf6e0a71e7dec1618f14fca4d442ec96e402b1</td></tr><tr><td>Date of birth</td><td><span>29 September 2006</span></td></tr></tbody></table></div>"},"extension":[{"url":"http://hl7.org/fhir/us/core/StructureDefinition/us-core-race","extension":[{"url":"ombCategory","valueCoding":{"system":"urn:oid:2.16.840.1.113883.6.238","code":"1002-5","display":"American Indian or Alaska Native","userSelected":true}},{"url":"text","valueString":"American Indian or Alaska Native"}]},{"url":"http://hl7.org/fhir/us/core/StructureDefinition/us-core-ethnicity","extension":[{"url":"ombCategory","valueCoding":{"system":"urn:oid:2.16.840.1.113883.6.238","code":"2135-2","display":"Hispanic or Latino","userSelected":true}},{"url":"text","valueString":"Hispanic or Latino"}]},{"url":"http://hl7.org/fhir/us/core/StructureDefinition/us-core-sex","valueCode":"248152002"}],"identifier":[{"type":{"coding":[{"system":"http://terminology.hl7.org/CodeSystem/v2-0203","code":"MR"}]},"system":"http://bonnie-fhir.healthit.gov/","value":"NUMERPass-TwoEncountersCreatinineDoubled"}],"active":true,"name":[{"use":"usual","family":"NUMERPass","given":["TwoEncountersCreatinineDoubled"]}],"gender":"female","birthDate":"1983-10-10"},"request":{"method":"PUT","url":"Patient/ce6698d6-ca56-44f7-9390-17e3e7a3dfde"}},{"fullUrl":"Observation/09739404-9012-4e46-8706-d7e84d9733fc","resource":{"resourceType":"Observation","id":"09739404-9012-4e46-8706-d7e84d9733fc","meta":{"profile":["http://hl7.org/fhir/us/qicore/StructureDefinition/qicore-observation-lab"]},"status":"final","category":[{"coding":[{"system":"http://terminology.hl7.org/CodeSystem/observation-category","code":"laboratory","display":"Laboratory"}]}],"code":{"coding":[{"system":"http://loinc.org","code":"2160-0","display":"Creatinine [Mass/volume] in Serum or Plasma"}]},"subject":{"reference":"Patient/ce6698d6-ca56-44f7-9390-17e3e7a3dfde"},"effectiveDateTime":"2026-10-01T07:00:00.000+00:00","issued":"2026-10-01T07:30:00.000+00:00","valueQuantity":{"value":0.9,"unit":"mg/dL","system":"http://unitsofmeasure.org","code":"mg/dL"}},"request":{"method":"PUT","url":"Observation/09739404-9012-4e46-8706-d7e84d9733fc"}},{"fullUrl":"Observation/0172fe7f-42bf-4080-8fa4-39f201fc5a83","resource":{"resourceType":"Observation","id":"0172fe7f-42bf-4080-8fa4-39f201fc5a83","meta":{"profile":["http://hl7.org/fhir/us/qicore/StructureDefinition/qicore-observation-lab"]},"status":"final","category":[{"coding":[{"system":"http://terminology.hl7.org/CodeSystem/observation-category","code":"laboratory","display":"Laboratory"}]}],"code":{"coding":[{"system":"http://loinc.org","code":"2160-0","display":"Creatinine [Mass/volume] in Serum or Plasma"}]},"subject":{"reference":"Patient/ce6698d6-ca56-44f7-9390-17e3e7a3dfde"},"effectiveDateTime":"2026-10-01T09:01:00.000+00:00","issued":"2026-10-01T09:31:00.000+00:00","valueQuantity":{"value":1.8,"unit":"mg/dL","system":"http://unitsofmeasure.org","code":"mg/dL"}},"request":{"method":"PUT","url":"Observation/0172fe7f-42bf-4080-8fa4-39f201fc5a83"}},{"fullUrl":"Encounter/b9bb6420-9c47-4eae-a435-d005e8cf5da1","resource":{"resourceType":"Encounter","id":"b9bb6420-9c47-4eae-a435-d005e8cf5da1","meta":{"profile":["http://hl7.org/fhir/us/qicore/StructureDefinition/qicore-encounter"]},"status":"finished","class":{"system":"http://terminology.hl7.org/CodeSystem/v3-ActCode","code":"IMP","display":"inpatient encounter"},"type":[{"coding":[{"system":"http://snomed.info/sct","code":"183452005"}]}],"subject":{"reference":"Patient/ce6698d6-ca56-44f7-9390-17e3e7a3dfde"},"period":{"start":"2026-09-29T08:00:00.000+00:00","end":"2026-10-03T20:00:00.000+00:00"}},"request":{"method":"PUT","url":"Encounter/b9bb6420-9c47-4eae-a435-d005e8cf5da1"}},{"fullUrl":"Observation/0278359a-0a9b-4b6c-b3d5-8c73509168e0","resource":{"resourceType":"Observation","id":"0278359a-0a9b-4b6c-b3d5-8c73509168e0","meta":{"profile":["http://hl7.org/fhir/us/qicore/StructureDefinition/qicore-observation-lab"]},"status":"final","category":[{"coding":[{"system":"http://terminology.hl7.org/CodeSystem/observation-category","code":"laboratory","display":"Laboratory"}]}],"code":{"coding":[{"system":"http://loinc.org","version":"2.72","code":"2160-0","display":"Creatinine [Mass/volume] in Serum or Plasma","userSelected":true}]},"subject":{"reference":"Patient/ce6698d6-ca56-44f7-9390-17e3e7a3dfde"},"effectiveDateTime":"2026-10-01T08:01:00.000+00:00","issued":"2026-10-01T08:31:00.000+00:00","valueQuantity":{"value":0.9,"unit":"mg/dL","system":"http://unitsofmeasure.org","code":"mg/dL"}},"request":{"method":"PUT","url":"Observation/0278359a-0a9b-4b6c-b3d5-8c73509168e0"}},{"fullUrl":"Encounter/b422a6f1-afdb-49c6-b846-bf00e51df74f","resource":{"resourceType":"Encounter","id":"b422a6f1-afdb-49c6-b846-bf00e51df74f","meta":{"profile":["http://hl7.org/fhir/us/qicore/StructureDefinition/qicore-encounter"]},"status":"finished","class":{"system":"http://terminology.hl7.org/CodeSystem/v3-ActCode","code":"IMP","display":"inpatient encounter"},"type":[{"coding":[{"system":"http://snomed.info/sct","code":"183452005"}]}],"subject":{"reference":"Patient/ce6698d6-ca56-44f7-9390-17e3e7a3dfde"},"period":{"start":"2026-11-01T08:00:00.000+00:00","end":"2026-11-06T20:15:00.000+00:00"}},"request":{"method":"PUT","url":"Encounter/b422a6f1-afdb-49c6-b846-bf00e51df74f"}},{"fullUrl":"Bundle/tests-ce6698d6-ca56-44f7-9390-17e3e7a3dfde-bundle","resource":{"resourceType":"Bundle","id":"tests-ce6698d6-ca56-44f7-9390-17e3e7a3dfde-bundle","type":"transaction","entry":[{"fullUrl":"https://madie.cms.gov/Coverage/f647e3d8-77f3-448a-befd-2e6ada135915","resource":{"resourceType":"Coverage","id":"f647e3d8-77f3-448a-befd-2e6ada135915","meta":{"profile":["http://hl7.org/fhir/us/qicore/StructureDefinition/qicore-coverage"]},"status":"active","type":{"coding":[{"system":"https://nahdo.org/sopt","version":"9.2","code":"211","display":"Medicaid HMO"}]},"beneficiary":{"reference":"Patient/ce6698d6-ca56-44f7-9390-17e3e7a3dfde"},"period":{"start":"2024-12-01T00:00:00.000+00:00"},"payor":[{"reference":"Organization/300d69c8-b3ac-4f44-8476-2c6132735821"}]},"request":{"method":"PUT","url":"Coverage/f647e3d8-77f3-448a-befd-2e6ada135915"}},{"fullUrl":"https://madie.cms.gov/Observation/0172fe7f-42bf-4080-8fa4-39f201fc5a83","resource":{"resourceType":"Observation","id":"0172fe7f-42bf-4080-8fa4-39f201fc5a83","meta":{"profile":["http://hl7.org/fhir/us/qicore/StructureDefinition/qicore-observation-lab"]},"status":"final","category":[{"coding":[{"system":"http://terminology.hl7.org/CodeSystem/observation-category","code":"laboratory","display":"Laboratory"}]}],"code":{"coding":[{"system":"http://loinc.org","code":"2160-0","display":"Creatinine [Mass/volume] in Serum or Plasma"}]},"subject":{"reference":"Patient/ce6698d6-ca56-44f7-9390-17e3e7a3dfde"},"effectiveDateTime":"2026-10-01T09:01:00.000+00:00","issued":"2026-10-01T09:31:00.000+00:00","valueQuantity":{"value":1.8,"unit":"mg/dL","system":"http://unitsofmeasure.org","code":"mg/dL"}},"request":{"method":"PUT","url":"Observation/0172fe7f-42bf-4080-8fa4-39f201fc5a83"}},{"fullUrl":"https://madie.cms.gov/Organization/300d69c8-b3ac-4f44-8476-2c6132735821","resource":{"resourceType":"Organization","id":"300d69c8-b3ac-4f44-8476-2c6132735821","meta":{"profile":["http://hl7.org/fhir/us/qicore/StructureDefinition/qicore-organization"]},"identifier":[{"use":"temp","system":"urn:oid:2.16.840.1.113883.4.4","value":"21-3259825"}],"active":true,"type":[{"coding":[{"system":"http://terminology.hl7.org/CodeSystem/organization-type","code":"pay","display":"Payer"}]}],"name":"Blue Cross Blue Shield of Texas","telecom":[{"system":"phone","value":"(+1) 972-766-6900"}],"address":[{"use":"billing","type":"postal","line":["P.O. Box 660044"],"city":"Dallas","state":"TX","postalCode":"75266-0044","country":"USA"}]},"request":{"method":"PUT","url":"Organization/300d69c8-b3ac-4f44-8476-2c6132735821"}},{"fullUrl":"https://madie.cms.gov/Observation/d37e5d24-9a18-4a8e-9c01-52f380abc260","resource":{"resourceType":"Observation","id":"d37e5d24-9a18-4a8e-9c01-52f380abc260","meta":{"profile":["http://hl7.org/fhir/us/qicore/StructureDefinition/qicore-observation-lab"]},"status":"final","category":[{"coding":[{"system":"http://terminology.hl7.org/CodeSystem/observation-category","code":"laboratory","display":"Laboratory"}]}],"code":{"coding":[{"system":"http://loinc.org","version":"2.72","code":"2160-0","display":"Creatinine [Mass/volume] in Serum or Plasma","userSelected":true}]},"subject":{"reference":"Patient/ce6698d6-ca56-44f7-9390-17e3e7a3dfde"},"effectiveDateTime":"2026-10-01T07:35:00.000+00:00","issued":"2026-10-01T08:05:00.000+00:00","valueQuantity":{"value":0.9,"unit":"mg/dL","system":"http://unitsofmeasure.org","code":"mg/dL"}},"request":{"method":"PUT","url":"Observation/d37e5d24-9a18-4a8e-9c01-52f380abc260"}},{"fullUrl":"https://madie.cms.gov/Observation/0278359a-0a9b-4b6c-b3d5-8c73509168e0","resource":{"resourceType":"Observation","id":"0278359a-0a9b-4b6c-b3d5-8c73509168e0","meta":{"profile":["http://hl7.org/fhir/us/qicore/StructureDefinition/qicore-observation-lab"]},"status":"final","category":[{"coding":[{"system":"http://terminology.hl7.org/CodeSystem/observation-category","code":"laboratory","display":"Laboratory"}]}],"code":{"coding":[{"system":"http://loinc.org","version":"2.72","code":"2160-0","display":"Creatinine [Mass/volume] in Serum or Plasma","userSelected":true}]},"subject":{"reference":"Patient/ce6698d6-ca56-44f7-9390-17e3e7a3dfde"},"effectiveDateTime":"2026-10-01T08:01:00.000+00:00","issued":"2026-10-01T08:31:00.000+00:00","valueQuantity":{"value":0.9,"unit":"mg/dL","system":"http://unitsofmeasure.org","code":"mg/dL"}},"request":{"method":"PUT","url":"Observation/0278359a-0a9b-4b6c-b3d5-8c73509168e0"}},{"fullUrl":"https://madie.cms.gov/Observation/38c023bc-2879-433e-966d-7b1f90dce714","resource":{"resourceType":"Observation","id":"38c023bc-2879-433e-966d-7b1f90dce714","meta":{"profile":["http://hl7.org/fhir/us/qicore/StructureDefinition/qicore-observation-lab"]},"status":"final","category":[{"coding":[{"system":"http://terminology.hl7.org/CodeSystem/observation-category","code":"laboratory","display":"Laboratory"}]}],"code":{"coding":[{"system":"http://loinc.org","version":"2.72","code":"2160-0","display":"Creatinine [Mass/volume] in Serum or Plasma","userSelected":true}]},"subject":{"reference":"Patient/ce6698d6-ca56-44f7-9390-17e3e7a3dfde"},"effectiveDateTime":"2026-11-03T10:15:00.000+00:00","issued":"2026-11-03T10:45:00.000+00:00","valueQuantity":{"value":1.82,"unit":"mg/dL","system":"http://unitsofmeasure.org","code":"mg/dL"}},"request":{"method":"PUT","url":"Observation/38c023bc-2879-433e-966d-7b1f90dce714"}},{"fullUrl":"https://madie.cms.gov/Observation/18101994-532f-470c-96c5-4ac7fb4ee003","resource":{"resourceType":"Observation","id":"18101994-532f-470c-96c5-4ac7fb4ee003","meta":{"profile":["http://hl7.org/fhir/us/qicore/StructureDefinition/qicore-observation-lab"]},"status":"final","category":[{"coding":[{"system":"http://terminology.hl7.org/CodeSystem/observation-category","code":"laboratory","display":"Laboratory"}]}],"code":{"coding":[{"system":"http://loinc.org","version":"2.72","code":"2160-0","display":"Creatinine [Mass/volume] in Serum or Plasma","userSelected":true}]},"subject":{"reference":"Patient/ce6698d6-ca56-44f7-9390-17e3e7a3dfde"},"effectiveDateTime":"2026-11-01T10:15:00.000+00:00","issued":"2026-11-01T10:45:00.000+00:00","valueQuantity":{"value":0.91,"unit":"mg/dL","system":"http://unitsofmeasure.org","code":"mg/dL"}},"request":{"method":"PUT","url":"Observation/18101994-532f-470c-96c5-4ac7fb4ee003"}},{"fullUrl":"https://madie.cms.gov/Observation/4fdce442-04d6-42e9-9ea1-30bd1baf1f59","resource":{"resourceType":"Observation","id":"4fdce442-04d6-42e9-9ea1-30bd1baf1f59","meta":{"profile":["http://hl7.org/fhir/us/qicore/StructureDefinition/qicore-observation-lab"]},"status":"final","category":[{"coding":[{"system":"http://terminology.hl7.org/CodeSystem/observation-category","code":"laboratory","display":"Laboratory"}]}],"code":{"coding":[{"system":"http://loinc.org","version":"2.72","code":"2160-0","display":"Creatinine [Mass/volume] in Serum or Plasma","userSelected":true}]},"subject":{"reference":"Patient/ce6698d6-ca56-44f7-9390-17e3e7a3dfde"},"effectiveDateTime":"2026-11-01T08:15:00.000+00:00","issued":"2026-11-01T08:45:00.000+00:00","valueQuantity":{"value":0.91,"unit":"mg/dL","system":"http://unitsofmeasure.org","code":"mg/dL"}},"request":{"method":"PUT","url":"Observation/4fdce442-04d6-42e9-9ea1-30bd1baf1f59"}},{"fullUrl":"https://madie.cms.gov/Patient/ce6698d6-ca56-44f7-9390-17e3e7a3dfde","resource":{"resourceType":"Patient","id":"ce6698d6-ca56-44f7-9390-17e3e7a3dfde","meta":{"profile":["http://hl7.org/fhir/us/qicore/StructureDefinition/qicore-patient"]},"text":{"status":"generated","div":"<div xmlns=\"http://www.w3.org/1999/xhtml\"><div class=\"hapiHeaderText\">Turns 18 day of Encounter <b>NUMERPass </b></div><table class=\"hapiPropertyTable\"><tbody><tr><td>Identifier</td><td>f0eda1c9668fdacdcad3378589bf6e0a71e7dec1618f14fca4d442ec96e402b1</td></tr><tr><td>Date of birth</td><td><span>29 September 2006</span></td></tr></tbody></table></div>"},"extension":[{"url":"http://hl7.org/fhir/us/core/StructureDefinition/us-core-race","extension":[{"url":"ombCategory","valueCoding":{"system":"urn:oid:2.16.840.1.113883.6.238","code":"1002-5","display":"American Indian or Alaska Native","userSelected":true}},{"url":"text","valueString":"American Indian or Alaska Native"}]},{"url":"http://hl7.org/fhir/us/core/StructureDefinition/us-core-ethnicity","extension":[{"url":"ombCategory","valueCoding":{"system":"urn:oid:2.16.840.1.113883.6.238","code":"2135-2","display":"Hispanic or Latino","userSelected":true}},{"url":"text","valueString":"Hispanic or Latino"}]},{"url":"http://hl7.org/fhir/us/core/StructureDefinition/us-core-sex","valueCode":"248152002"}],"identifier":[{"type":{"coding":[{"system":"http://terminology.hl7.org/CodeSystem/v2-0203","code":"MR"}]},"system":"http://bonnie-fhir.healthit.gov/","value":"NUMERPass-TwoEncountersCreatinineDoubled"}],"active":true,"name":[{"use":"usual","family":"NUMERPass","given":["TwoEncountersCreatinineDoubled"]}],"gender":"female","birthDate":"1983-10-10"},"request":{"method":"PUT","url":"Patient/ce6698d6-ca56-44f7-9390-17e3e7a3dfde"}},{"fullUrl":"https://madie.cms.gov/MeasureReport/bbbc9a15-670f-4366-a10a-1c24a372f753","resource":{"resourceType":"MeasureReport","id":"bbbc9a15-670f-4366-a10a-1c24a372f753","meta":{"profile":["http://hl7.org/fhir/us/cqfmeasures/StructureDefinition/test-case-cqfm"]},"contained":[{"resourceType":"Parameters","id":"a5fb18ab-d031-4f11-9367-24252b007d9b-parameters","parameter":[{"name":"subject","valueString":"ce6698d6-ca56-44f7-9390-17e3e7a3dfde"}]}],"extension":[{"url":"http://hl7.org/fhir/us/cqfmeasures/StructureDefinition/cqfm-inputParameters","valueReference":{"reference":"#a5fb18ab-d031-4f11-9367-24252b007d9b-parameters"}},{"url":"http://hl7.org/fhir/us/cqfmeasures/StructureDefinition/cqfm-testCaseDescription","valueMarkdown":"Both Enc Cr after 48 hrs: 1.81, 1.82. This is double of earlier creat 0.9, .91. Meets Numerator for both Enc.\nVScode: Numerator=[Encounter(id=NUMERPass-TwoEncountersCreatinineDoubled-01), Encounter(id=NUMERPass-TwoEncountersCreatinineDoubled-02)]"}],"modifierExtension":[{"url":"http://hl7.org/fhir/us/cqfmeasures/StructureDefinition/cqfm-isTestCase","valueBoolean":true}],"status":"complete","type":"individual","measure":"https://madie.cms.gov/Measure/CMS832HHAKIFHIR","period":{"start":"2026-01-01","end":"2026-12-31"},"group":[{"id":"67b50f879214df46de2f1fdb","population":[{"id":"DA0D3694-7F57-4FB9-8410-1F64E44CA01E","code":{"coding":[{"system":"http://terminology.hl7.org/CodeSystem/measure-population","code":"initial-population","display":"Initial Population"}]},"count":2},{"id":"624D8554-9CB0-4BF0-882D-05C4F88BCC2C","code":{"coding":[{"system":"http://terminology.hl7.org/CodeSystem/measure-population","code":"denominator","display":"Denominator"}]},"count":2},{"id":"000FF050-D4A2-4C8B-8123-4538D35D5441","code":{"coding":[{"system":"http://terminology.hl7.org/CodeSystem/measure-population","code":"denominator-exclusion","display":"Denominator Exclusion"}]},"count":0},{"id":"01644D07-D9F8-403E-A66D-109ABA29BB6E","code":{"coding":[{"system":"http://terminology.hl7.org/CodeSystem/measure-population","code":"numerator","display":"Numerator"}]},"count":2}],"measureScore":{"value":0}}],"evaluatedResource":[{"reference":"Patient/ce6698d6-ca56-44f7-9390-17e3e7a3dfde"},{"reference":"Encounter/b9bb6420-9c47-4eae-a435-d005e8cf5da1"},{"reference":"Encounter/b422a6f1-afdb-49c6-b846-bf00e51df74f"},{"reference":"Observation/38c023bc-2879-433e-966d-7b1f90dce714"},{"reference":"Observation/18101994-532f-470c-96c5-4ac7fb4ee003"},{"reference":"Observation/4fdce442-04d6-42e9-9ea1-30bd1baf1f59"},{"reference":"Observation/0172fe7f-42bf-4080-8fa4-39f201fc5a83"},{"reference":"Observation/0278359a-0a9b-4b6c-b3d5-8c73509168e0"},{"reference":"Observation/09739404-9012-4e46-8706-d7e84d9733fc"},{"reference":"Observation/d37e5d24-9a18-4a8e-9c01-52f380abc260"},{"reference":"Coverage/f647e3d8-77f3-448a-befd-2e6ada135915"},{"reference":"Organization/300d69c8-b3ac-4f44-8476-2c6132735821"}]},"request":{"method":"PUT","url":"MeasureReport/bbbc9a15-670f-4366-a10a-1c24a372f753"}},{"fullUrl":"https://madie.cms.gov/Encounter/b422a6f1-afdb-49c6-b846-bf00e51df74f","resource":{"resourceType":"Encounter","id":"b422a6f1-afdb-49c6-b846-bf00e51df74f","meta":{"profile":["http://hl7.org/fhir/us/qicore/StructureDefinition/qicore-encounter"]},"status":"finished","class":{"system":"http://terminology.hl7.org/CodeSystem/v3-ActCode","code":"IMP","display":"inpatient encounter"},"type":[{"coding":[{"system":"http://snomed.info/sct","code":"183452005"}]}],"subject":{"reference":"Patient/ce6698d6-ca56-44f7-9390-17e3e7a3dfde"},"period":{"start":"2026-11-01T08:00:00.000+00:00","end":"2026-11-06T20:15:00.000+00:00"}},"request":{"method":"PUT","url":"Encounter/b422a6f1-afdb-49c6-b846-bf00e51df74f"}},{"fullUrl":"https://madie.cms.gov/Observation/09739404-9012-4e46-8706-d7e84d9733fc","resource":{"resourceType":"Observation","id":"09739404-9012-4e46-8706-d7e84d9733fc","meta":{"profile":["http://hl7.org/fhir/us/qicore/StructureDefinition/qicore-observation-lab"]},"status":"final","category":[{"coding":[{"system":"http://terminology.hl7.org/CodeSystem/observation-category","code":"laboratory","display":"Laboratory"}]}],"code":{"coding":[{"system":"http://loinc.org","code":"2160-0","display":"Creatinine [Mass/volume] in Serum or Plasma"}]},"subject":{"reference":"Patient/ce6698d6-ca56-44f7-9390-17e3e7a3dfde"},"effectiveDateTime":"2026-10-01T07:00:00.000+00:00","issued":"2026-10-01T07:30:00.000+00:00","valueQuantity":{"value":0.9,"unit":"mg/dL","system":"http://unitsofmeasure.org","code":"mg/dL"}},"request":{"method":"PUT","url":"Observation/09739404-9012-4e46-8706-d7e84d9733fc"}},{"fullUrl":"https://madie.cms.gov/Encounter/b9bb6420-9c47-4eae-a435-d005e8cf5da1","resource":{"resourceType":"Encounter","id":"b9bb6420-9c47-4eae-a435-d005e8cf5da1","meta":{"profile":["http://hl7.org/fhir/us/qicore/StructureDefinition/qicore-encounter"]},"status":"finished","class":{"system":"http://terminology.hl7.org/CodeSystem/v3-ActCode","code":"IMP","display":"inpatient encounter"},"type":[{"coding":[{"system":"http://snomed.info/sct","code":"183452005"}]}],"subject":{"reference":"Patient/ce6698d6-ca56-44f7-9390-17e3e7a3dfde"},"period":{"start":"2026-09-29T08:00:00.000+00:00","end":"2026-10-03T20:00:00.000+00:00"}},"request":{"method":"PUT","url":"Encounter/b9bb6420-9c47-4eae-a435-d005e8cf5da1"}},{"fullUrl":"https://madie.cms.gov/MeasureReport/eb05f688-327f-479a-9fb1-37fa7e21cf04","resource":{"resourceType":"MeasureReport","id":"eb05f688-327f-479a-9fb1-37fa7e21cf04","meta":{"profile":["http://hl7.org/fhir/us/cqfmeasures/StructureDefinition/test-case-cqfm"]},"contained":[{"resourceType":"Parameters","id":"b16638b6-0be9-4281-aedd-568b7d7483a1-parameters","parameter":[{"name":"subject","valueString":"ce6698d6-ca56-44f7-9390-17e3e7a3dfde"}]}],"extension":[{"url":"http://hl7.org/fhir/StructureDefinition/cqf-inputParameters","valueReference":{"reference":"#b16638b6-0be9-4281-aedd-568b7d7483a1-parameters"}},{"url":"http://hl7.org/fhir/us/cqfmeasures/StructureDefinition/cqfm-testCaseDescription","valueMarkdown":"Both Enc Cr after 48 hrs: 1.81, 1.82. This is double of earlier creat 0.9, .91. Meets Numerator for both Enc.\nVScode: Numerator=[Encounter(id=NUMERPass-TwoEncountersCreatinineDoubled-01), Encounter(id=NUMERPass-TwoEncountersCreatinineDoubled-02)]\n"}],"modifierExtension":[{"url":"http://hl7.org/fhir/us/cqfmeasures/StructureDefinition/cqfm-isTestCase","valueBoolean":true}],"status":"complete","type":"individual","measure":"https://madie.cms.gov/Measure/CMS832HHAKIFHIR","period":{"start":"2026-01-01","end":"2026-12-31"},"group":[{"id":"Group_1","population":[{"id":"InitialPopulation_1","code":{"coding":[{"system":"http://terminology.hl7.org/CodeSystem/measure-population","code":"initial-population","display":"Initial Population"}]},"count":2},{"id":"Denominator_1","code":{"coding":[{"system":"http://terminology.hl7.org/CodeSystem/measure-population","code":"denominator","display":"Denominator"}]},"count":2},{"id":"DenominatorExclusion_1","code":{"coding":[{"system":"http://terminology.hl7.org/CodeSystem/measure-population","code":"denominator-exclusion","display":"Denominator Exclusion"}]},"count":0},{"id":"Numerator_1","code":{"coding":[{"system":"http://terminology.hl7.org/CodeSystem/measure-population","code":"numerator","display":"Numerator"}]},"count":2}],"measureScore":{"value":0.0}}],"evaluatedResource":[{"reference":"Coverage/f647e3d8-77f3-448a-befd-2e6ada135915"},{"reference":"Observation/0172fe7f-42bf-4080-8fa4-39f201fc5a83"},{"reference":"Organization/300d69c8-b3ac-4f44-8476-2c6132735821"},{"reference":"Observation/d37e5d24-9a18-4a8e-9c01-52f380abc260"},{"reference":"Observation/0278359a-0a9b-4b6c-b3d5-8c73509168e0"},{"reference":"Observation/38c023bc-2879-433e-966d-7b1f90dce714"},{"reference":"Observation/18101994-532f-470c-96c5-4ac7fb4ee003"},{"reference":"Observation/4fdce442-04d6-42e9-9ea1-30bd1baf1f59"},{"reference":"Patient/ce6698d6-ca56-44f7-9390-17e3e7a3dfde"},{"reference":"MeasureReport/bbbc9a15-670f-4366-a10a-1c24a372f753"},{"reference":"Encounter/b422a6f1-afdb-49c6-b846-bf00e51df74f"},{"reference":"Observation/09739404-9012-4e46-8706-d7e84d9733fc"},{"reference":"Encounter/b9bb6420-9c47-4eae-a435-d005e8cf5da1"}]},"request":{"method":"PUT","url":"MeasureReport/eb05f688-327f-479a-9fb1-37fa7e21cf04"}}]},"request":{"method":"PUT","url":"Bundle/tests-ce6698d6-ca56-44f7-9390-17e3e7a3dfde-bundle"}},{"fullUrl":"Coverage/f647e3d8-77f3-448a-befd-2e6ada135915","resource":{"resourceType":"Coverage","id":"f647e3d8-77f3-448a-befd-2e6ada135915","meta":{"profile":["http://hl7.org/fhir/us/qicore/StructureDefinition/qicore-coverage"]},"status":"active","type":{"coding":[{"system":"https://nahdo.org/sopt","version":"9.2","code":"211","display":"Medicaid HMO"}]},"beneficiary":{"reference":"Patient/ce6698d6-ca56-44f7-9390-17e3e7a3dfde"},"period":{"start":"2024-12-01T00:00:00.000+00:00"},"payor":[{"reference":"Organization/300d69c8-b3ac-4f44-8476-2c6132735821"}]},"request":{"method":"PUT","url":"Coverage/f647e3d8-77f3-448a-befd-2e6ada135915"}},{"fullUrl":"Observation/d37e5d24-9a18-4a8e-9c01-52f380abc260","resource":{"resourceType":"Observation","id":"d37e5d24-9a18-4a8e-9c01-52f380abc260","meta":{"profile":["http://hl7.org/fhir/us/qicore/StructureDefinition/qicore-observation-lab"]},"status":"final","category":[{"coding":[{"system":"http://terminology.hl7.org/CodeSystem/observation-category","code":"laboratory","display":"Laboratory"}]}],"code":{"coding":[{"system":"http://loinc.org","version":"2.72","code":"2160-0","display":"Creatinine [Mass/volume] in Serum or Plasma","userSelected":true}]},"subject":{"reference":"Patient/ce6698d6-ca56-44f7-9390-17e3e7a3dfde"},"effectiveDateTime":"2026-10-01T07:35:00.000+00:00","issued":"2026-10-01T08:05:00.000+00:00","valueQuantity":{"value":0.9,"unit":"mg/dL","system":"http://unitsofmeasure.org","code":"mg/dL"}},"request":{"method":"PUT","url":"Observation/d37e5d24-9a18-4a8e-9c01-52f380abc260"}},{"fullUrl":"Observation/4fdce442-04d6-42e9-9ea1-30bd1baf1f59","resource":{"resourceType":"Observation","id":"4fdce442-04d6-42e9-9ea1-30bd1baf1f59","meta":{"profile":["http://hl7.org/fhir/us/qicore/StructureDefinition/qicore-observation-lab"]},"status":"final","category":[{"coding":[{"system":"http://terminology.hl7.org/CodeSystem/observation-category","code":"laboratory","display":"Laboratory"}]}],"code":{"coding":[{"system":"http://loinc.org","version":"2.72","code":"2160-0","display":"Creatinine [Mass/volume] in Serum or Plasma","userSelected":true}]},"subject":{"reference":"Patient/ce6698d6-ca56-44f7-9390-17e3e7a3dfde"},"effectiveDateTime":"2026-11-01T08:15:00.000+00:00","issued":"2026-11-01T08:45:00.000+00:00","valueQuantity":{"value":0.91,"unit":"mg/dL","system":"http://unitsofmeasure.org","code":"mg/dL"}},"request":{"method":"PUT","url":"Observation/4fdce442-04d6-42e9-9ea1-30bd1baf1f59"}}]}