{"resourceType":"Bundle","id":"tests-dc647dd6-aff5-4b14-9dde-6c2988291e7a-bundle","type":"transaction","entry":[{"fullUrl":"Encounter/91531bc2-70ea-41ef-b59c-f1cf0eae43bc","resource":{"resourceType":"Encounter","id":"91531bc2-70ea-41ef-b59c-f1cf0eae43bc","meta":{"profile":["http://hl7.org/fhir/us/qicore/StructureDefinition/qicore-encounter"]},"status":"finished","class":{"system":"http://terminology.hl7.org/CodeSystem/v3-ActCode","code":"EMER","display":"emergency"},"type":[{"coding":[{"system":"http://snomed.info/sct","code":"4525004","display":"Emergency department patient visit (procedure)"}]}],"subject":{"reference":"Patient/dc647dd6-aff5-4b14-9dde-6c2988291e7a"},"period":{"start":"2026-09-29T08:00:00.000+00:00","end":"2026-09-29T20:00:00.000+00:00"}},"request":{"method":"PUT","url":"Encounter/91531bc2-70ea-41ef-b59c-f1cf0eae43bc"}},{"fullUrl":"Encounter/b6210bad-7b76-4322-a88a-2f12b7a0a2a3","resource":{"resourceType":"Encounter","id":"b6210bad-7b76-4322-a88a-2f12b7a0a2a3","meta":{"profile":["http://hl7.org/fhir/us/qicore/StructureDefinition/qicore-encounter"]},"status":"finished","class":{"system":"http://terminology.hl7.org/CodeSystem/v3-ActCode","code":"IMP","display":"inpatient encounter"},"type":[{"coding":[{"system":"http://snomed.info/sct","code":"183452005","display":"Emergency hospital admission (procedure)"}]}],"subject":{"reference":"Patient/dc647dd6-aff5-4b14-9dde-6c2988291e7a"},"period":{"start":"2026-09-29T20:01:00.000+00:00","end":"2026-10-03T20:00:00.000+00:00"},"reasonReference":[{"reference":"Condition/2ef58c19-a711-4450-b2fa-3e1c4e0bada4"}]},"request":{"method":"PUT","url":"Encounter/b6210bad-7b76-4322-a88a-2f12b7a0a2a3"}},{"fullUrl":"MeasureReport/7a1e1c78-660f-4329-ac90-ead559aea4eb","resource":{"resourceType":"MeasureReport","id":"7a1e1c78-660f-4329-ac90-ead559aea4eb","meta":{"profile":["http://hl7.org/fhir/us/cqfmeasures/StructureDefinition/test-case-cqfm"]},"contained":[{"resourceType":"Parameters","id":"d33744fc-6023-4dea-b584-3efafa86a302-parameters","parameter":[{"name":"subject","valueString":"dc647dd6-aff5-4b14-9dde-6c2988291e7a"}]}],"extension":[{"url":"http://hl7.org/fhir/StructureDefinition/cqf-inputParameters","valueReference":{"reference":"#d33744fc-6023-4dea-b584-3efafa86a302-parameters"}},{"url":"http://hl7.org/fhir/us/cqfmeasures/StructureDefinition/cqfm-testCaseDescription","valueMarkdown":"RV Encounters that return the first Body Temp"}],"modifierExtension":[{"url":"http://hl7.org/fhir/us/cqfmeasures/StructureDefinition/cqfm-isTestCase","valueBoolean":true}],"status":"complete","type":"individual","measure":"https://madie.cms.gov/Measure/CMS832HHAKIFHIR","period":{"start":"2026-01-01","end":"2026-12-31"},"group":[{"id":"Group_1","population":[{"id":"InitialPopulation_1","code":{"coding":[{"system":"http://terminology.hl7.org/CodeSystem/measure-population","code":"initial-population","display":"Initial Population"}]},"count":1},{"id":"Denominator_1","code":{"coding":[{"system":"http://terminology.hl7.org/CodeSystem/measure-population","code":"denominator","display":"Denominator"}]},"count":1},{"id":"DenominatorExclusion_1","code":{"coding":[{"system":"http://terminology.hl7.org/CodeSystem/measure-population","code":"denominator-exclusion","display":"Denominator Exclusion"}]},"count":1},{"id":"Numerator_1","code":{"coding":[{"system":"http://terminology.hl7.org/CodeSystem/measure-population","code":"numerator","display":"Numerator"}]},"count":0}],"measureScore":{"value":0.0}}],"evaluatedResource":[{"reference":"Patient/dc647dd6-aff5-4b14-9dde-6c2988291e7a"},{"reference":"Encounter/91531bc2-70ea-41ef-b59c-f1cf0eae43bc"},{"reference":"Encounter/b6210bad-7b76-4322-a88a-2f12b7a0a2a3"},{"reference":"Observation/79aecc0b-b7cc-4d40-81a9-1ab6fd9e888f"},{"reference":"Observation/dcaeefc7-6c34-47a4-8843-630e25e1ca84"},{"reference":"Condition/2ef58c19-a711-4450-b2fa-3e1c4e0bada4"},{"reference":"Observation/df86eae3-aba8-4328-a50e-a368471709e7"},{"reference":"Observation/bb453dc2-4635-4e99-aaa8-f86e1db883f8"}]},"request":{"method":"PUT","url":"MeasureReport/7a1e1c78-660f-4329-ac90-ead559aea4eb"}},{"fullUrl":"Observation/79aecc0b-b7cc-4d40-81a9-1ab6fd9e888f","resource":{"resourceType":"Observation","id":"79aecc0b-b7cc-4d40-81a9-1ab6fd9e888f","meta":{"profile":["http://hl7.org/fhir/us/qicore/StructureDefinition/qicore-observation-lab"]},"status":"final","category":[{"coding":[{"system":"http://terminology.hl7.org/CodeSystem/observation-category","code":"laboratory","display":"Laboratory"}]}],"code":{"coding":[{"system":"http://loinc.org","code":"21232-4","display":"Creatinine [Mass/volume] in Serum or Plasma"}]},"subject":{"reference":"Patient/dc647dd6-aff5-4b14-9dde-6c2988291e7a"},"effectiveDateTime":"2026-10-01T08:01:00.000+00:00","valueQuantity":{"value":0.9,"unit":"mg/dL","system":"http://unitsofmeasure.org","code":"mg/dL"}},"request":{"method":"PUT","url":"Observation/79aecc0b-b7cc-4d40-81a9-1ab6fd9e888f"}},{"fullUrl":"Condition/2ef58c19-a711-4450-b2fa-3e1c4e0bada4","resource":{"resourceType":"Condition","id":"2ef58c19-a711-4450-b2fa-3e1c4e0bada4","meta":{"profile":["http://hl7.org/fhir/us/qicore/StructureDefinition/qicore-condition-encounter-diagnosis"]},"clinicalStatus":{"coding":[{"system":"http://terminology.hl7.org/CodeSystem/condition-clinical","code":"active","display":"Active"}]},"verificationStatus":{"coding":[{"system":"http://terminology.hl7.org/CodeSystem/condition-ver-status","code":"confirmed","display":"Confirmed"}]},"code":{"coding":[{"system":"http://hl7.org/fhir/sid/icd-10-cm","code":"S37.061A","display":"Major laceration of right kidney, initial encounter"}],"text":"Major laceration of right kidney, initial encounter"},"subject":{"reference":"Patient/dc647dd6-aff5-4b14-9dde-6c2988291e7a"},"encounter":{"reference":"Encounter/b6210bad-7b76-4322-a88a-2f12b7a0a2a3"}},"request":{"method":"PUT","url":"Condition/2ef58c19-a711-4450-b2fa-3e1c4e0bada4"}},{"fullUrl":"Observation/dcaeefc7-6c34-47a4-8843-630e25e1ca84","resource":{"resourceType":"Observation","id":"dcaeefc7-6c34-47a4-8843-630e25e1ca84","meta":{"profile":["http://hl7.org/fhir/us/qicore/StructureDefinition/qicore-observation-lab"]},"status":"final","category":[{"coding":[{"system":"http://terminology.hl7.org/CodeSystem/observation-category","code":"laboratory","display":"Laboratory"}]}],"code":{"coding":[{"system":"http://loinc.org","code":"21232-4","display":"Creatinine [Mass/volume] in Serum or Plasma"}]},"subject":{"reference":"Patient/dc647dd6-aff5-4b14-9dde-6c2988291e7a"},"effectiveDateTime":"2026-10-01T07:00:00.000+00:00","valueQuantity":{"value":0.91,"unit":"mg/dL","system":"http://unitsofmeasure.org","code":"mg/dL"}},"request":{"method":"PUT","url":"Observation/dcaeefc7-6c34-47a4-8843-630e25e1ca84"}},{"fullUrl":"Bundle/tests-RVwithBodyTemp","resource":{"resourceType":"Bundle","id":"tests-RVwithBodyTemp","type":"transaction","entry":[{"fullUrl":"https://madie.cms.gov/Patient/dc647dd6-aff5-4b14-9dde-6c2988291e7a","resource":{"resourceType":"Patient","id":"dc647dd6-aff5-4b14-9dde-6c2988291e7a","meta":{"profile":["http://hl7.org/fhir/us/qicore/StructureDefinition/qicore-patient"]},"extension":[{"url":"http://hl7.org/fhir/us/core/StructureDefinition/us-core-race","extension":[{"url":"ombCategory","valueCoding":{"system":"urn:oid:2.16.840.1.113883.6.238","code":"1002-5","display":"American Indian or Alaska Native","userSelected":true}},{"url":"text","valueString":"American Indian or Alaska Native"},{"url":"detailed","valueCoding":{"system":"urn:oid:2.16.840.1.113883.6.238","code":"1653-5","display":"Tohono O'Odham"}}]},{"url":"http://hl7.org/fhir/us/core/StructureDefinition/us-core-ethnicity","extension":[{"url":"ombCategory","valueCoding":{"system":"urn:oid:2.16.840.1.113883.6.238","code":"2135-2","display":"Hispanic or Latino","userSelected":true}},{"url":"text","valueString":"Not Hispanic or Latino"},{"url":"detailed","valueCoding":{"system":"urn:oid:2.16.840.1.113883.6.238","code":"2153-5","display":"Mexican American Indian"}}]},{"url":"http://hl7.org/fhir/us/core/StructureDefinition/us-core-sex","valueCode":"248153007"}],"identifier":[{"system":"http://hospital.smarthealthit.org","value":"999999999"}],"name":[{"family":"Example","given":["Patient"]}],"gender":"male","birthDate":"1975-01-01"},"request":{"method":"PUT","url":"Patient/dc647dd6-aff5-4b14-9dde-6c2988291e7a"}},{"fullUrl":"https://madie.cms.gov/Encounter/91531bc2-70ea-41ef-b59c-f1cf0eae43bc","resource":{"resourceType":"Encounter","id":"91531bc2-70ea-41ef-b59c-f1cf0eae43bc","meta":{"profile":["http://hl7.org/fhir/us/qicore/StructureDefinition/qicore-encounter"]},"status":"finished","class":{"system":"http://terminology.hl7.org/CodeSystem/v3-ActCode","code":"EMER","display":"emergency"},"type":[{"coding":[{"system":"http://snomed.info/sct","code":"4525004","display":"Emergency department patient visit (procedure)"}]}],"subject":{"reference":"Patient/dc647dd6-aff5-4b14-9dde-6c2988291e7a"},"period":{"start":"2026-09-29T08:00:00.000+00:00","end":"2026-09-29T20:00:00.000+00:00"}},"request":{"method":"PUT","url":"Encounter/91531bc2-70ea-41ef-b59c-f1cf0eae43bc"}},{"fullUrl":"https://madie.cms.gov/Encounter/b6210bad-7b76-4322-a88a-2f12b7a0a2a3","resource":{"resourceType":"Encounter","id":"b6210bad-7b76-4322-a88a-2f12b7a0a2a3","meta":{"profile":["http://hl7.org/fhir/us/qicore/StructureDefinition/qicore-encounter"]},"status":"finished","class":{"system":"http://terminology.hl7.org/CodeSystem/v3-ActCode","code":"IMP","display":"inpatient encounter"},"type":[{"coding":[{"system":"http://snomed.info/sct","code":"183452005","display":"Emergency hospital admission (procedure)"}]}],"subject":{"reference":"Patient/dc647dd6-aff5-4b14-9dde-6c2988291e7a"},"period":{"start":"2026-09-29T20:01:00.000+00:00","end":"2026-10-03T20:00:00.000+00:00"},"reasonReference":[{"reference":"Condition/2ef58c19-a711-4450-b2fa-3e1c4e0bada4"}]},"request":{"method":"PUT","url":"Encounter/b6210bad-7b76-4322-a88a-2f12b7a0a2a3"}},{"fullUrl":"https://madie.cms.gov/Observation/79aecc0b-b7cc-4d40-81a9-1ab6fd9e888f","resource":{"resourceType":"Observation","id":"79aecc0b-b7cc-4d40-81a9-1ab6fd9e888f","meta":{"profile":["http://hl7.org/fhir/us/qicore/StructureDefinition/qicore-observation-lab"]},"status":"final","category":[{"coding":[{"system":"http://terminology.hl7.org/CodeSystem/observation-category","code":"laboratory","display":"Laboratory"}]}],"code":{"coding":[{"system":"http://loinc.org","code":"21232-4","display":"Creatinine [Mass/volume] in Serum or Plasma"}]},"subject":{"reference":"Patient/dc647dd6-aff5-4b14-9dde-6c2988291e7a"},"effectiveDateTime":"2026-10-01T08:01:00.000+00:00","valueQuantity":{"value":0.9,"unit":"mg/dL","system":"http://unitsofmeasure.org","code":"mg/dL"}},"request":{"method":"PUT","url":"Observation/79aecc0b-b7cc-4d40-81a9-1ab6fd9e888f"}},{"fullUrl":"https://madie.cms.gov/Observation/dcaeefc7-6c34-47a4-8843-630e25e1ca84","resource":{"resourceType":"Observation","id":"dcaeefc7-6c34-47a4-8843-630e25e1ca84","meta":{"profile":["http://hl7.org/fhir/us/qicore/StructureDefinition/qicore-observation-lab"]},"status":"final","category":[{"coding":[{"system":"http://terminology.hl7.org/CodeSystem/observation-category","code":"laboratory","display":"Laboratory"}]}],"code":{"coding":[{"system":"http://loinc.org","code":"21232-4","display":"Creatinine [Mass/volume] in Serum or Plasma"}]},"subject":{"reference":"Patient/dc647dd6-aff5-4b14-9dde-6c2988291e7a"},"effectiveDateTime":"2026-10-01T07:00:00.000+00:00","valueQuantity":{"value":0.91,"unit":"mg/dL","system":"http://unitsofmeasure.org","code":"mg/dL"}},"request":{"method":"PUT","url":"Observation/dcaeefc7-6c34-47a4-8843-630e25e1ca84"}},{"fullUrl":"https://madie.cms.gov/Condition/2ef58c19-a711-4450-b2fa-3e1c4e0bada4","resource":{"resourceType":"Condition","id":"2ef58c19-a711-4450-b2fa-3e1c4e0bada4","meta":{"profile":["http://hl7.org/fhir/us/qicore/StructureDefinition/qicore-condition-encounter-diagnosis"]},"clinicalStatus":{"coding":[{"system":"http://terminology.hl7.org/CodeSystem/condition-clinical","code":"active","display":"Active"}]},"verificationStatus":{"coding":[{"system":"http://terminology.hl7.org/CodeSystem/condition-ver-status","code":"confirmed","display":"Confirmed"}]},"code":{"coding":[{"system":"http://hl7.org/fhir/sid/icd-10-cm","code":"S37.061A","display":"Major laceration of right kidney, initial encounter"}],"text":"Major laceration of right kidney, initial encounter"},"subject":{"reference":"Patient/dc647dd6-aff5-4b14-9dde-6c2988291e7a"},"encounter":{"reference":"Encounter/b6210bad-7b76-4322-a88a-2f12b7a0a2a3"}},"request":{"method":"PUT","url":"Condition/2ef58c19-a711-4450-b2fa-3e1c4e0bada4"}},{"fullUrl":"https://madie.cms.gov/Observation/df86eae3-aba8-4328-a50e-a368471709e7","resource":{"resourceType":"Observation","id":"df86eae3-aba8-4328-a50e-a368471709e7","meta":{"profile":["http://hl7.org/fhir/us/qicore/StructureDefinition/qicore-observation-lab"]},"status":"final","category":[{"coding":[{"system":"http://terminology.hl7.org/CodeSystem/observation-category","code":"laboratory","display":"Laboratory"}]}],"code":{"coding":[{"system":"http://loinc.org","code":"21232-4","display":"Creatinine [Mass/volume] in Serum or Plasma"}]},"subject":{"reference":"Patient/dc647dd6-aff5-4b14-9dde-6c2988291e7a"},"effectiveDateTime":"2026-10-01T07:35:00.000+00:00","valueQuantity":{"value":0.91,"unit":"mg/dL","system":"http://unitsofmeasure.org","code":"mg/dL"}},"request":{"method":"PUT","url":"Observation/df86eae3-aba8-4328-a50e-a368471709e7"}},{"fullUrl":"https://madie.cms.gov/Observation/bb453dc2-4635-4e99-aaa8-f86e1db883f8","resource":{"resourceType":"Observation","id":"bb453dc2-4635-4e99-aaa8-f86e1db883f8","meta":{"profile":["http://hl7.org/fhir/us/core/StructureDefinition/us-core-body-temperature"]},"status":"final","category":[{"coding":[{"system":"http://terminology.hl7.org/CodeSystem/observation-category","code":"vital-signs","display":"Vital Signs"}]}],"code":{"coding":[{"system":"http://loinc.org","code":"8310-5","display":"Body temperature"}],"text":"Body temperature"},"subject":{"reference":"Patient/dc647dd6-aff5-4b14-9dde-6c2988291e7a"},"encounter":{"reference":"Encounter/b6210bad-7b76-4322-a88a-2f12b7a0a2a3"},"effectiveDateTime":"2026-10-01T08:30:00.000+00:00","valueQuantity":{"value":98.6}},"request":{"method":"PUT","url":"Observation/bb453dc2-4635-4e99-aaa8-f86e1db883f8"}},{"fullUrl":"https://madie.cms.gov/MeasureReport/7a1e1c78-660f-4329-ac90-ead559aea4eb","resource":{"resourceType":"MeasureReport","id":"7a1e1c78-660f-4329-ac90-ead559aea4eb","meta":{"profile":["http://hl7.org/fhir/us/cqfmeasures/StructureDefinition/test-case-cqfm"]},"contained":[{"resourceType":"Parameters","id":"d33744fc-6023-4dea-b584-3efafa86a302-parameters","parameter":[{"name":"subject","valueString":"dc647dd6-aff5-4b14-9dde-6c2988291e7a"}]}],"extension":[{"url":"http://hl7.org/fhir/StructureDefinition/cqf-inputParameters","valueReference":{"reference":"#d33744fc-6023-4dea-b584-3efafa86a302-parameters"}},{"url":"http://hl7.org/fhir/us/cqfmeasures/StructureDefinition/cqfm-testCaseDescription","valueMarkdown":"RV Encounters that return the first Body Temp"}],"modifierExtension":[{"url":"http://hl7.org/fhir/us/cqfmeasures/StructureDefinition/cqfm-isTestCase","valueBoolean":true}],"status":"complete","type":"individual","measure":"https://madie.cms.gov/Measure/CMS832HHAKIFHIR","period":{"start":"2026-01-01","end":"2026-12-31"},"group":[{"id":"Group_1","population":[{"id":"InitialPopulation_1","code":{"coding":[{"system":"http://terminology.hl7.org/CodeSystem/measure-population","code":"initial-population","display":"Initial Population"}]},"count":1},{"id":"Denominator_1","code":{"coding":[{"system":"http://terminology.hl7.org/CodeSystem/measure-population","code":"denominator","display":"Denominator"}]},"count":1},{"id":"DenominatorExclusion_1","code":{"coding":[{"system":"http://terminology.hl7.org/CodeSystem/measure-population","code":"denominator-exclusion","display":"Denominator Exclusion"}]},"count":1},{"id":"Numerator_1","code":{"coding":[{"system":"http://terminology.hl7.org/CodeSystem/measure-population","code":"numerator","display":"Numerator"}]},"count":0}],"measureScore":{"value":0.0}}],"evaluatedResource":[{"reference":"Patient/dc647dd6-aff5-4b14-9dde-6c2988291e7a"},{"reference":"Encounter/91531bc2-70ea-41ef-b59c-f1cf0eae43bc"},{"reference":"Encounter/b6210bad-7b76-4322-a88a-2f12b7a0a2a3"},{"reference":"Observation/79aecc0b-b7cc-4d40-81a9-1ab6fd9e888f"},{"reference":"Observation/dcaeefc7-6c34-47a4-8843-630e25e1ca84"},{"reference":"Condition/2ef58c19-a711-4450-b2fa-3e1c4e0bada4"},{"reference":"Observation/df86eae3-aba8-4328-a50e-a368471709e7"},{"reference":"Observation/bb453dc2-4635-4e99-aaa8-f86e1db883f8"}]},"request":{"method":"PUT","url":"MeasureReport/7a1e1c78-660f-4329-ac90-ead559aea4eb"}}]},"request":{"method":"PUT","url":"Bundle/tests-RVwithBodyTemp"}},{"fullUrl":"Patient/dc647dd6-aff5-4b14-9dde-6c2988291e7a","resource":{"resourceType":"Patient","id":"dc647dd6-aff5-4b14-9dde-6c2988291e7a","meta":{"profile":["http://hl7.org/fhir/us/qicore/StructureDefinition/qicore-patient"]},"extension":[{"url":"http://hl7.org/fhir/us/core/StructureDefinition/us-core-race","extension":[{"url":"ombCategory","valueCoding":{"system":"urn:oid:2.16.840.1.113883.6.238","code":"1002-5","display":"American Indian or Alaska Native","userSelected":true}},{"url":"text","valueString":"American Indian or Alaska Native"},{"url":"detailed","valueCoding":{"system":"urn:oid:2.16.840.1.113883.6.238","code":"1653-5","display":"Tohono O'Odham"}}]},{"url":"http://hl7.org/fhir/us/core/StructureDefinition/us-core-ethnicity","extension":[{"url":"ombCategory","valueCoding":{"system":"urn:oid:2.16.840.1.113883.6.238","code":"2135-2","display":"Hispanic or Latino","userSelected":true}},{"url":"text","valueString":"Not Hispanic or Latino"},{"url":"detailed","valueCoding":{"system":"urn:oid:2.16.840.1.113883.6.238","code":"2153-5","display":"Mexican American Indian"}}]},{"url":"http://hl7.org/fhir/us/core/StructureDefinition/us-core-sex","valueCode":"248153007"}],"identifier":[{"system":"http://hospital.smarthealthit.org","value":"999999999"}],"name":[{"family":"Example","given":["Patient"]}],"gender":"male","birthDate":"1975-01-01"},"request":{"method":"PUT","url":"Patient/dc647dd6-aff5-4b14-9dde-6c2988291e7a"}},{"fullUrl":"Observation/df86eae3-aba8-4328-a50e-a368471709e7","resource":{"resourceType":"Observation","id":"df86eae3-aba8-4328-a50e-a368471709e7","meta":{"profile":["http://hl7.org/fhir/us/qicore/StructureDefinition/qicore-observation-lab"]},"status":"final","category":[{"coding":[{"system":"http://terminology.hl7.org/CodeSystem/observation-category","code":"laboratory","display":"Laboratory"}]}],"code":{"coding":[{"system":"http://loinc.org","code":"21232-4","display":"Creatinine [Mass/volume] in Serum or Plasma"}]},"subject":{"reference":"Patient/dc647dd6-aff5-4b14-9dde-6c2988291e7a"},"effectiveDateTime":"2026-10-01T07:35:00.000+00:00","valueQuantity":{"value":0.91,"unit":"mg/dL","system":"http://unitsofmeasure.org","code":"mg/dL"}},"request":{"method":"PUT","url":"Observation/df86eae3-aba8-4328-a50e-a368471709e7"}},{"fullUrl":"Observation/bb453dc2-4635-4e99-aaa8-f86e1db883f8","resource":{"resourceType":"Observation","id":"bb453dc2-4635-4e99-aaa8-f86e1db883f8","meta":{"profile":["http://hl7.org/fhir/us/core/StructureDefinition/us-core-body-temperature"]},"status":"final","category":[{"coding":[{"system":"http://terminology.hl7.org/CodeSystem/observation-category","code":"vital-signs","display":"Vital Signs"}]}],"code":{"coding":[{"system":"http://loinc.org","code":"8310-5","display":"Body temperature"}],"text":"Body temperature"},"subject":{"reference":"Patient/dc647dd6-aff5-4b14-9dde-6c2988291e7a"},"encounter":{"reference":"Encounter/b6210bad-7b76-4322-a88a-2f12b7a0a2a3"},"effectiveDateTime":"2026-10-01T08:30:00.000+00:00","valueQuantity":{"value":98.6}},"request":{"method":"PUT","url":"Observation/bb453dc2-4635-4e99-aaa8-f86e1db883f8"}}]}