{"resourceType":"Bundle","id":"tests-0dea3c95-bee3-479a-bd9e-22397d17fa1a-bundle","type":"transaction","entry":[{"fullUrl":"MeasureReport/c31cd756-948b-4bd4-9fa3-9a772254e52e","resource":{"resourceType":"MeasureReport","id":"c31cd756-948b-4bd4-9fa3-9a772254e52e","meta":{"profile":["http://hl7.org/fhir/us/cqfmeasures/StructureDefinition/test-case-cqfm"]},"contained":[{"resourceType":"Parameters","id":"89e27aeb-eff4-47ea-9ce2-917de52dff55-parameters","parameter":[{"name":"subject","valueString":"0dea3c95-bee3-479a-bd9e-22397d17fa1a"}]}],"extension":[{"url":"http://hl7.org/fhir/StructureDefinition/cqf-inputParameters","valueReference":{"reference":"#89e27aeb-eff4-47ea-9ce2-917de52dff55-parameters"}},{"url":"http://hl7.org/fhir/us/cqfmeasures/StructureDefinition/cqfm-testCaseDescription","valueMarkdown":"Female IP Encounter with an eGFR calculation of less than 60, based on SCr = 1.13. SCr is within first 24 hours. eGFR must be <60 so does meet denominator exclusion. "}],"modifierExtension":[{"url":"http://hl7.org/fhir/us/cqfmeasures/StructureDefinition/cqfm-isTestCase","valueBoolean":true}],"status":"complete","type":"individual","measure":"https://madie.cms.gov/Measure/CMS832HHAKIFHIR","period":{"start":"2026-01-01","end":"2026-12-31"},"group":[{"id":"Group_1","population":[{"id":"InitialPopulation_1","code":{"coding":[{"system":"http://terminology.hl7.org/CodeSystem/measure-population","code":"initial-population","display":"Initial Population"}]},"count":1},{"id":"Denominator_1","code":{"coding":[{"system":"http://terminology.hl7.org/CodeSystem/measure-population","code":"denominator","display":"Denominator"}]},"count":1},{"id":"DenominatorExclusion_1","code":{"coding":[{"system":"http://terminology.hl7.org/CodeSystem/measure-population","code":"denominator-exclusion","display":"Denominator Exclusion"}]},"count":1},{"id":"Numerator_1","code":{"coding":[{"system":"http://terminology.hl7.org/CodeSystem/measure-population","code":"numerator","display":"Numerator"}]},"count":0}],"measureScore":{"value":0.0}}],"evaluatedResource":[{"reference":"Patient/0dea3c95-bee3-479a-bd9e-22397d17fa1a"},{"reference":"Encounter/f778c6cf-a946-4c4e-8ca5-f0127c9202ed"},{"reference":"Encounter/419a2d8d-ff11-4593-8658-b16e1a3386dc"},{"reference":"Observation/dfd25519-05da-4ba1-a679-2576dcf7dc8c"},{"reference":"Observation/c6b6c4a8-64d8-4e81-a036-356873d5e1d1"},{"reference":"Observation/66b8d16d-bece-4344-8d01-b7189b87d908"}]},"request":{"method":"PUT","url":"MeasureReport/c31cd756-948b-4bd4-9fa3-9a772254e52e"}},{"fullUrl":"Observation/66b8d16d-bece-4344-8d01-b7189b87d908","resource":{"resourceType":"Observation","id":"66b8d16d-bece-4344-8d01-b7189b87d908","meta":{"profile":["http://hl7.org/fhir/us/qicore/StructureDefinition/qicore-observation-lab"]},"status":"final","category":[{"coding":[{"system":"http://terminology.hl7.org/CodeSystem/observation-category","code":"laboratory","display":"Laboratory"}]}],"code":{"coding":[{"system":"http://loinc.org","code":"21232-4","display":"Creatinine [Mass/volume] in Serum or Plasma"}]},"subject":{"reference":"Patient/0dea3c95-bee3-479a-bd9e-22397d17fa1a"},"effectiveDateTime":"2026-10-01T07:35:00.000+00:00","valueQuantity":{"value":1.13,"unit":"mg/dL","system":"http://unitsofmeasure.org","code":"mg/dL"}},"request":{"method":"PUT","url":"Observation/66b8d16d-bece-4344-8d01-b7189b87d908"}},{"fullUrl":"Encounter/f778c6cf-a946-4c4e-8ca5-f0127c9202ed","resource":{"resourceType":"Encounter","id":"f778c6cf-a946-4c4e-8ca5-f0127c9202ed","meta":{"profile":["http://hl7.org/fhir/us/qicore/StructureDefinition/qicore-encounter"]},"status":"finished","class":{"system":"http://terminology.hl7.org/CodeSystem/v3-ActCode","code":"EMER","display":"emergency"},"type":[{"coding":[{"system":"http://snomed.info/sct","code":"4525004","display":"Emergency department patient visit (procedure)"}]}],"subject":{"reference":"Patient/0dea3c95-bee3-479a-bd9e-22397d17fa1a"},"period":{"start":"2026-09-29T08:00:00.000+00:00","end":"2026-09-29T20:00:00.000+00:00"}},"request":{"method":"PUT","url":"Encounter/f778c6cf-a946-4c4e-8ca5-f0127c9202ed"}},{"fullUrl":"Encounter/419a2d8d-ff11-4593-8658-b16e1a3386dc","resource":{"resourceType":"Encounter","id":"419a2d8d-ff11-4593-8658-b16e1a3386dc","meta":{"profile":["http://hl7.org/fhir/us/qicore/StructureDefinition/qicore-encounter"]},"status":"finished","class":{"system":"http://terminology.hl7.org/CodeSystem/v3-ActCode","code":"IMP","display":"inpatient encounter"},"type":[{"coding":[{"system":"http://snomed.info/sct","code":"183452005","display":"Emergency hospital admission (procedure)"}]}],"subject":{"reference":"Patient/0dea3c95-bee3-479a-bd9e-22397d17fa1a"},"period":{"start":"2026-09-29T20:01:00.000+00:00","end":"2026-10-03T20:00:00.000+00:00"}},"request":{"method":"PUT","url":"Encounter/419a2d8d-ff11-4593-8658-b16e1a3386dc"}},{"fullUrl":"Observation/c6b6c4a8-64d8-4e81-a036-356873d5e1d1","resource":{"resourceType":"Observation","id":"c6b6c4a8-64d8-4e81-a036-356873d5e1d1","meta":{"profile":["http://hl7.org/fhir/us/qicore/StructureDefinition/qicore-observation-lab"]},"status":"final","category":[{"coding":[{"system":"http://terminology.hl7.org/CodeSystem/observation-category","code":"laboratory","display":"Laboratory"}]}],"code":{"coding":[{"system":"http://loinc.org","code":"21232-4","display":"Creatinine [Mass/volume] in Serum or Plasma"}]},"subject":{"reference":"Patient/0dea3c95-bee3-479a-bd9e-22397d17fa1a"},"effectiveDateTime":"2026-10-01T07:00:00.000+00:00","valueQuantity":{"value":1.13,"unit":"mg/dL","system":"http://unitsofmeasure.org","code":"mg/dL"}},"request":{"method":"PUT","url":"Observation/c6b6c4a8-64d8-4e81-a036-356873d5e1d1"}},{"fullUrl":"Bundle/tests-DENEXFail-FemaleEncountereGFR62","resource":{"resourceType":"Bundle","id":"tests-DENEXFail-FemaleEncountereGFR62","type":"transaction","entry":[{"fullUrl":"https://madie.cms.gov/Patient/0dea3c95-bee3-479a-bd9e-22397d17fa1a","resource":{"resourceType":"Patient","id":"0dea3c95-bee3-479a-bd9e-22397d17fa1a","meta":{"profile":["http://hl7.org/fhir/us/qicore/StructureDefinition/qicore-patient"]},"extension":[{"url":"http://hl7.org/fhir/us/core/StructureDefinition/us-core-race","extension":[{"url":"ombCategory","valueCoding":{"system":"urn:oid:2.16.840.1.113883.6.238","code":"2106-3","display":"White"}},{"url":"text","valueString":"White"}]},{"url":"http://hl7.org/fhir/us/core/StructureDefinition/us-core-ethnicity","extension":[{"url":"ombCategory","valueCoding":{"system":"urn:oid:2.16.840.1.113883.6.238","code":"2135-2","display":"Hispanic or Latino"}},{"url":"text","valueString":"Hispanic or Latino"}]},{"url":"http://hl7.org/fhir/us/core/StructureDefinition/us-core-sex","valueCode":"248152002"}],"identifier":[{"system":"http://hospital.smarthealthit.org","value":"999999999"}],"name":[{"family":"Example","given":["Patient"]}],"gender":"female","birthDate":"1975-01-01"},"request":{"method":"PUT","url":"Patient/0dea3c95-bee3-479a-bd9e-22397d17fa1a"}},{"fullUrl":"https://madie.cms.gov/Encounter/f778c6cf-a946-4c4e-8ca5-f0127c9202ed","resource":{"resourceType":"Encounter","id":"f778c6cf-a946-4c4e-8ca5-f0127c9202ed","meta":{"profile":["http://hl7.org/fhir/us/qicore/StructureDefinition/qicore-encounter"]},"status":"finished","class":{"system":"http://terminology.hl7.org/CodeSystem/v3-ActCode","code":"EMER","display":"emergency"},"type":[{"coding":[{"system":"http://snomed.info/sct","code":"4525004","display":"Emergency department patient visit (procedure)"}]}],"subject":{"reference":"Patient/0dea3c95-bee3-479a-bd9e-22397d17fa1a"},"period":{"start":"2026-09-29T08:00:00.000+00:00","end":"2026-09-29T20:00:00.000+00:00"}},"request":{"method":"PUT","url":"Encounter/f778c6cf-a946-4c4e-8ca5-f0127c9202ed"}},{"fullUrl":"https://madie.cms.gov/Encounter/419a2d8d-ff11-4593-8658-b16e1a3386dc","resource":{"resourceType":"Encounter","id":"419a2d8d-ff11-4593-8658-b16e1a3386dc","meta":{"profile":["http://hl7.org/fhir/us/qicore/StructureDefinition/qicore-encounter"]},"status":"finished","class":{"system":"http://terminology.hl7.org/CodeSystem/v3-ActCode","code":"IMP","display":"inpatient encounter"},"type":[{"coding":[{"system":"http://snomed.info/sct","code":"183452005","display":"Emergency hospital admission (procedure)"}]}],"subject":{"reference":"Patient/0dea3c95-bee3-479a-bd9e-22397d17fa1a"},"period":{"start":"2026-09-29T20:01:00.000+00:00","end":"2026-10-03T20:00:00.000+00:00"}},"request":{"method":"PUT","url":"Encounter/419a2d8d-ff11-4593-8658-b16e1a3386dc"}},{"fullUrl":"https://madie.cms.gov/Observation/dfd25519-05da-4ba1-a679-2576dcf7dc8c","resource":{"resourceType":"Observation","id":"dfd25519-05da-4ba1-a679-2576dcf7dc8c","meta":{"profile":["http://hl7.org/fhir/us/qicore/StructureDefinition/qicore-observation-lab"]},"status":"final","category":[{"coding":[{"system":"http://terminology.hl7.org/CodeSystem/observation-category","code":"laboratory","display":"Laboratory"}]}],"code":{"coding":[{"system":"http://loinc.org","code":"21232-4","display":"Creatinine [Mass/volume] in Serum or Plasma"}]},"subject":{"reference":"Patient/0dea3c95-bee3-479a-bd9e-22397d17fa1a"},"effectiveDateTime":"2026-10-01T08:01:00.000+00:00","valueQuantity":{"value":1.14,"unit":"mg/dL","system":"http://unitsofmeasure.org","code":"mg/dL"}},"request":{"method":"PUT","url":"Observation/dfd25519-05da-4ba1-a679-2576dcf7dc8c"}},{"fullUrl":"https://madie.cms.gov/Observation/c6b6c4a8-64d8-4e81-a036-356873d5e1d1","resource":{"resourceType":"Observation","id":"c6b6c4a8-64d8-4e81-a036-356873d5e1d1","meta":{"profile":["http://hl7.org/fhir/us/qicore/StructureDefinition/qicore-observation-lab"]},"status":"final","category":[{"coding":[{"system":"http://terminology.hl7.org/CodeSystem/observation-category","code":"laboratory","display":"Laboratory"}]}],"code":{"coding":[{"system":"http://loinc.org","code":"21232-4","display":"Creatinine [Mass/volume] in Serum or Plasma"}]},"subject":{"reference":"Patient/0dea3c95-bee3-479a-bd9e-22397d17fa1a"},"effectiveDateTime":"2026-10-01T07:00:00.000+00:00","valueQuantity":{"value":1.13,"unit":"mg/dL","system":"http://unitsofmeasure.org","code":"mg/dL"}},"request":{"method":"PUT","url":"Observation/c6b6c4a8-64d8-4e81-a036-356873d5e1d1"}},{"fullUrl":"https://madie.cms.gov/Observation/66b8d16d-bece-4344-8d01-b7189b87d908","resource":{"resourceType":"Observation","id":"66b8d16d-bece-4344-8d01-b7189b87d908","meta":{"profile":["http://hl7.org/fhir/us/qicore/StructureDefinition/qicore-observation-lab"]},"status":"final","category":[{"coding":[{"system":"http://terminology.hl7.org/CodeSystem/observation-category","code":"laboratory","display":"Laboratory"}]}],"code":{"coding":[{"system":"http://loinc.org","code":"21232-4","display":"Creatinine [Mass/volume] in Serum or Plasma"}]},"subject":{"reference":"Patient/0dea3c95-bee3-479a-bd9e-22397d17fa1a"},"effectiveDateTime":"2026-10-01T07:35:00.000+00:00","valueQuantity":{"value":1.13,"unit":"mg/dL","system":"http://unitsofmeasure.org","code":"mg/dL"}},"request":{"method":"PUT","url":"Observation/66b8d16d-bece-4344-8d01-b7189b87d908"}},{"fullUrl":"https://madie.cms.gov/MeasureReport/c31cd756-948b-4bd4-9fa3-9a772254e52e","resource":{"resourceType":"MeasureReport","id":"c31cd756-948b-4bd4-9fa3-9a772254e52e","meta":{"profile":["http://hl7.org/fhir/us/cqfmeasures/StructureDefinition/test-case-cqfm"]},"contained":[{"resourceType":"Parameters","id":"89e27aeb-eff4-47ea-9ce2-917de52dff55-parameters","parameter":[{"name":"subject","valueString":"0dea3c95-bee3-479a-bd9e-22397d17fa1a"}]}],"extension":[{"url":"http://hl7.org/fhir/StructureDefinition/cqf-inputParameters","valueReference":{"reference":"#89e27aeb-eff4-47ea-9ce2-917de52dff55-parameters"}},{"url":"http://hl7.org/fhir/us/cqfmeasures/StructureDefinition/cqfm-testCaseDescription","valueMarkdown":"Female IP Encounter with an eGFR calculation of less than 60, based on SCr = 1.13. SCr is within first 24 hours. eGFR must be <60 so does meet denominator exclusion. "}],"modifierExtension":[{"url":"http://hl7.org/fhir/us/cqfmeasures/StructureDefinition/cqfm-isTestCase","valueBoolean":true}],"status":"complete","type":"individual","measure":"https://madie.cms.gov/Measure/CMS832HHAKIFHIR","period":{"start":"2026-01-01","end":"2026-12-31"},"group":[{"id":"Group_1","population":[{"id":"InitialPopulation_1","code":{"coding":[{"system":"http://terminology.hl7.org/CodeSystem/measure-population","code":"initial-population","display":"Initial Population"}]},"count":1},{"id":"Denominator_1","code":{"coding":[{"system":"http://terminology.hl7.org/CodeSystem/measure-population","code":"denominator","display":"Denominator"}]},"count":1},{"id":"DenominatorExclusion_1","code":{"coding":[{"system":"http://terminology.hl7.org/CodeSystem/measure-population","code":"denominator-exclusion","display":"Denominator Exclusion"}]},"count":1},{"id":"Numerator_1","code":{"coding":[{"system":"http://terminology.hl7.org/CodeSystem/measure-population","code":"numerator","display":"Numerator"}]},"count":0}],"measureScore":{"value":0.0}}],"evaluatedResource":[{"reference":"Patient/0dea3c95-bee3-479a-bd9e-22397d17fa1a"},{"reference":"Encounter/f778c6cf-a946-4c4e-8ca5-f0127c9202ed"},{"reference":"Encounter/419a2d8d-ff11-4593-8658-b16e1a3386dc"},{"reference":"Observation/dfd25519-05da-4ba1-a679-2576dcf7dc8c"},{"reference":"Observation/c6b6c4a8-64d8-4e81-a036-356873d5e1d1"},{"reference":"Observation/66b8d16d-bece-4344-8d01-b7189b87d908"}]},"request":{"method":"PUT","url":"MeasureReport/c31cd756-948b-4bd4-9fa3-9a772254e52e"}}]},"request":{"method":"PUT","url":"Bundle/tests-DENEXFail-FemaleEncountereGFR62"}},{"fullUrl":"Patient/0dea3c95-bee3-479a-bd9e-22397d17fa1a","resource":{"resourceType":"Patient","id":"0dea3c95-bee3-479a-bd9e-22397d17fa1a","meta":{"profile":["http://hl7.org/fhir/us/qicore/StructureDefinition/qicore-patient"]},"extension":[{"url":"http://hl7.org/fhir/us/core/StructureDefinition/us-core-race","extension":[{"url":"ombCategory","valueCoding":{"system":"urn:oid:2.16.840.1.113883.6.238","code":"2106-3","display":"White"}},{"url":"text","valueString":"White"}]},{"url":"http://hl7.org/fhir/us/core/StructureDefinition/us-core-ethnicity","extension":[{"url":"ombCategory","valueCoding":{"system":"urn:oid:2.16.840.1.113883.6.238","code":"2135-2","display":"Hispanic or Latino"}},{"url":"text","valueString":"Hispanic or Latino"}]},{"url":"http://hl7.org/fhir/us/core/StructureDefinition/us-core-sex","valueCode":"248152002"}],"identifier":[{"system":"http://hospital.smarthealthit.org","value":"999999999"}],"name":[{"family":"Example","given":["Patient"]}],"gender":"female","birthDate":"1975-01-01"},"request":{"method":"PUT","url":"Patient/0dea3c95-bee3-479a-bd9e-22397d17fa1a"}},{"fullUrl":"Observation/dfd25519-05da-4ba1-a679-2576dcf7dc8c","resource":{"resourceType":"Observation","id":"dfd25519-05da-4ba1-a679-2576dcf7dc8c","meta":{"profile":["http://hl7.org/fhir/us/qicore/StructureDefinition/qicore-observation-lab"]},"status":"final","category":[{"coding":[{"system":"http://terminology.hl7.org/CodeSystem/observation-category","code":"laboratory","display":"Laboratory"}]}],"code":{"coding":[{"system":"http://loinc.org","code":"21232-4","display":"Creatinine [Mass/volume] in Serum or Plasma"}]},"subject":{"reference":"Patient/0dea3c95-bee3-479a-bd9e-22397d17fa1a"},"effectiveDateTime":"2026-10-01T08:01:00.000+00:00","valueQuantity":{"value":1.14,"unit":"mg/dL","system":"http://unitsofmeasure.org","code":"mg/dL"}},"request":{"method":"PUT","url":"Observation/dfd25519-05da-4ba1-a679-2576dcf7dc8c"}}]}