{"resourceType":"Bundle","id":"tests-01690915-1402-4a49-80a0-24d094512c0a-bundle","type":"transaction","entry":[{"fullUrl":"Observation/29ddcdd3-f811-4563-8bc2-96e1db6d834d","resource":{"resourceType":"Observation","id":"29ddcdd3-f811-4563-8bc2-96e1db6d834d","meta":{"profile":["http://hl7.org/fhir/us/qicore/StructureDefinition/qicore-observation-lab"]},"status":"final","category":[{"coding":[{"system":"http://terminology.hl7.org/CodeSystem/observation-category","code":"laboratory","display":"Laboratory"}]}],"code":{"coding":[{"system":"http://loinc.org","version":"2.72","code":"21232-4","display":"Creatinine [Mass/volume] in Serum or Plasma"}]},"subject":{"reference":"Patient/01690915-1402-4a49-80a0-24d094512c0a"},"effectiveDateTime":"2026-12-16T08:01:00.000+00:00","valueQuantity":{"value":1,"unit":"mg/dL","system":"http://unitsofmeasure.org","code":"mg/dL"}},"request":{"method":"PUT","url":"Observation/29ddcdd3-f811-4563-8bc2-96e1db6d834d"}},{"fullUrl":"Patient/01690915-1402-4a49-80a0-24d094512c0a","resource":{"resourceType":"Patient","id":"01690915-1402-4a49-80a0-24d094512c0a","meta":{"profile":["http://hl7.org/fhir/us/qicore/StructureDefinition/qicore-patient"]},"extension":[{"url":"http://hl7.org/fhir/us/core/StructureDefinition/us-core-race","extension":[{"url":"ombCategory","valueCoding":{"system":"urn:oid:2.16.840.1.113883.6.238","code":"2106-3","display":"White"}},{"url":"text","valueString":"White"}]},{"url":"http://hl7.org/fhir/us/core/StructureDefinition/us-core-ethnicity","extension":[{"url":"ombCategory","valueCoding":{"system":"urn:oid:2.16.840.1.113883.6.238","code":"2135-2","display":"Hispanic or Latino"}},{"url":"text","valueString":"Hispanic or Latino"}]},{"url":"http://hl7.org/fhir/us/core/StructureDefinition/us-core-sex","valueCode":"248153007"}],"identifier":[{"system":"http://hospital.smarthealthit.org","value":"999999999"}],"name":[{"family":"Example","given":["Patient"]}],"gender":"male","birthDate":"1956-01-01"},"request":{"method":"PUT","url":"Patient/01690915-1402-4a49-80a0-24d094512c0a"}},{"fullUrl":"Encounter/565cbf19-cb9c-4e2b-86e2-39f33cf75ff3","resource":{"resourceType":"Encounter","id":"565cbf19-cb9c-4e2b-86e2-39f33cf75ff3","meta":{"profile":["http://hl7.org/fhir/us/qicore/StructureDefinition/qicore-encounter"]},"status":"finished","class":{"system":"http://terminology.hl7.org/CodeSystem/v3-ActCode","code":"IMP","display":"inpatient encounter"},"type":[{"coding":[{"system":"http://snomed.info/sct","code":"183452005"}]}],"subject":{"reference":"Patient/01690915-1402-4a49-80a0-24d094512c0a"},"period":{"start":"2026-12-16T08:00:00.000+00:00","end":"2026-12-24T08:15:00.000+00:00"}},"request":{"method":"PUT","url":"Encounter/565cbf19-cb9c-4e2b-86e2-39f33cf75ff3"}},{"fullUrl":"Bundle/tests-DENEXFail-TestCase-DialysisAfter48Hrs","resource":{"resourceType":"Bundle","id":"tests-DENEXFail-TestCase-DialysisAfter48Hrs","type":"transaction","entry":[{"fullUrl":"https://madie.cms.gov/Procedure/ca71a5e2-01f6-4965-b902-750599b45013","resource":{"resourceType":"Procedure","id":"ca71a5e2-01f6-4965-b902-750599b45013","meta":{"profile":["http://hl7.org/fhir/us/qicore/StructureDefinition/qicore-procedure"]},"status":"completed","code":{"coding":[{"system":"http://snomed.info/sct","code":"11932001"}]},"subject":{"reference":"Patient/01690915-1402-4a49-80a0-24d094512c0a"},"performedDateTime":"2026-12-17T08:00:00.000+00:00","performer":[{"actor":{"reference":"Practitioner/Practitioner-1"}}]},"request":{"method":"PUT","url":"Procedure/ca71a5e2-01f6-4965-b902-750599b45013"}},{"fullUrl":"https://madie.cms.gov/Observation/29ddcdd3-f811-4563-8bc2-96e1db6d834d","resource":{"resourceType":"Observation","id":"29ddcdd3-f811-4563-8bc2-96e1db6d834d","meta":{"profile":["http://hl7.org/fhir/us/qicore/StructureDefinition/qicore-observation-lab"]},"status":"final","category":[{"coding":[{"system":"http://terminology.hl7.org/CodeSystem/observation-category","code":"laboratory","display":"Laboratory"}]}],"code":{"coding":[{"system":"http://loinc.org","version":"2.72","code":"21232-4","display":"Creatinine [Mass/volume] in Serum or Plasma"}]},"subject":{"reference":"Patient/01690915-1402-4a49-80a0-24d094512c0a"},"effectiveDateTime":"2026-12-16T08:01:00.000+00:00","valueQuantity":{"value":1,"unit":"mg/dL","system":"http://unitsofmeasure.org","code":"mg/dL"}},"request":{"method":"PUT","url":"Observation/29ddcdd3-f811-4563-8bc2-96e1db6d834d"}},{"fullUrl":"https://madie.cms.gov/Encounter/565cbf19-cb9c-4e2b-86e2-39f33cf75ff3","resource":{"resourceType":"Encounter","id":"565cbf19-cb9c-4e2b-86e2-39f33cf75ff3","meta":{"profile":["http://hl7.org/fhir/us/qicore/StructureDefinition/qicore-encounter"]},"status":"finished","class":{"system":"http://terminology.hl7.org/CodeSystem/v3-ActCode","code":"IMP","display":"inpatient encounter"},"type":[{"coding":[{"system":"http://snomed.info/sct","code":"183452005"}]}],"subject":{"reference":"Patient/01690915-1402-4a49-80a0-24d094512c0a"},"period":{"start":"2026-12-16T08:00:00.000+00:00","end":"2026-12-24T08:15:00.000+00:00"}},"request":{"method":"PUT","url":"Encounter/565cbf19-cb9c-4e2b-86e2-39f33cf75ff3"}},{"fullUrl":"https://madie.cms.gov/Observation/aaf74bbe-669e-4b7a-80ec-4e15d12bd5f5","resource":{"resourceType":"Observation","id":"aaf74bbe-669e-4b7a-80ec-4e15d12bd5f5","meta":{"profile":["http://hl7.org/fhir/us/qicore/StructureDefinition/qicore-observation-lab"]},"status":"final","category":[{"coding":[{"system":"http://terminology.hl7.org/CodeSystem/observation-category","code":"laboratory","display":"Laboratory"}]}],"code":{"coding":[{"system":"http://loinc.org","version":"2.72","code":"21232-4","display":"Creatinine [Mass/volume] in Serum or Plasma"}]},"subject":{"reference":"Patient/01690915-1402-4a49-80a0-24d094512c0a"},"effectiveDateTime":"2026-12-18T08:01:00.000+00:00","valueQuantity":{"value":1,"unit":"mg/dL","system":"http://unitsofmeasure.org","code":"mg/dL"}},"request":{"method":"PUT","url":"Observation/aaf74bbe-669e-4b7a-80ec-4e15d12bd5f5"}},{"fullUrl":"https://madie.cms.gov/Observation/80ab8996-8c92-4baf-8e70-d159f1495651","resource":{"resourceType":"Observation","id":"80ab8996-8c92-4baf-8e70-d159f1495651","meta":{"profile":["http://hl7.org/fhir/us/qicore/StructureDefinition/qicore-observation-lab"]},"status":"final","category":[{"coding":[{"system":"http://terminology.hl7.org/CodeSystem/observation-category","code":"laboratory","display":"Laboratory"}]}],"code":{"coding":[{"system":"http://loinc.org","version":"2.72","code":"21232-4","display":"Creatinine [Mass/volume] in Serum or Plasma"}]},"subject":{"reference":"Patient/01690915-1402-4a49-80a0-24d094512c0a"},"effectiveDateTime":"2026-12-17T08:01:00.000+00:00","valueQuantity":{"value":1,"unit":"mg/dL","system":"http://unitsofmeasure.org","code":"mg/dL"}},"request":{"method":"PUT","url":"Observation/80ab8996-8c92-4baf-8e70-d159f1495651"}},{"fullUrl":"https://madie.cms.gov/Patient/01690915-1402-4a49-80a0-24d094512c0a","resource":{"resourceType":"Patient","id":"01690915-1402-4a49-80a0-24d094512c0a","meta":{"profile":["http://hl7.org/fhir/us/qicore/StructureDefinition/qicore-patient"]},"extension":[{"url":"http://hl7.org/fhir/us/core/StructureDefinition/us-core-race","extension":[{"url":"ombCategory","valueCoding":{"system":"urn:oid:2.16.840.1.113883.6.238","code":"2106-3","display":"White"}},{"url":"text","valueString":"White"}]},{"url":"http://hl7.org/fhir/us/core/StructureDefinition/us-core-ethnicity","extension":[{"url":"ombCategory","valueCoding":{"system":"urn:oid:2.16.840.1.113883.6.238","code":"2135-2","display":"Hispanic or Latino"}},{"url":"text","valueString":"Hispanic or Latino"}]},{"url":"http://hl7.org/fhir/us/core/StructureDefinition/us-core-sex","valueCode":"248153007"}],"identifier":[{"system":"http://hospital.smarthealthit.org","value":"999999999"}],"name":[{"family":"Example","given":["Patient"]}],"gender":"male","birthDate":"1956-01-01"},"request":{"method":"PUT","url":"Patient/01690915-1402-4a49-80a0-24d094512c0a"}},{"fullUrl":"https://madie.cms.gov/MeasureReport/7f9e6711-d989-49d9-8ab1-8d7724aaad33","resource":{"resourceType":"MeasureReport","id":"7f9e6711-d989-49d9-8ab1-8d7724aaad33","meta":{"profile":["http://hl7.org/fhir/us/cqfmeasures/StructureDefinition/test-case-cqfm"]},"contained":[{"resourceType":"Parameters","id":"1ee85e87-5f6e-4a62-81e1-cf86f03a1c70-parameters","parameter":[{"name":"subject","valueString":"01690915-1402-4a49-80a0-24d094512c0a"}]}],"extension":[{"url":"http://hl7.org/fhir/StructureDefinition/cqf-inputParameters","valueReference":{"reference":"#1ee85e87-5f6e-4a62-81e1-cf86f03a1c70-parameters"}},{"url":"http://hl7.org/fhir/us/cqfmeasures/StructureDefinition/cqfm-testCaseDescription","valueMarkdown":"IP encounter with Dialysis before 48 hours of encounter start. Meets DenEx"}],"modifierExtension":[{"url":"http://hl7.org/fhir/us/cqfmeasures/StructureDefinition/cqfm-isTestCase","valueBoolean":true}],"status":"complete","type":"individual","measure":"https://madie.cms.gov/Measure/CMS832HHAKIFHIR","period":{"start":"2026-01-01","end":"2026-12-31"},"group":[{"id":"Group_1","population":[{"id":"InitialPopulation_1","code":{"coding":[{"system":"http://terminology.hl7.org/CodeSystem/measure-population","code":"initial-population","display":"Initial Population"}]},"count":1},{"id":"Denominator_1","code":{"coding":[{"system":"http://terminology.hl7.org/CodeSystem/measure-population","code":"denominator","display":"Denominator"}]},"count":1},{"id":"DenominatorExclusion_1","code":{"coding":[{"system":"http://terminology.hl7.org/CodeSystem/measure-population","code":"denominator-exclusion","display":"Denominator Exclusion"}]},"count":1},{"id":"Numerator_1","code":{"coding":[{"system":"http://terminology.hl7.org/CodeSystem/measure-population","code":"numerator","display":"Numerator"}]},"count":0}],"measureScore":{"value":0.0}}],"evaluatedResource":[{"reference":"Procedure/ca71a5e2-01f6-4965-b902-750599b45013"},{"reference":"Observation/29ddcdd3-f811-4563-8bc2-96e1db6d834d"},{"reference":"Encounter/565cbf19-cb9c-4e2b-86e2-39f33cf75ff3"},{"reference":"Observation/aaf74bbe-669e-4b7a-80ec-4e15d12bd5f5"},{"reference":"Observation/80ab8996-8c92-4baf-8e70-d159f1495651"},{"reference":"Patient/01690915-1402-4a49-80a0-24d094512c0a"}]},"request":{"method":"PUT","url":"MeasureReport/7f9e6711-d989-49d9-8ab1-8d7724aaad33"}}]},"request":{"method":"PUT","url":"Bundle/tests-DENEXFail-TestCase-DialysisAfter48Hrs"}},{"fullUrl":"MeasureReport/7f9e6711-d989-49d9-8ab1-8d7724aaad33","resource":{"resourceType":"MeasureReport","id":"7f9e6711-d989-49d9-8ab1-8d7724aaad33","meta":{"profile":["http://hl7.org/fhir/us/cqfmeasures/StructureDefinition/test-case-cqfm"]},"contained":[{"resourceType":"Parameters","id":"1ee85e87-5f6e-4a62-81e1-cf86f03a1c70-parameters","parameter":[{"name":"subject","valueString":"01690915-1402-4a49-80a0-24d094512c0a"}]}],"extension":[{"url":"http://hl7.org/fhir/StructureDefinition/cqf-inputParameters","valueReference":{"reference":"#1ee85e87-5f6e-4a62-81e1-cf86f03a1c70-parameters"}},{"url":"http://hl7.org/fhir/us/cqfmeasures/StructureDefinition/cqfm-testCaseDescription","valueMarkdown":"IP encounter with Dialysis before 48 hours of encounter start. Meets DenEx"}],"modifierExtension":[{"url":"http://hl7.org/fhir/us/cqfmeasures/StructureDefinition/cqfm-isTestCase","valueBoolean":true}],"status":"complete","type":"individual","measure":"https://madie.cms.gov/Measure/CMS832HHAKIFHIR","period":{"start":"2026-01-01","end":"2026-12-31"},"group":[{"id":"Group_1","population":[{"id":"InitialPopulation_1","code":{"coding":[{"system":"http://terminology.hl7.org/CodeSystem/measure-population","code":"initial-population","display":"Initial Population"}]},"count":1},{"id":"Denominator_1","code":{"coding":[{"system":"http://terminology.hl7.org/CodeSystem/measure-population","code":"denominator","display":"Denominator"}]},"count":1},{"id":"DenominatorExclusion_1","code":{"coding":[{"system":"http://terminology.hl7.org/CodeSystem/measure-population","code":"denominator-exclusion","display":"Denominator Exclusion"}]},"count":1},{"id":"Numerator_1","code":{"coding":[{"system":"http://terminology.hl7.org/CodeSystem/measure-population","code":"numerator","display":"Numerator"}]},"count":0}],"measureScore":{"value":0.0}}],"evaluatedResource":[{"reference":"Procedure/ca71a5e2-01f6-4965-b902-750599b45013"},{"reference":"Observation/29ddcdd3-f811-4563-8bc2-96e1db6d834d"},{"reference":"Encounter/565cbf19-cb9c-4e2b-86e2-39f33cf75ff3"},{"reference":"Observation/aaf74bbe-669e-4b7a-80ec-4e15d12bd5f5"},{"reference":"Observation/80ab8996-8c92-4baf-8e70-d159f1495651"},{"reference":"Patient/01690915-1402-4a49-80a0-24d094512c0a"}]},"request":{"method":"PUT","url":"MeasureReport/7f9e6711-d989-49d9-8ab1-8d7724aaad33"}},{"fullUrl":"Observation/80ab8996-8c92-4baf-8e70-d159f1495651","resource":{"resourceType":"Observation","id":"80ab8996-8c92-4baf-8e70-d159f1495651","meta":{"profile":["http://hl7.org/fhir/us/qicore/StructureDefinition/qicore-observation-lab"]},"status":"final","category":[{"coding":[{"system":"http://terminology.hl7.org/CodeSystem/observation-category","code":"laboratory","display":"Laboratory"}]}],"code":{"coding":[{"system":"http://loinc.org","version":"2.72","code":"21232-4","display":"Creatinine [Mass/volume] in Serum or Plasma"}]},"subject":{"reference":"Patient/01690915-1402-4a49-80a0-24d094512c0a"},"effectiveDateTime":"2026-12-17T08:01:00.000+00:00","valueQuantity":{"value":1,"unit":"mg/dL","system":"http://unitsofmeasure.org","code":"mg/dL"}},"request":{"method":"PUT","url":"Observation/80ab8996-8c92-4baf-8e70-d159f1495651"}},{"fullUrl":"Procedure/ca71a5e2-01f6-4965-b902-750599b45013","resource":{"resourceType":"Procedure","id":"ca71a5e2-01f6-4965-b902-750599b45013","meta":{"profile":["http://hl7.org/fhir/us/qicore/StructureDefinition/qicore-procedure"]},"status":"completed","code":{"coding":[{"system":"http://snomed.info/sct","code":"11932001"}]},"subject":{"reference":"Patient/01690915-1402-4a49-80a0-24d094512c0a"},"performedDateTime":"2026-12-17T08:00:00.000+00:00","performer":[{"actor":{"reference":"Practitioner/Practitioner-1"}}]},"request":{"method":"PUT","url":"Procedure/ca71a5e2-01f6-4965-b902-750599b45013"}},{"fullUrl":"Observation/aaf74bbe-669e-4b7a-80ec-4e15d12bd5f5","resource":{"resourceType":"Observation","id":"aaf74bbe-669e-4b7a-80ec-4e15d12bd5f5","meta":{"profile":["http://hl7.org/fhir/us/qicore/StructureDefinition/qicore-observation-lab"]},"status":"final","category":[{"coding":[{"system":"http://terminology.hl7.org/CodeSystem/observation-category","code":"laboratory","display":"Laboratory"}]}],"code":{"coding":[{"system":"http://loinc.org","version":"2.72","code":"21232-4","display":"Creatinine [Mass/volume] in Serum or Plasma"}]},"subject":{"reference":"Patient/01690915-1402-4a49-80a0-24d094512c0a"},"effectiveDateTime":"2026-12-18T08:01:00.000+00:00","valueQuantity":{"value":1,"unit":"mg/dL","system":"http://unitsofmeasure.org","code":"mg/dL"}},"request":{"method":"PUT","url":"Observation/aaf74bbe-669e-4b7a-80ec-4e15d12bd5f5"}}]}