{"resourceType":"Bundle","id":"tests-a62eecb7-4b38-42dd-b451-7810f6bb5abe-bundle","type":"transaction","entry":[{"fullUrl":"Bundle/tests-DENEXFail-MaleEncountereGFR60","resource":{"resourceType":"Bundle","id":"tests-DENEXFail-MaleEncountereGFR60","type":"transaction","entry":[{"fullUrl":"https://madie.cms.gov/Patient/a62eecb7-4b38-42dd-b451-7810f6bb5abe","resource":{"resourceType":"Patient","id":"a62eecb7-4b38-42dd-b451-7810f6bb5abe","meta":{"profile":["http://hl7.org/fhir/us/qicore/StructureDefinition/qicore-patient"]},"extension":[{"url":"http://hl7.org/fhir/us/core/StructureDefinition/us-core-race","extension":[{"url":"ombCategory","valueCoding":{"system":"urn:oid:2.16.840.1.113883.6.238","code":"2106-3","display":"White"}},{"url":"text","valueString":"White"}]},{"url":"http://hl7.org/fhir/us/core/StructureDefinition/us-core-ethnicity","extension":[{"url":"ombCategory","valueCoding":{"system":"urn:oid:2.16.840.1.113883.6.238","code":"2135-2","display":"Hispanic or Latino"}},{"url":"text","valueString":"Hispanic or Latino"}]},{"url":"http://hl7.org/fhir/us/core/StructureDefinition/us-core-sex","valueCode":"248153007"}],"identifier":[{"system":"http://hospital.smarthealthit.org","value":"999999999"}],"name":[{"family":"Example","given":["Patient"]}],"gender":"male","birthDate":"1975-01-01"},"request":{"method":"PUT","url":"Patient/a62eecb7-4b38-42dd-b451-7810f6bb5abe"}},{"fullUrl":"https://madie.cms.gov/Encounter/d0ee07a3-e9e5-4f37-a194-3c06b69d5ef0","resource":{"resourceType":"Encounter","id":"d0ee07a3-e9e5-4f37-a194-3c06b69d5ef0","meta":{"profile":["http://hl7.org/fhir/us/qicore/StructureDefinition/qicore-encounter"]},"status":"finished","class":{"system":"http://terminology.hl7.org/CodeSystem/v3-ActCode","code":"EMER","display":"emergency"},"type":[{"coding":[{"system":"http://snomed.info/sct","code":"4525004","display":"Emergency department patient visit (procedure)"}]}],"subject":{"reference":"Patient/a62eecb7-4b38-42dd-b451-7810f6bb5abe"},"period":{"start":"2026-09-29T08:00:00.000+00:00","end":"2026-09-29T20:00:00.000+00:00"}},"request":{"method":"PUT","url":"Encounter/d0ee07a3-e9e5-4f37-a194-3c06b69d5ef0"}},{"fullUrl":"https://madie.cms.gov/Encounter/0aac1a74-e8ec-4981-b355-9155e0f2794e","resource":{"resourceType":"Encounter","id":"0aac1a74-e8ec-4981-b355-9155e0f2794e","meta":{"profile":["http://hl7.org/fhir/us/qicore/StructureDefinition/qicore-encounter"]},"status":"finished","class":{"system":"http://terminology.hl7.org/CodeSystem/v3-ActCode","code":"IMP","display":"inpatient encounter"},"type":[{"coding":[{"system":"http://snomed.info/sct","code":"183452005","display":"Emergency hospital admission (procedure)"}]}],"subject":{"reference":"Patient/a62eecb7-4b38-42dd-b451-7810f6bb5abe"},"period":{"start":"2026-09-29T20:01:00.000+00:00","end":"2026-10-03T20:00:00.000+00:00"}},"request":{"method":"PUT","url":"Encounter/0aac1a74-e8ec-4981-b355-9155e0f2794e"}},{"fullUrl":"https://madie.cms.gov/Observation/5962df56-7316-453c-a6b7-472a0494d13c","resource":{"resourceType":"Observation","id":"5962df56-7316-453c-a6b7-472a0494d13c","meta":{"profile":["http://hl7.org/fhir/us/qicore/StructureDefinition/qicore-observation-lab"]},"status":"final","category":[{"coding":[{"system":"http://terminology.hl7.org/CodeSystem/observation-category","code":"laboratory","display":"Laboratory"}]}],"code":{"coding":[{"system":"http://loinc.org","code":"21232-4","display":"Creatinine [Mass/volume] in Serum or Plasma"}]},"subject":{"reference":"Patient/a62eecb7-4b38-42dd-b451-7810f6bb5abe"},"effectiveDateTime":"2026-10-01T08:01:00.000+00:00","valueQuantity":{"value":1.5,"unit":"mg/dL","system":"http://unitsofmeasure.org","code":"mg/dL"}},"request":{"method":"PUT","url":"Observation/5962df56-7316-453c-a6b7-472a0494d13c"}},{"fullUrl":"https://madie.cms.gov/Observation/5512b036-9e15-4023-82f1-c583d7384642","resource":{"resourceType":"Observation","id":"5512b036-9e15-4023-82f1-c583d7384642","meta":{"profile":["http://hl7.org/fhir/us/qicore/StructureDefinition/qicore-observation-lab"]},"status":"final","category":[{"coding":[{"system":"http://terminology.hl7.org/CodeSystem/observation-category","code":"laboratory","display":"Laboratory"}]}],"code":{"coding":[{"system":"http://loinc.org","code":"21232-4","display":"Creatinine [Mass/volume] in Serum or Plasma"}]},"subject":{"reference":"Patient/a62eecb7-4b38-42dd-b451-7810f6bb5abe"},"effectiveDateTime":"2026-10-01T07:00:00.000+00:00","valueQuantity":{"value":1.5,"unit":"mg/dL","system":"http://unitsofmeasure.org","code":"mg/dL"}},"request":{"method":"PUT","url":"Observation/5512b036-9e15-4023-82f1-c583d7384642"}},{"fullUrl":"https://madie.cms.gov/Observation/353740b5-99b9-420d-bf57-9925f56ad933","resource":{"resourceType":"Observation","id":"353740b5-99b9-420d-bf57-9925f56ad933","meta":{"profile":["http://hl7.org/fhir/us/qicore/StructureDefinition/qicore-observation-lab"]},"status":"final","category":[{"coding":[{"system":"http://terminology.hl7.org/CodeSystem/observation-category","code":"laboratory","display":"Laboratory"}]}],"code":{"coding":[{"system":"http://loinc.org","code":"21232-4","display":"Creatinine [Mass/volume] in Serum or Plasma"}]},"subject":{"reference":"Patient/a62eecb7-4b38-42dd-b451-7810f6bb5abe"},"effectiveDateTime":"2026-10-01T07:35:00.000+00:00","valueQuantity":{"value":1.5,"unit":"mg/dL","system":"http://unitsofmeasure.org","code":"mg/dL"}},"request":{"method":"PUT","url":"Observation/353740b5-99b9-420d-bf57-9925f56ad933"}},{"fullUrl":"https://madie.cms.gov/MeasureReport/8a06c139-6840-4048-ab17-1c28766f4e25","resource":{"resourceType":"MeasureReport","id":"8a06c139-6840-4048-ab17-1c28766f4e25","meta":{"profile":["http://hl7.org/fhir/us/cqfmeasures/StructureDefinition/test-case-cqfm"]},"contained":[{"resourceType":"Parameters","id":"b5d0a0c0-f00a-4fe2-9a3f-890a15714295-parameters","parameter":[{"name":"subject","valueString":"a62eecb7-4b38-42dd-b451-7810f6bb5abe"}]}],"extension":[{"url":"http://hl7.org/fhir/StructureDefinition/cqf-inputParameters","valueReference":{"reference":"#b5d0a0c0-f00a-4fe2-9a3f-890a15714295-parameters"}},{"url":"http://hl7.org/fhir/us/cqfmeasures/StructureDefinition/cqfm-testCaseDescription","valueMarkdown":"Male IP Encounter with an eGFR calculation of <60, based on SCr = 1.5. SCr is within first 24 hours. eGFR must be <60 so does meet denominator exclusion. "}],"modifierExtension":[{"url":"http://hl7.org/fhir/us/cqfmeasures/StructureDefinition/cqfm-isTestCase","valueBoolean":true}],"status":"complete","type":"individual","measure":"https://madie.cms.gov/Measure/CMS832HHAKIFHIR","period":{"start":"2026-01-01","end":"2026-12-31"},"group":[{"id":"Group_1","population":[{"id":"InitialPopulation_1","code":{"coding":[{"system":"http://terminology.hl7.org/CodeSystem/measure-population","code":"initial-population","display":"Initial Population"}]},"count":1},{"id":"Denominator_1","code":{"coding":[{"system":"http://terminology.hl7.org/CodeSystem/measure-population","code":"denominator","display":"Denominator"}]},"count":1},{"id":"DenominatorExclusion_1","code":{"coding":[{"system":"http://terminology.hl7.org/CodeSystem/measure-population","code":"denominator-exclusion","display":"Denominator Exclusion"}]},"count":1},{"id":"Numerator_1","code":{"coding":[{"system":"http://terminology.hl7.org/CodeSystem/measure-population","code":"numerator","display":"Numerator"}]},"count":0}],"measureScore":{"value":0.0}}],"evaluatedResource":[{"reference":"Patient/a62eecb7-4b38-42dd-b451-7810f6bb5abe"},{"reference":"Encounter/d0ee07a3-e9e5-4f37-a194-3c06b69d5ef0"},{"reference":"Encounter/0aac1a74-e8ec-4981-b355-9155e0f2794e"},{"reference":"Observation/5962df56-7316-453c-a6b7-472a0494d13c"},{"reference":"Observation/5512b036-9e15-4023-82f1-c583d7384642"},{"reference":"Observation/353740b5-99b9-420d-bf57-9925f56ad933"}]},"request":{"method":"PUT","url":"MeasureReport/8a06c139-6840-4048-ab17-1c28766f4e25"}}]},"request":{"method":"PUT","url":"Bundle/tests-DENEXFail-MaleEncountereGFR60"}},{"fullUrl":"Observation/5962df56-7316-453c-a6b7-472a0494d13c","resource":{"resourceType":"Observation","id":"5962df56-7316-453c-a6b7-472a0494d13c","meta":{"profile":["http://hl7.org/fhir/us/qicore/StructureDefinition/qicore-observation-lab"]},"status":"final","category":[{"coding":[{"system":"http://terminology.hl7.org/CodeSystem/observation-category","code":"laboratory","display":"Laboratory"}]}],"code":{"coding":[{"system":"http://loinc.org","code":"21232-4","display":"Creatinine [Mass/volume] in Serum or Plasma"}]},"subject":{"reference":"Patient/a62eecb7-4b38-42dd-b451-7810f6bb5abe"},"effectiveDateTime":"2026-10-01T08:01:00.000+00:00","valueQuantity":{"value":1.5,"unit":"mg/dL","system":"http://unitsofmeasure.org","code":"mg/dL"}},"request":{"method":"PUT","url":"Observation/5962df56-7316-453c-a6b7-472a0494d13c"}},{"fullUrl":"MeasureReport/8a06c139-6840-4048-ab17-1c28766f4e25","resource":{"resourceType":"MeasureReport","id":"8a06c139-6840-4048-ab17-1c28766f4e25","meta":{"profile":["http://hl7.org/fhir/us/cqfmeasures/StructureDefinition/test-case-cqfm"]},"contained":[{"resourceType":"Parameters","id":"b5d0a0c0-f00a-4fe2-9a3f-890a15714295-parameters","parameter":[{"name":"subject","valueString":"a62eecb7-4b38-42dd-b451-7810f6bb5abe"}]}],"extension":[{"url":"http://hl7.org/fhir/StructureDefinition/cqf-inputParameters","valueReference":{"reference":"#b5d0a0c0-f00a-4fe2-9a3f-890a15714295-parameters"}},{"url":"http://hl7.org/fhir/us/cqfmeasures/StructureDefinition/cqfm-testCaseDescription","valueMarkdown":"Male IP Encounter with an eGFR calculation of <60, based on SCr = 1.5. SCr is within first 24 hours. eGFR must be <60 so does meet denominator exclusion. "}],"modifierExtension":[{"url":"http://hl7.org/fhir/us/cqfmeasures/StructureDefinition/cqfm-isTestCase","valueBoolean":true}],"status":"complete","type":"individual","measure":"https://madie.cms.gov/Measure/CMS832HHAKIFHIR","period":{"start":"2026-01-01","end":"2026-12-31"},"group":[{"id":"Group_1","population":[{"id":"InitialPopulation_1","code":{"coding":[{"system":"http://terminology.hl7.org/CodeSystem/measure-population","code":"initial-population","display":"Initial Population"}]},"count":1},{"id":"Denominator_1","code":{"coding":[{"system":"http://terminology.hl7.org/CodeSystem/measure-population","code":"denominator","display":"Denominator"}]},"count":1},{"id":"DenominatorExclusion_1","code":{"coding":[{"system":"http://terminology.hl7.org/CodeSystem/measure-population","code":"denominator-exclusion","display":"Denominator Exclusion"}]},"count":1},{"id":"Numerator_1","code":{"coding":[{"system":"http://terminology.hl7.org/CodeSystem/measure-population","code":"numerator","display":"Numerator"}]},"count":0}],"measureScore":{"value":0.0}}],"evaluatedResource":[{"reference":"Patient/a62eecb7-4b38-42dd-b451-7810f6bb5abe"},{"reference":"Encounter/d0ee07a3-e9e5-4f37-a194-3c06b69d5ef0"},{"reference":"Encounter/0aac1a74-e8ec-4981-b355-9155e0f2794e"},{"reference":"Observation/5962df56-7316-453c-a6b7-472a0494d13c"},{"reference":"Observation/5512b036-9e15-4023-82f1-c583d7384642"},{"reference":"Observation/353740b5-99b9-420d-bf57-9925f56ad933"}]},"request":{"method":"PUT","url":"MeasureReport/8a06c139-6840-4048-ab17-1c28766f4e25"}},{"fullUrl":"Observation/5512b036-9e15-4023-82f1-c583d7384642","resource":{"resourceType":"Observation","id":"5512b036-9e15-4023-82f1-c583d7384642","meta":{"profile":["http://hl7.org/fhir/us/qicore/StructureDefinition/qicore-observation-lab"]},"status":"final","category":[{"coding":[{"system":"http://terminology.hl7.org/CodeSystem/observation-category","code":"laboratory","display":"Laboratory"}]}],"code":{"coding":[{"system":"http://loinc.org","code":"21232-4","display":"Creatinine [Mass/volume] in Serum or Plasma"}]},"subject":{"reference":"Patient/a62eecb7-4b38-42dd-b451-7810f6bb5abe"},"effectiveDateTime":"2026-10-01T07:00:00.000+00:00","valueQuantity":{"value":1.5,"unit":"mg/dL","system":"http://unitsofmeasure.org","code":"mg/dL"}},"request":{"method":"PUT","url":"Observation/5512b036-9e15-4023-82f1-c583d7384642"}},{"fullUrl":"Encounter/0aac1a74-e8ec-4981-b355-9155e0f2794e","resource":{"resourceType":"Encounter","id":"0aac1a74-e8ec-4981-b355-9155e0f2794e","meta":{"profile":["http://hl7.org/fhir/us/qicore/StructureDefinition/qicore-encounter"]},"status":"finished","class":{"system":"http://terminology.hl7.org/CodeSystem/v3-ActCode","code":"IMP","display":"inpatient encounter"},"type":[{"coding":[{"system":"http://snomed.info/sct","code":"183452005","display":"Emergency hospital admission (procedure)"}]}],"subject":{"reference":"Patient/a62eecb7-4b38-42dd-b451-7810f6bb5abe"},"period":{"start":"2026-09-29T20:01:00.000+00:00","end":"2026-10-03T20:00:00.000+00:00"}},"request":{"method":"PUT","url":"Encounter/0aac1a74-e8ec-4981-b355-9155e0f2794e"}},{"fullUrl":"Patient/a62eecb7-4b38-42dd-b451-7810f6bb5abe","resource":{"resourceType":"Patient","id":"a62eecb7-4b38-42dd-b451-7810f6bb5abe","meta":{"profile":["http://hl7.org/fhir/us/qicore/StructureDefinition/qicore-patient"]},"extension":[{"url":"http://hl7.org/fhir/us/core/StructureDefinition/us-core-race","extension":[{"url":"ombCategory","valueCoding":{"system":"urn:oid:2.16.840.1.113883.6.238","code":"2106-3","display":"White"}},{"url":"text","valueString":"White"}]},{"url":"http://hl7.org/fhir/us/core/StructureDefinition/us-core-ethnicity","extension":[{"url":"ombCategory","valueCoding":{"system":"urn:oid:2.16.840.1.113883.6.238","code":"2135-2","display":"Hispanic or Latino"}},{"url":"text","valueString":"Hispanic or Latino"}]},{"url":"http://hl7.org/fhir/us/core/StructureDefinition/us-core-sex","valueCode":"248153007"}],"identifier":[{"system":"http://hospital.smarthealthit.org","value":"999999999"}],"name":[{"family":"Example","given":["Patient"]}],"gender":"male","birthDate":"1975-01-01"},"request":{"method":"PUT","url":"Patient/a62eecb7-4b38-42dd-b451-7810f6bb5abe"}},{"fullUrl":"Encounter/d0ee07a3-e9e5-4f37-a194-3c06b69d5ef0","resource":{"resourceType":"Encounter","id":"d0ee07a3-e9e5-4f37-a194-3c06b69d5ef0","meta":{"profile":["http://hl7.org/fhir/us/qicore/StructureDefinition/qicore-encounter"]},"status":"finished","class":{"system":"http://terminology.hl7.org/CodeSystem/v3-ActCode","code":"EMER","display":"emergency"},"type":[{"coding":[{"system":"http://snomed.info/sct","code":"4525004","display":"Emergency department patient visit (procedure)"}]}],"subject":{"reference":"Patient/a62eecb7-4b38-42dd-b451-7810f6bb5abe"},"period":{"start":"2026-09-29T08:00:00.000+00:00","end":"2026-09-29T20:00:00.000+00:00"}},"request":{"method":"PUT","url":"Encounter/d0ee07a3-e9e5-4f37-a194-3c06b69d5ef0"}},{"fullUrl":"Observation/353740b5-99b9-420d-bf57-9925f56ad933","resource":{"resourceType":"Observation","id":"353740b5-99b9-420d-bf57-9925f56ad933","meta":{"profile":["http://hl7.org/fhir/us/qicore/StructureDefinition/qicore-observation-lab"]},"status":"final","category":[{"coding":[{"system":"http://terminology.hl7.org/CodeSystem/observation-category","code":"laboratory","display":"Laboratory"}]}],"code":{"coding":[{"system":"http://loinc.org","code":"21232-4","display":"Creatinine [Mass/volume] in Serum or Plasma"}]},"subject":{"reference":"Patient/a62eecb7-4b38-42dd-b451-7810f6bb5abe"},"effectiveDateTime":"2026-10-01T07:35:00.000+00:00","valueQuantity":{"value":1.5,"unit":"mg/dL","system":"http://unitsofmeasure.org","code":"mg/dL"}},"request":{"method":"PUT","url":"Observation/353740b5-99b9-420d-bf57-9925f56ad933"}}]}