{"resourceType":"Bundle","id":"tests-a959f507-685c-4d5e-b8e4-dc02063dba36-bundle","type":"transaction","entry":[{"resource":{"resourceType":"Observation","id":"980e0936-4031-4be6-9110-96cecf94b190","meta":{"profile":["http://hl7.org/fhir/us/qicore/StructureDefinition/qicore-observation-lab"]},"status":"final","category":[{"coding":[{"system":"http://terminology.hl7.org/CodeSystem/observation-category","code":"laboratory","display":"Laboratory"}]}],"code":{"coding":[{"system":"http://loinc.org","code":"2160-0","display":"Creatinine [Mass/volume] in Serum or Plasma"}]},"subject":{"reference":"Patient/a959f507-685c-4d5e-b8e4-dc02063dba36"},"effectiveDateTime":"2026-09-29T07:00:00.000+00:00","issued":"2026-09-29T07:30:00.000+00:00","valueQuantity":{"value":0.9,"unit":"mg/dL","system":"http://unitsofmeasure.org","code":"mg/dL"}},"request":{"method":"PUT","url":"Observation/980e0936-4031-4be6-9110-96cecf94b190"}},{"resource":{"resourceType":"Patient","id":"a959f507-685c-4d5e-b8e4-dc02063dba36","meta":{"profile":["http://hl7.org/fhir/us/qicore/StructureDefinition/qicore-patient"]},"text":{"status":"generated","div":"<div xmlns=\"http://www.w3.org/1999/xhtml\"><div class=\"hapiHeaderText\">Turns 18 day of Encounter <b>DENOMPASS </b></div><table class=\"hapiPropertyTable\"><tbody><tr><td>Identifier</td><td>f0eda1c9668fdacdcad3378589bf6e0a71e7dec1618f14fca4d442ec96e402b1</td></tr><tr><td>Date of birth</td><td><span>29 September 2006</span></td></tr></tbody></table></div>"},"extension":[{"url":"http://hl7.org/fhir/us/core/StructureDefinition/us-core-race","extension":[{"url":"ombCategory","valueCoding":{"system":"urn:oid:2.16.840.1.113883.6.238","code":"1002-5","display":"American Indian or Alaska Native","userSelected":true}},{"url":"text","valueString":"American Indian or Alaska Native"}]},{"url":"http://hl7.org/fhir/us/core/StructureDefinition/us-core-ethnicity","extension":[{"url":"ombCategory","valueCoding":{"system":"urn:oid:2.16.840.1.113883.6.238","code":"2135-2","display":"Hispanic or Latino","userSelected":true}},{"url":"text","valueString":"Hispanic or Latino"}]}],"identifier":[{"type":{"coding":[{"system":"http://terminology.hl7.org/CodeSystem/v2-0203","code":"MR"}]},"system":"http://bonnie-fhir.healthit.gov/","value":"IPPFail-Age17InEDAge18DayOfIPAdmitCreatinineLT48hrs"}],"active":true,"name":[{"use":"usual","family":"IPPFail","given":["Age17InEDAge18DayOfIPAdmitCreatinineLT48hrs"]}],"gender":"female","birthDate":"2007-09-29"},"request":{"method":"PUT","url":"Patient/a959f507-685c-4d5e-b8e4-dc02063dba36"}},{"resource":{"resourceType":"Encounter","id":"4d2f6b73-a9dd-4aa0-9582-74f4a6b60f8c","meta":{"profile":["http://hl7.org/fhir/us/qicore/StructureDefinition/qicore-encounter"]},"status":"finished","class":{"system":"http://terminology.hl7.org/CodeSystem/v3-ActCode","code":"EMER","display":"emergency"},"type":[{"coding":[{"system":"http://snomed.info/sct","code":"4525004"}]}],"subject":{"reference":"Patient/a959f507-685c-4d5e-b8e4-dc02063dba36"},"period":{"start":"2026-09-29T06:00:00.000+00:00","end":"2026-09-29T08:00:00.000+00:00"}},"request":{"method":"PUT","url":"Encounter/4d2f6b73-a9dd-4aa0-9582-74f4a6b60f8c"}},{"resource":{"resourceType":"MeasureReport","id":"11521c24-d9e3-4c46-9015-98e04ddfdeb5","meta":{"profile":["http://hl7.org/fhir/us/cqfmeasures/StructureDefinition/test-case-cqfm"]},"contained":[{"resourceType":"Parameters","id":"8fd27087-a967-4944-8013-d0c517d10093-parameters","parameter":[{"name":"subject","valueString":"a959f507-685c-4d5e-b8e4-dc02063dba36"}]}],"extension":[{"url":"http://hl7.org/fhir/StructureDefinition/cqf-inputParameters","valueReference":{"reference":"#8fd27087-a967-4944-8013-d0c517d10093-parameters"}},{"url":"http://hl7.org/fhir/us/cqfmeasures/StructureDefinition/cqfm-testCaseDescription","valueMarkdown":"Not 18 on INPT admission\nVScode: Initial Population=[]"}],"modifierExtension":[{"url":"http://hl7.org/fhir/us/cqfmeasures/StructureDefinition/cqfm-isTestCase","valueBoolean":true}],"status":"complete","type":"individual","measure":"https://madie.cms.gov/Measure/CMS832HHAKIFHIR","period":{"start":"2026-01-01","end":"2026-12-31"},"group":[{"id":"Group_1","population":[{"id":"InitialPopulation_1","code":{"coding":[{"system":"http://terminology.hl7.org/CodeSystem/measure-population","code":"initial-population","display":"Initial Population"}]},"count":0},{"id":"Denominator_1","code":{"coding":[{"system":"http://terminology.hl7.org/CodeSystem/measure-population","code":"denominator","display":"Denominator"}]},"count":0},{"id":"DenominatorExclusion_1","code":{"coding":[{"system":"http://terminology.hl7.org/CodeSystem/measure-population","code":"denominator-exclusion","display":"Denominator Exclusion"}]},"count":0},{"id":"Numerator_1","code":{"coding":[{"system":"http://terminology.hl7.org/CodeSystem/measure-population","code":"numerator","display":"Numerator"}]},"count":0}],"measureScore":{"value":0.0}}],"evaluatedResource":[{"reference":"MedicationAdministration/c30ca483-cdd2-47ff-baa6-fef2fb9b375d"},{"reference":"Patient/a959f507-685c-4d5e-b8e4-dc02063dba36"},{"reference":"Observation/34f6dabf-19c2-4a1b-b20c-af641f438fe3"},{"reference":"Observation/706aae5d-2d73-447a-8b09-0d8dc1df7d2b"},{"reference":"Observation/99ebe1e8-6231-4a10-a22e-34376365550b"},{"reference":"Observation/980e0936-4031-4be6-9110-96cecf94b190"},{"reference":"Encounter/deb4dc5d-f945-490f-b7cc-addff6ad20a2"},{"reference":"MeasureReport/a5a04dd3-b807-4395-b456-a02014232283"},{"reference":"Encounter/4d2f6b73-a9dd-4aa0-9582-74f4a6b60f8c"},{"reference":"Observation/f599756d-403b-4c46-b2e6-49665f20c628"},{"reference":"Coverage/3275afa0-cfbd-4689-a865-14aecfe3de37"},{"reference":"Organization/9b319389-b053-4376-b80d-02d6afb85bdf"}]},"request":{"method":"PUT","url":"MeasureReport/11521c24-d9e3-4c46-9015-98e04ddfdeb5"}},{"resource":{"resourceType":"Observation","id":"34f6dabf-19c2-4a1b-b20c-af641f438fe3","meta":{"profile":["http://hl7.org/fhir/us/qicore/StructureDefinition/qicore-observation-lab"]},"status":"final","category":[{"coding":[{"system":"http://terminology.hl7.org/CodeSystem/observation-category","code":"laboratory","display":"Laboratory"}]}],"code":{"coding":[{"system":"http://loinc.org","version":"2.72","code":"2160-0","display":"Creatinine [Mass/volume] in Serum or Plasma","userSelected":true}]},"subject":{"reference":"Patient/a959f507-685c-4d5e-b8e4-dc02063dba36"},"effectiveDateTime":"2026-10-01T05:50:00.000+00:00","issued":"2026-10-01T08:20:00.000+00:00","valueQuantity":{"value":0.6,"unit":"mg/dL","system":"http://unitsofmeasure.org","code":"mg/dL"}},"request":{"method":"PUT","url":"Observation/34f6dabf-19c2-4a1b-b20c-af641f438fe3"}},{"resource":{"resourceType":"Encounter","id":"deb4dc5d-f945-490f-b7cc-addff6ad20a2","meta":{"profile":["http://hl7.org/fhir/us/qicore/StructureDefinition/qicore-encounter"]},"status":"finished","class":{"system":"http://terminology.hl7.org/CodeSystem/v3-ActCode","code":"IMP","display":"inpatient encounter"},"type":[{"coding":[{"system":"http://snomed.info/sct","code":"183452005"}]}],"subject":{"reference":"Patient/a959f507-685c-4d5e-b8e4-dc02063dba36"},"period":{"start":"2026-09-29T08:00:00.000+00:00","end":"2026-10-03T20:00:00.000+00:00"}},"request":{"method":"PUT","url":"Encounter/deb4dc5d-f945-490f-b7cc-addff6ad20a2"}},{"resource":{"resourceType":"Organization","id":"9b319389-b053-4376-b80d-02d6afb85bdf","meta":{"profile":["http://hl7.org/fhir/us/qicore/StructureDefinition/qicore-organization"]},"identifier":[{"use":"temp","system":"urn:oid:2.16.840.1.113883.4.4","value":"21-3259825"}],"active":true,"type":[{"coding":[{"system":"http://terminology.hl7.org/CodeSystem/organization-type","code":"pay","display":"Payer"}]}],"name":"Blue Cross Blue Shield of Texas","telecom":[{"system":"phone","value":"(+1) 972-766-6900"}],"address":[{"use":"billing","type":"postal","line":["P.O. Box 660044"],"city":"Dallas","state":"TX","postalCode":"75266-0044","country":"USA"}]},"request":{"method":"PUT","url":"Organization/9b319389-b053-4376-b80d-02d6afb85bdf"}},{"resource":{"resourceType":"Observation","id":"f599756d-403b-4c46-b2e6-49665f20c628","meta":{"profile":["http://hl7.org/fhir/us/qicore/StructureDefinition/qicore-observation-lab"]},"status":"final","category":[{"coding":[{"system":"http://terminology.hl7.org/CodeSystem/observation-category","code":"laboratory","display":"Laboratory"}]}],"code":{"coding":[{"system":"http://loinc.org","code":"2160-0","display":"Creatinine [Mass/volume] in Serum or Plasma"}]},"subject":{"reference":"Patient/a959f507-685c-4d5e-b8e4-dc02063dba36"},"effectiveDateTime":"2026-09-29T07:59:00.000+00:00","issued":"2026-09-29T08:29:00.000+00:00","valueQuantity":{"value":0.8,"unit":"mg/dL","system":"http://unitsofmeasure.org","code":"mg/dL"}},"request":{"method":"PUT","url":"Observation/f599756d-403b-4c46-b2e6-49665f20c628"}},{"resource":{"resourceType":"Coverage","id":"3275afa0-cfbd-4689-a865-14aecfe3de37","meta":{"profile":["http://hl7.org/fhir/us/qicore/StructureDefinition/qicore-coverage"]},"status":"active","type":{"coding":[{"system":"https://nahdo.org/sopt","version":"9.2","code":"211","display":"Medicaid HMO"}]},"beneficiary":{"reference":"Patient/a959f507-685c-4d5e-b8e4-dc02063dba36"},"period":{"start":"2024-12-01T00:00:00.000+00:00"},"payor":[{"reference":"Organization/9b319389-b053-4376-b80d-02d6afb85bdf"}]},"request":{"method":"PUT","url":"Coverage/3275afa0-cfbd-4689-a865-14aecfe3de37"}},{"resource":{"resourceType":"Bundle","id":"tests-a959f507-685c-4d5e-b8e4-dc02063dba36-bundle","type":"transaction","entry":[{"fullUrl":"https://madie.cms.gov/MedicationAdministration/c30ca483-cdd2-47ff-baa6-fef2fb9b375d","resource":{"resourceType":"MedicationAdministration","id":"c30ca483-cdd2-47ff-baa6-fef2fb9b375d","meta":{"profile":["http://hl7.org/fhir/us/qicore/StructureDefinition/qicore-medicationadministration"]},"status":"completed","medicationCodeableConcept":{"coding":[{"system":"http://www.nlm.nih.gov/research/umls/rxnorm","code":"1010600"}]},"subject":{"reference":"Patient/a959f507-685c-4d5e-b8e4-dc02063dba36"},"effectivePeriod":{"start":"2026-09-29T08:00:00.000+00:00","end":"2026-09-29T08:15:00.000+00:00"}},"request":{"method":"PUT","url":"MedicationAdministration/c30ca483-cdd2-47ff-baa6-fef2fb9b375d"}},{"fullUrl":"https://madie.cms.gov/Patient/a959f507-685c-4d5e-b8e4-dc02063dba36","resource":{"resourceType":"Patient","id":"a959f507-685c-4d5e-b8e4-dc02063dba36","meta":{"profile":["http://hl7.org/fhir/us/qicore/StructureDefinition/qicore-patient"]},"text":{"status":"generated","div":"<div xmlns=\"http://www.w3.org/1999/xhtml\"><div class=\"hapiHeaderText\">Turns 18 day of Encounter <b>DENOMPASS </b></div><table class=\"hapiPropertyTable\"><tbody><tr><td>Identifier</td><td>f0eda1c9668fdacdcad3378589bf6e0a71e7dec1618f14fca4d442ec96e402b1</td></tr><tr><td>Date of birth</td><td><span>29 September 2006</span></td></tr></tbody></table></div>"},"extension":[{"url":"http://hl7.org/fhir/us/core/StructureDefinition/us-core-race","extension":[{"url":"ombCategory","valueCoding":{"system":"urn:oid:2.16.840.1.113883.6.238","code":"1002-5","display":"American Indian or Alaska Native","userSelected":true}},{"url":"text","valueString":"American Indian or Alaska Native"}]},{"url":"http://hl7.org/fhir/us/core/StructureDefinition/us-core-ethnicity","extension":[{"url":"ombCategory","valueCoding":{"system":"urn:oid:2.16.840.1.113883.6.238","code":"2135-2","display":"Hispanic or Latino","userSelected":true}},{"url":"text","valueString":"Hispanic or Latino"}]}],"identifier":[{"type":{"coding":[{"system":"http://terminology.hl7.org/CodeSystem/v2-0203","code":"MR"}]},"system":"http://bonnie-fhir.healthit.gov/","value":"IPPFail-Age17InEDAge18DayOfIPAdmitCreatinineLT48hrs"}],"active":true,"name":[{"use":"usual","family":"IPPFail","given":["Age17InEDAge18DayOfIPAdmitCreatinineLT48hrs"]}],"gender":"female","birthDate":"2007-09-29"},"request":{"method":"PUT","url":"Patient/a959f507-685c-4d5e-b8e4-dc02063dba36"}},{"fullUrl":"https://madie.cms.gov/Observation/34f6dabf-19c2-4a1b-b20c-af641f438fe3","resource":{"resourceType":"Observation","id":"34f6dabf-19c2-4a1b-b20c-af641f438fe3","meta":{"profile":["http://hl7.org/fhir/us/qicore/StructureDefinition/qicore-observation-lab"]},"status":"final","category":[{"coding":[{"system":"http://terminology.hl7.org/CodeSystem/observation-category","code":"laboratory","display":"Laboratory"}]}],"code":{"coding":[{"system":"http://loinc.org","version":"2.72","code":"2160-0","display":"Creatinine [Mass/volume] in Serum or Plasma","userSelected":true}]},"subject":{"reference":"Patient/a959f507-685c-4d5e-b8e4-dc02063dba36"},"effectiveDateTime":"2026-10-01T05:50:00.000+00:00","issued":"2026-10-01T08:20:00.000+00:00","valueQuantity":{"value":0.6,"unit":"mg/dL","system":"http://unitsofmeasure.org","code":"mg/dL"}},"request":{"method":"PUT","url":"Observation/34f6dabf-19c2-4a1b-b20c-af641f438fe3"}},{"fullUrl":"https://madie.cms.gov/Observation/706aae5d-2d73-447a-8b09-0d8dc1df7d2b","resource":{"resourceType":"Observation","id":"706aae5d-2d73-447a-8b09-0d8dc1df7d2b","meta":{"profile":["http://hl7.org/fhir/us/qicore/StructureDefinition/qicore-observation-lab"]},"status":"final","category":[{"coding":[{"system":"http://terminology.hl7.org/CodeSystem/observation-category","code":"laboratory","display":"Laboratory"}]}],"code":{"coding":[{"system":"http://loinc.org","version":"2.72","code":"2160-0","display":"Creatinine [Mass/volume] in Serum or Plasma","userSelected":true}]},"subject":{"reference":"Patient/a959f507-685c-4d5e-b8e4-dc02063dba36"},"effectiveDateTime":"2026-09-29T07:35:00.000+00:00","issued":"2026-09-29T08:05:00.000+00:00","valueQuantity":{"value":1.6,"unit":"mg/dL","system":"http://unitsofmeasure.org","code":"mg/dL"}},"request":{"method":"PUT","url":"Observation/706aae5d-2d73-447a-8b09-0d8dc1df7d2b"}},{"fullUrl":"https://madie.cms.gov/Observation/99ebe1e8-6231-4a10-a22e-34376365550b","resource":{"resourceType":"Observation","id":"99ebe1e8-6231-4a10-a22e-34376365550b","meta":{"profile":["http://hl7.org/fhir/us/qicore/StructureDefinition/qicore-observation-lab"]},"status":"final","category":[{"coding":[{"system":"http://terminology.hl7.org/CodeSystem/observation-category","code":"laboratory","display":"Laboratory"}]}],"code":{"coding":[{"system":"http://loinc.org","version":"2.72","code":"2160-0","display":"Creatinine [Mass/volume] in Serum or Plasma","userSelected":true}]},"subject":{"reference":"Patient/a959f507-685c-4d5e-b8e4-dc02063dba36"},"effectiveDateTime":"2026-09-29T08:01:00.000+00:00","issued":"2026-09-29T08:31:00.000+00:00","valueQuantity":{"value":1.1,"unit":"mg/dL","system":"http://unitsofmeasure.org","code":"mg/dL"}},"request":{"method":"PUT","url":"Observation/99ebe1e8-6231-4a10-a22e-34376365550b"}},{"fullUrl":"https://madie.cms.gov/Observation/980e0936-4031-4be6-9110-96cecf94b190","resource":{"resourceType":"Observation","id":"980e0936-4031-4be6-9110-96cecf94b190","meta":{"profile":["http://hl7.org/fhir/us/qicore/StructureDefinition/qicore-observation-lab"]},"status":"final","category":[{"coding":[{"system":"http://terminology.hl7.org/CodeSystem/observation-category","code":"laboratory","display":"Laboratory"}]}],"code":{"coding":[{"system":"http://loinc.org","code":"2160-0","display":"Creatinine [Mass/volume] in Serum or Plasma"}]},"subject":{"reference":"Patient/a959f507-685c-4d5e-b8e4-dc02063dba36"},"effectiveDateTime":"2026-09-29T07:00:00.000+00:00","issued":"2026-09-29T07:30:00.000+00:00","valueQuantity":{"value":0.9,"unit":"mg/dL","system":"http://unitsofmeasure.org","code":"mg/dL"}},"request":{"method":"PUT","url":"Observation/980e0936-4031-4be6-9110-96cecf94b190"}},{"fullUrl":"https://madie.cms.gov/Encounter/deb4dc5d-f945-490f-b7cc-addff6ad20a2","resource":{"resourceType":"Encounter","id":"deb4dc5d-f945-490f-b7cc-addff6ad20a2","meta":{"profile":["http://hl7.org/fhir/us/qicore/StructureDefinition/qicore-encounter"]},"status":"finished","class":{"system":"http://terminology.hl7.org/CodeSystem/v3-ActCode","code":"IMP","display":"inpatient encounter"},"type":[{"coding":[{"system":"http://snomed.info/sct","code":"183452005"}]}],"subject":{"reference":"Patient/a959f507-685c-4d5e-b8e4-dc02063dba36"},"period":{"start":"2026-09-29T08:00:00.000+00:00","end":"2026-10-03T20:00:00.000+00:00"}},"request":{"method":"PUT","url":"Encounter/deb4dc5d-f945-490f-b7cc-addff6ad20a2"}},{"fullUrl":"https://madie.cms.gov/MeasureReport/a5a04dd3-b807-4395-b456-a02014232283","resource":{"resourceType":"MeasureReport","id":"a5a04dd3-b807-4395-b456-a02014232283","meta":{"profile":["http://hl7.org/fhir/us/cqfmeasures/StructureDefinition/test-case-cqfm"]},"contained":[{"resourceType":"Parameters","id":"4c026d89-2cc7-48cf-921c-0181f28aea4f-parameters","parameter":[{"name":"subject","valueString":"a959f507-685c-4d5e-b8e4-dc02063dba36"}]}],"extension":[{"url":"http://hl7.org/fhir/us/cqfmeasures/StructureDefinition/cqfm-inputParameters","valueReference":{"reference":"#4c026d89-2cc7-48cf-921c-0181f28aea4f-parameters"}},{"url":"http://hl7.org/fhir/us/cqfmeasures/StructureDefinition/cqfm-testCaseDescription","valueMarkdown":"Not 18 on INPT admission\nVScode: Initial Population=[]"}],"modifierExtension":[{"url":"http://hl7.org/fhir/us/cqfmeasures/StructureDefinition/cqfm-isTestCase","valueBoolean":true}],"status":"complete","type":"individual","measure":"https://madie.cms.gov/Measure/CMS832HHAKIFHIR","period":{"start":"2026-01-01","end":"2026-12-31"},"group":[{"id":"67b50f879214df46de2f1fdb","population":[{"id":"DA0D3694-7F57-4FB9-8410-1F64E44CA01E","code":{"coding":[{"system":"http://terminology.hl7.org/CodeSystem/measure-population","code":"initial-population","display":"Initial Population"}]},"count":0},{"id":"624D8554-9CB0-4BF0-882D-05C4F88BCC2C","code":{"coding":[{"system":"http://terminology.hl7.org/CodeSystem/measure-population","code":"denominator","display":"Denominator"}]},"count":0},{"id":"000FF050-D4A2-4C8B-8123-4538D35D5441","code":{"coding":[{"system":"http://terminology.hl7.org/CodeSystem/measure-population","code":"denominator-exclusion","display":"Denominator Exclusion"}]},"count":0},{"id":"01644D07-D9F8-403E-A66D-109ABA29BB6E","code":{"coding":[{"system":"http://terminology.hl7.org/CodeSystem/measure-population","code":"numerator","display":"Numerator"}]},"count":0}],"measureScore":{"value":0.0}}],"evaluatedResource":[{"reference":"Patient/a959f507-685c-4d5e-b8e4-dc02063dba36"},{"reference":"Encounter/4d2f6b73-a9dd-4aa0-9582-74f4a6b60f8c"},{"reference":"Encounter/deb4dc5d-f945-490f-b7cc-addff6ad20a2"},{"reference":"MedicationAdministration/c30ca483-cdd2-47ff-baa6-fef2fb9b375d"},{"reference":"Observation/34f6dabf-19c2-4a1b-b20c-af641f438fe3"},{"reference":"Observation/f599756d-403b-4c46-b2e6-49665f20c628"},{"reference":"Observation/99ebe1e8-6231-4a10-a22e-34376365550b"},{"reference":"Observation/980e0936-4031-4be6-9110-96cecf94b190"},{"reference":"Observation/706aae5d-2d73-447a-8b09-0d8dc1df7d2b"},{"reference":"Coverage/3275afa0-cfbd-4689-a865-14aecfe3de37"},{"reference":"Organization/9b319389-b053-4376-b80d-02d6afb85bdf"}]},"request":{"method":"PUT","url":"MeasureReport/a5a04dd3-b807-4395-b456-a02014232283"}},{"fullUrl":"https://madie.cms.gov/Encounter/4d2f6b73-a9dd-4aa0-9582-74f4a6b60f8c","resource":{"resourceType":"Encounter","id":"4d2f6b73-a9dd-4aa0-9582-74f4a6b60f8c","meta":{"profile":["http://hl7.org/fhir/us/qicore/StructureDefinition/qicore-encounter"]},"status":"finished","class":{"system":"http://terminology.hl7.org/CodeSystem/v3-ActCode","code":"EMER","display":"emergency"},"type":[{"coding":[{"system":"http://snomed.info/sct","code":"4525004"}]}],"subject":{"reference":"Patient/a959f507-685c-4d5e-b8e4-dc02063dba36"},"period":{"start":"2026-09-29T06:00:00.000+00:00","end":"2026-09-29T08:00:00.000+00:00"}},"request":{"method":"PUT","url":"Encounter/4d2f6b73-a9dd-4aa0-9582-74f4a6b60f8c"}},{"fullUrl":"https://madie.cms.gov/Observation/f599756d-403b-4c46-b2e6-49665f20c628","resource":{"resourceType":"Observation","id":"f599756d-403b-4c46-b2e6-49665f20c628","meta":{"profile":["http://hl7.org/fhir/us/qicore/StructureDefinition/qicore-observation-lab"]},"status":"final","category":[{"coding":[{"system":"http://terminology.hl7.org/CodeSystem/observation-category","code":"laboratory","display":"Laboratory"}]}],"code":{"coding":[{"system":"http://loinc.org","code":"2160-0","display":"Creatinine [Mass/volume] in Serum or Plasma"}]},"subject":{"reference":"Patient/a959f507-685c-4d5e-b8e4-dc02063dba36"},"effectiveDateTime":"2026-09-29T07:59:00.000+00:00","issued":"2026-09-29T08:29:00.000+00:00","valueQuantity":{"value":0.8,"unit":"mg/dL","system":"http://unitsofmeasure.org","code":"mg/dL"}},"request":{"method":"PUT","url":"Observation/f599756d-403b-4c46-b2e6-49665f20c628"}},{"fullUrl":"https://madie.cms.gov/Coverage/3275afa0-cfbd-4689-a865-14aecfe3de37","resource":{"resourceType":"Coverage","id":"3275afa0-cfbd-4689-a865-14aecfe3de37","meta":{"profile":["http://hl7.org/fhir/us/qicore/StructureDefinition/qicore-coverage"]},"status":"active","type":{"coding":[{"system":"https://nahdo.org/sopt","version":"9.2","code":"211","display":"Medicaid HMO"}]},"beneficiary":{"reference":"Patient/a959f507-685c-4d5e-b8e4-dc02063dba36"},"period":{"start":"2024-12-01T00:00:00.000+00:00"},"payor":[{"reference":"Organization/9b319389-b053-4376-b80d-02d6afb85bdf"}]},"request":{"method":"PUT","url":"Coverage/3275afa0-cfbd-4689-a865-14aecfe3de37"}},{"fullUrl":"https://madie.cms.gov/Organization/9b319389-b053-4376-b80d-02d6afb85bdf","resource":{"resourceType":"Organization","id":"9b319389-b053-4376-b80d-02d6afb85bdf","meta":{"profile":["http://hl7.org/fhir/us/qicore/StructureDefinition/qicore-organization"]},"identifier":[{"use":"temp","system":"urn:oid:2.16.840.1.113883.4.4","value":"21-3259825"}],"active":true,"type":[{"coding":[{"system":"http://terminology.hl7.org/CodeSystem/organization-type","code":"pay","display":"Payer"}]}],"name":"Blue Cross Blue Shield of Texas","telecom":[{"system":"phone","value":"(+1) 972-766-6900"}],"address":[{"use":"billing","type":"postal","line":["P.O. Box 660044"],"city":"Dallas","state":"TX","postalCode":"75266-0044","country":"USA"}]},"request":{"method":"PUT","url":"Organization/9b319389-b053-4376-b80d-02d6afb85bdf"}},{"fullUrl":"https://madie.cms.gov/MeasureReport/11521c24-d9e3-4c46-9015-98e04ddfdeb5","resource":{"resourceType":"MeasureReport","id":"11521c24-d9e3-4c46-9015-98e04ddfdeb5","meta":{"profile":["http://hl7.org/fhir/us/cqfmeasures/StructureDefinition/test-case-cqfm"]},"contained":[{"resourceType":"Parameters","id":"8fd27087-a967-4944-8013-d0c517d10093-parameters","parameter":[{"name":"subject","valueString":"a959f507-685c-4d5e-b8e4-dc02063dba36"}]}],"extension":[{"url":"http://hl7.org/fhir/StructureDefinition/cqf-inputParameters","valueReference":{"reference":"#8fd27087-a967-4944-8013-d0c517d10093-parameters"}},{"url":"http://hl7.org/fhir/us/cqfmeasures/StructureDefinition/cqfm-testCaseDescription","valueMarkdown":"Not 18 on INPT admission\nVScode: Initial Population=[]"}],"modifierExtension":[{"url":"http://hl7.org/fhir/us/cqfmeasures/StructureDefinition/cqfm-isTestCase","valueBoolean":true}],"status":"complete","type":"individual","measure":"https://madie.cms.gov/Measure/CMS832HHAKIFHIR","period":{"start":"2026-01-01","end":"2026-12-31"},"group":[{"id":"Group_1","population":[{"id":"InitialPopulation_1","code":{"coding":[{"system":"http://terminology.hl7.org/CodeSystem/measure-population","code":"initial-population","display":"Initial Population"}]},"count":0},{"id":"Denominator_1","code":{"coding":[{"system":"http://terminology.hl7.org/CodeSystem/measure-population","code":"denominator","display":"Denominator"}]},"count":0},{"id":"DenominatorExclusion_1","code":{"coding":[{"system":"http://terminology.hl7.org/CodeSystem/measure-population","code":"denominator-exclusion","display":"Denominator Exclusion"}]},"count":0},{"id":"Numerator_1","code":{"coding":[{"system":"http://terminology.hl7.org/CodeSystem/measure-population","code":"numerator","display":"Numerator"}]},"count":0}],"measureScore":{"value":0.0}}],"evaluatedResource":[{"reference":"MedicationAdministration/c30ca483-cdd2-47ff-baa6-fef2fb9b375d"},{"reference":"Patient/a959f507-685c-4d5e-b8e4-dc02063dba36"},{"reference":"Observation/34f6dabf-19c2-4a1b-b20c-af641f438fe3"},{"reference":"Observation/706aae5d-2d73-447a-8b09-0d8dc1df7d2b"},{"reference":"Observation/99ebe1e8-6231-4a10-a22e-34376365550b"},{"reference":"Observation/980e0936-4031-4be6-9110-96cecf94b190"},{"reference":"Encounter/deb4dc5d-f945-490f-b7cc-addff6ad20a2"},{"reference":"MeasureReport/a5a04dd3-b807-4395-b456-a02014232283"},{"reference":"Encounter/4d2f6b73-a9dd-4aa0-9582-74f4a6b60f8c"},{"reference":"Observation/f599756d-403b-4c46-b2e6-49665f20c628"},{"reference":"Coverage/3275afa0-cfbd-4689-a865-14aecfe3de37"},{"reference":"Organization/9b319389-b053-4376-b80d-02d6afb85bdf"}]},"request":{"method":"PUT","url":"MeasureReport/11521c24-d9e3-4c46-9015-98e04ddfdeb5"}}]},"request":{"method":"PUT","url":"Bundle/tests-a959f507-685c-4d5e-b8e4-dc02063dba36-bundle"}},{"resource":{"resourceType":"MeasureReport","id":"a5a04dd3-b807-4395-b456-a02014232283","meta":{"profile":["http://hl7.org/fhir/us/cqfmeasures/StructureDefinition/test-case-cqfm"]},"contained":[{"resourceType":"Parameters","id":"4c026d89-2cc7-48cf-921c-0181f28aea4f-parameters","parameter":[{"name":"subject","valueString":"a959f507-685c-4d5e-b8e4-dc02063dba36"}]}],"extension":[{"url":"http://hl7.org/fhir/us/cqfmeasures/StructureDefinition/cqfm-inputParameters","valueReference":{"reference":"#4c026d89-2cc7-48cf-921c-0181f28aea4f-parameters"}},{"url":"http://hl7.org/fhir/us/cqfmeasures/StructureDefinition/cqfm-testCaseDescription","valueMarkdown":"Not 18 on INPT admission\nVScode: Initial Population=[]"}],"modifierExtension":[{"url":"http://hl7.org/fhir/us/cqfmeasures/StructureDefinition/cqfm-isTestCase","valueBoolean":true}],"status":"complete","type":"individual","measure":"https://madie.cms.gov/Measure/CMS832HHAKIFHIR","period":{"start":"2026-01-01","end":"2026-12-31"},"group":[{"id":"67b50f879214df46de2f1fdb","population":[{"id":"DA0D3694-7F57-4FB9-8410-1F64E44CA01E","code":{"coding":[{"system":"http://terminology.hl7.org/CodeSystem/measure-population","code":"initial-population","display":"Initial Population"}]},"count":0},{"id":"624D8554-9CB0-4BF0-882D-05C4F88BCC2C","code":{"coding":[{"system":"http://terminology.hl7.org/CodeSystem/measure-population","code":"denominator","display":"Denominator"}]},"count":0},{"id":"000FF050-D4A2-4C8B-8123-4538D35D5441","code":{"coding":[{"system":"http://terminology.hl7.org/CodeSystem/measure-population","code":"denominator-exclusion","display":"Denominator Exclusion"}]},"count":0},{"id":"01644D07-D9F8-403E-A66D-109ABA29BB6E","code":{"coding":[{"system":"http://terminology.hl7.org/CodeSystem/measure-population","code":"numerator","display":"Numerator"}]},"count":0}],"measureScore":{"value":0.0}}],"evaluatedResource":[{"reference":"Patient/a959f507-685c-4d5e-b8e4-dc02063dba36"},{"reference":"Encounter/4d2f6b73-a9dd-4aa0-9582-74f4a6b60f8c"},{"reference":"Encounter/deb4dc5d-f945-490f-b7cc-addff6ad20a2"},{"reference":"MedicationAdministration/c30ca483-cdd2-47ff-baa6-fef2fb9b375d"},{"reference":"Observation/34f6dabf-19c2-4a1b-b20c-af641f438fe3"},{"reference":"Observation/f599756d-403b-4c46-b2e6-49665f20c628"},{"reference":"Observation/99ebe1e8-6231-4a10-a22e-34376365550b"},{"reference":"Observation/980e0936-4031-4be6-9110-96cecf94b190"},{"reference":"Observation/706aae5d-2d73-447a-8b09-0d8dc1df7d2b"},{"reference":"Coverage/3275afa0-cfbd-4689-a865-14aecfe3de37"},{"reference":"Organization/9b319389-b053-4376-b80d-02d6afb85bdf"}]},"request":{"method":"PUT","url":"MeasureReport/a5a04dd3-b807-4395-b456-a02014232283"}},{"resource":{"resourceType":"Observation","id":"99ebe1e8-6231-4a10-a22e-34376365550b","meta":{"profile":["http://hl7.org/fhir/us/qicore/StructureDefinition/qicore-observation-lab"]},"status":"final","category":[{"coding":[{"system":"http://terminology.hl7.org/CodeSystem/observation-category","code":"laboratory","display":"Laboratory"}]}],"code":{"coding":[{"system":"http://loinc.org","version":"2.72","code":"2160-0","display":"Creatinine [Mass/volume] in Serum or Plasma","userSelected":true}]},"subject":{"reference":"Patient/a959f507-685c-4d5e-b8e4-dc02063dba36"},"effectiveDateTime":"2026-09-29T08:01:00.000+00:00","issued":"2026-09-29T08:31:00.000+00:00","valueQuantity":{"value":1.1,"unit":"mg/dL","system":"http://unitsofmeasure.org","code":"mg/dL"}},"request":{"method":"PUT","url":"Observation/99ebe1e8-6231-4a10-a22e-34376365550b"}},{"resource":{"resourceType":"MedicationAdministration","id":"c30ca483-cdd2-47ff-baa6-fef2fb9b375d","meta":{"profile":["http://hl7.org/fhir/us/qicore/StructureDefinition/qicore-medicationadministration"]},"status":"completed","medicationCodeableConcept":{"coding":[{"system":"http://www.nlm.nih.gov/research/umls/rxnorm","code":"1010600"}]},"subject":{"reference":"Patient/a959f507-685c-4d5e-b8e4-dc02063dba36"},"effectivePeriod":{"start":"2026-09-29T08:00:00.000+00:00","end":"2026-09-29T08:15:00.000+00:00"}},"request":{"method":"PUT","url":"MedicationAdministration/c30ca483-cdd2-47ff-baa6-fef2fb9b375d"}},{"resource":{"resourceType":"Observation","id":"706aae5d-2d73-447a-8b09-0d8dc1df7d2b","meta":{"profile":["http://hl7.org/fhir/us/qicore/StructureDefinition/qicore-observation-lab"]},"status":"final","category":[{"coding":[{"system":"http://terminology.hl7.org/CodeSystem/observation-category","code":"laboratory","display":"Laboratory"}]}],"code":{"coding":[{"system":"http://loinc.org","version":"2.72","code":"2160-0","display":"Creatinine [Mass/volume] in Serum or Plasma","userSelected":true}]},"subject":{"reference":"Patient/a959f507-685c-4d5e-b8e4-dc02063dba36"},"effectiveDateTime":"2026-09-29T07:35:00.000+00:00","issued":"2026-09-29T08:05:00.000+00:00","valueQuantity":{"value":1.6,"unit":"mg/dL","system":"http://unitsofmeasure.org","code":"mg/dL"}},"request":{"method":"PUT","url":"Observation/706aae5d-2d73-447a-8b09-0d8dc1df7d2b"}}]}