{"resourceType":"Bundle","id":"tests-b85c0ae2-2a8c-4c27-9a31-efc62576b203-bundle","type":"transaction","entry":[{"fullUrl":"Patient/b85c0ae2-2a8c-4c27-9a31-efc62576b203","resource":{"resourceType":"Patient","id":"b85c0ae2-2a8c-4c27-9a31-efc62576b203","meta":{"profile":["http://hl7.org/fhir/us/qicore/StructureDefinition/qicore-patient"]},"text":{"status":"generated","div":"<div xmlns=\"http://www.w3.org/1999/xhtml\"><div class=\"hapiHeaderText\">Turns 18 day of Encounter <b>DENEXPass </b></div><table class=\"hapiPropertyTable\"><tbody><tr><td>Identifier</td><td>f0eda1c9668fdacdcad3378589bf6e0a71e7dec1618f14fca4d442ec96e402b1</td></tr><tr><td>Date of birth</td><td><span>29 September 2006</span></td></tr></tbody></table></div>"},"extension":[{"url":"http://hl7.org/fhir/us/core/StructureDefinition/us-core-sex","valueCode":"248152002"},{"url":"http://hl7.org/fhir/us/core/StructureDefinition/us-core-race","extension":[{"url":"ombCategory","valueCoding":{"system":"urn:oid:2.16.840.1.113883.6.238","code":"1002-5","display":"American Indian or Alaska Native","userSelected":true}},{"url":"text","valueString":"American Indian or Alaska Native"}]},{"url":"http://hl7.org/fhir/us/core/StructureDefinition/us-core-ethnicity","extension":[{"url":"ombCategory","valueCoding":{"system":"urn:oid:2.16.840.1.113883.6.238","code":"2135-2","display":"Hispanic or Latino","userSelected":true}},{"url":"text","valueString":"Hispanic or Latino"}]}],"identifier":[{"type":{"coding":[{"system":"http://terminology.hl7.org/CodeSystem/v2-0203","code":"MR"}]},"system":"http://bonnie-fhir.healthit.gov/","value":"DENEXPass-HighRiskProc"}],"active":true,"name":[{"use":"usual","family":"DENEXPass","given":["HighRiskDxPOA"]}],"gender":"male","birthDate":"1983-10-10"},"request":{"method":"PUT","url":"Patient/b85c0ae2-2a8c-4c27-9a31-efc62576b203"}},{"fullUrl":"Procedure/2bd876e3-acaa-4b25-af20-aa05c9e8d329","resource":{"resourceType":"Procedure","id":"2bd876e3-acaa-4b25-af20-aa05c9e8d329","meta":{"profile":["http://hl7.org/fhir/us/qicore/StructureDefinition/qicore-procedure"]},"extension":[{"url":"http://hl7.org/fhir/us/qicore/StructureDefinition/qicore-recorded","valueDateTime":"2026-09-29T09:00:00.000+00:00"}],"status":"completed","code":{"coding":[{"system":"http://www.cms.gov/Medicare/Coding/ICD10","code":"02LW3DJ","display":"Occlusion of Thoracic Aorta, Descending with Intraluminal Device, Temporary, Percutaneous Approach"}],"text":"Occlusion of Thoracic Aorta, Descending with Intraluminal Device, Temporary, Percutaneous Approach"},"subject":{"reference":"Patient/b85c0ae2-2a8c-4c27-9a31-efc62576b203"},"encounter":{"reference":"Encounter/8552968b-def1-4268-b6e9-ef52b68c5778"},"performedPeriod":{"start":"2026-09-29T09:00:00.000+00:00","end":"2026-09-29T09:30:00.000+00:00"}},"request":{"method":"PUT","url":"Procedure/2bd876e3-acaa-4b25-af20-aa05c9e8d329"}},{"fullUrl":"Encounter/8552968b-def1-4268-b6e9-ef52b68c5778","resource":{"resourceType":"Encounter","id":"8552968b-def1-4268-b6e9-ef52b68c5778","meta":{"profile":["http://hl7.org/fhir/us/qicore/StructureDefinition/qicore-encounter"]},"status":"finished","class":{"system":"http://terminology.hl7.org/CodeSystem/v3-ActCode","code":"IMP","display":"inpatient encounter"},"type":[{"coding":[{"system":"http://snomed.info/sct","code":"183452005","display":"Emergency hospital admission (procedure)"}]}],"subject":{"reference":"Patient/b85c0ae2-2a8c-4c27-9a31-efc62576b203"},"period":{"start":"2026-09-29T08:00:00.000+00:00","end":"2026-10-03T20:00:00.000+00:00"}},"request":{"method":"PUT","url":"Encounter/8552968b-def1-4268-b6e9-ef52b68c5778"}},{"fullUrl":"Coverage/b25a34a1-ec17-4a04-aa52-d2549c741f39","resource":{"resourceType":"Coverage","id":"b25a34a1-ec17-4a04-aa52-d2549c741f39","meta":{"profile":["http://hl7.org/fhir/us/qicore/StructureDefinition/qicore-coverage"]},"status":"active","type":{"coding":[{"system":"https://nahdo.org/sopt","version":"9.2","code":"211","display":"Medicaid HMO"}]},"beneficiary":{"reference":"Patient/b85c0ae2-2a8c-4c27-9a31-efc62576b203"},"period":{"start":"2024-12-01T00:00:00.000+00:00"},"payor":[{"reference":"Organization/8754b1a0-f5f8-4ea2-9c29-0032ae39e0ab"}]},"request":{"method":"PUT","url":"Coverage/b25a34a1-ec17-4a04-aa52-d2549c741f39"}},{"fullUrl":"Observation/b3288193-a20a-4328-b980-0b4147804ce3","resource":{"resourceType":"Observation","id":"b3288193-a20a-4328-b980-0b4147804ce3","meta":{"profile":["http://hl7.org/fhir/us/qicore/StructureDefinition/qicore-observation-lab"]},"status":"final","category":[{"coding":[{"system":"http://terminology.hl7.org/CodeSystem/observation-category","code":"laboratory","display":"Laboratory"}]}],"code":{"coding":[{"system":"http://loinc.org","version":"2.72","code":"2160-0","display":"Creatinine [Mass/volume] in Serum or Plasma","userSelected":true}]},"subject":{"reference":"Patient/b85c0ae2-2a8c-4c27-9a31-efc62576b203"},"effectiveDateTime":"2026-09-30T07:35:00.000+00:00","issued":"2026-09-30T08:00:00.000+00:00","valueQuantity":{"value":0.9,"unit":"mg/dL","system":"http://unitsofmeasure.org","code":"mg/dL"}},"request":{"method":"PUT","url":"Observation/b3288193-a20a-4328-b980-0b4147804ce3"}},{"fullUrl":"Bundle/tests-b85c0ae2-2a8c-4c27-9a31-efc62576b203-bundle","resource":{"resourceType":"Bundle","id":"tests-b85c0ae2-2a8c-4c27-9a31-efc62576b203-bundle","type":"transaction","entry":[{"fullUrl":"https://madie.cms.gov/Patient/b85c0ae2-2a8c-4c27-9a31-efc62576b203","resource":{"resourceType":"Patient","id":"b85c0ae2-2a8c-4c27-9a31-efc62576b203","meta":{"profile":["http://hl7.org/fhir/us/qicore/StructureDefinition/qicore-patient"]},"text":{"status":"generated","div":"<div xmlns=\"http://www.w3.org/1999/xhtml\"><div class=\"hapiHeaderText\">Turns 18 day of Encounter <b>DENEXPass </b></div><table class=\"hapiPropertyTable\"><tbody><tr><td>Identifier</td><td>f0eda1c9668fdacdcad3378589bf6e0a71e7dec1618f14fca4d442ec96e402b1</td></tr><tr><td>Date of birth</td><td><span>29 September 2006</span></td></tr></tbody></table></div>"},"extension":[{"url":"http://hl7.org/fhir/us/core/StructureDefinition/us-core-sex","valueCode":"248152002"},{"url":"http://hl7.org/fhir/us/core/StructureDefinition/us-core-race","extension":[{"url":"ombCategory","valueCoding":{"system":"urn:oid:2.16.840.1.113883.6.238","code":"1002-5","display":"American Indian or Alaska Native","userSelected":true}},{"url":"text","valueString":"American Indian or Alaska Native"}]},{"url":"http://hl7.org/fhir/us/core/StructureDefinition/us-core-ethnicity","extension":[{"url":"ombCategory","valueCoding":{"system":"urn:oid:2.16.840.1.113883.6.238","code":"2135-2","display":"Hispanic or Latino","userSelected":true}},{"url":"text","valueString":"Hispanic or Latino"}]}],"identifier":[{"type":{"coding":[{"system":"http://terminology.hl7.org/CodeSystem/v2-0203","code":"MR"}]},"system":"http://bonnie-fhir.healthit.gov/","value":"DENEXPass-HighRiskProc"}],"active":true,"name":[{"use":"usual","family":"DENEXPass","given":["HighRiskDxPOA"]}],"gender":"male","birthDate":"1983-10-10"},"request":{"method":"PUT","url":"Patient/b85c0ae2-2a8c-4c27-9a31-efc62576b203"}},{"fullUrl":"https://madie.cms.gov/MeasureReport/60309331-9cee-4425-9f4c-5255b59af64d","resource":{"resourceType":"MeasureReport","id":"60309331-9cee-4425-9f4c-5255b59af64d","meta":{"profile":["http://hl7.org/fhir/us/cqfmeasures/StructureDefinition/test-case-cqfm"]},"contained":[{"resourceType":"Parameters","id":"efb6f445-d978-4149-912e-c8bf3b2f12f4-parameters","parameter":[{"name":"subject","valueString":"b85c0ae2-2a8c-4c27-9a31-efc62576b203"}]}],"extension":[{"url":"http://hl7.org/fhir/us/cqfmeasures/StructureDefinition/cqfm-inputParameters","valueReference":{"reference":"#efb6f445-d978-4149-912e-c8bf3b2f12f4-parameters"}},{"url":"http://hl7.org/fhir/us/cqfmeasures/StructureDefinition/cqfm-testCaseDescription","valueMarkdown":"DENEXPass-HighRiskProc 02LW3DJ Occlusion of Thoracic Aorta, Descending with Intraluminal Device, Temporary, Percutaneous Approach"}],"modifierExtension":[{"url":"http://hl7.org/fhir/us/cqfmeasures/StructureDefinition/cqfm-isTestCase","valueBoolean":true}],"status":"complete","type":"individual","measure":"https://madie.cms.gov/Measure/CMS832HHAKIFHIR","period":{"start":"2026-01-01","end":"2026-12-31"},"group":[{"id":"67b50f879214df46de2f1fdb","population":[{"id":"DA0D3694-7F57-4FB9-8410-1F64E44CA01E","code":{"coding":[{"system":"http://terminology.hl7.org/CodeSystem/measure-population","code":"initial-population","display":"Initial Population"}]},"count":1},{"id":"624D8554-9CB0-4BF0-882D-05C4F88BCC2C","code":{"coding":[{"system":"http://terminology.hl7.org/CodeSystem/measure-population","code":"denominator","display":"Denominator"}]},"count":1},{"id":"000FF050-D4A2-4C8B-8123-4538D35D5441","code":{"coding":[{"system":"http://terminology.hl7.org/CodeSystem/measure-population","code":"denominator-exclusion","display":"Denominator Exclusion"}]},"count":1},{"id":"01644D07-D9F8-403E-A66D-109ABA29BB6E","code":{"coding":[{"system":"http://terminology.hl7.org/CodeSystem/measure-population","code":"numerator","display":"Numerator"}]},"count":0}],"measureScore":{"value":0}}],"evaluatedResource":[{"reference":"Patient/b85c0ae2-2a8c-4c27-9a31-efc62576b203"},{"reference":"Encounter/8552968b-def1-4268-b6e9-ef52b68c5778"},{"reference":"Procedure/2bd876e3-acaa-4b25-af20-aa05c9e8d329"},{"reference":"Observation/7cfffa1d-7e08-4a95-93f3-8b54b68d21ea"},{"reference":"Observation/722f30f0-c977-44d1-a259-9bbca7b88701"},{"reference":"Observation/b3288193-a20a-4328-b980-0b4147804ce3"},{"reference":"Coverage/b25a34a1-ec17-4a04-aa52-d2549c741f39"},{"reference":"Organization/8754b1a0-f5f8-4ea2-9c29-0032ae39e0ab"}]},"request":{"method":"PUT","url":"MeasureReport/60309331-9cee-4425-9f4c-5255b59af64d"}},{"fullUrl":"https://madie.cms.gov/Observation/722f30f0-c977-44d1-a259-9bbca7b88701","resource":{"resourceType":"Observation","id":"722f30f0-c977-44d1-a259-9bbca7b88701","meta":{"profile":["http://hl7.org/fhir/us/qicore/StructureDefinition/qicore-observation-lab"]},"status":"final","category":[{"coding":[{"system":"http://terminology.hl7.org/CodeSystem/observation-category","code":"laboratory","display":"Laboratory"}]}],"code":{"coding":[{"system":"http://loinc.org","code":"2160-0","display":"Creatinine [Mass/volume] in Serum or Plasma"}]},"subject":{"reference":"Patient/b85c0ae2-2a8c-4c27-9a31-efc62576b203"},"effectiveDateTime":"2026-09-29T09:00:00.000+00:00","issued":"2026-09-29T09:30:00.000+00:00","valueQuantity":{"value":0.9,"unit":"mg/dL","system":"http://unitsofmeasure.org","code":"mg/dL"}},"request":{"method":"PUT","url":"Observation/722f30f0-c977-44d1-a259-9bbca7b88701"}},{"fullUrl":"https://madie.cms.gov/Coverage/b25a34a1-ec17-4a04-aa52-d2549c741f39","resource":{"resourceType":"Coverage","id":"b25a34a1-ec17-4a04-aa52-d2549c741f39","meta":{"profile":["http://hl7.org/fhir/us/qicore/StructureDefinition/qicore-coverage"]},"status":"active","type":{"coding":[{"system":"https://nahdo.org/sopt","version":"9.2","code":"211","display":"Medicaid HMO"}]},"beneficiary":{"reference":"Patient/b85c0ae2-2a8c-4c27-9a31-efc62576b203"},"period":{"start":"2024-12-01T00:00:00.000+00:00"},"payor":[{"reference":"Organization/8754b1a0-f5f8-4ea2-9c29-0032ae39e0ab"}]},"request":{"method":"PUT","url":"Coverage/b25a34a1-ec17-4a04-aa52-d2549c741f39"}},{"fullUrl":"https://madie.cms.gov/Encounter/8552968b-def1-4268-b6e9-ef52b68c5778","resource":{"resourceType":"Encounter","id":"8552968b-def1-4268-b6e9-ef52b68c5778","meta":{"profile":["http://hl7.org/fhir/us/qicore/StructureDefinition/qicore-encounter"]},"status":"finished","class":{"system":"http://terminology.hl7.org/CodeSystem/v3-ActCode","code":"IMP","display":"inpatient encounter"},"type":[{"coding":[{"system":"http://snomed.info/sct","code":"183452005","display":"Emergency hospital admission (procedure)"}]}],"subject":{"reference":"Patient/b85c0ae2-2a8c-4c27-9a31-efc62576b203"},"period":{"start":"2026-09-29T08:00:00.000+00:00","end":"2026-10-03T20:00:00.000+00:00"}},"request":{"method":"PUT","url":"Encounter/8552968b-def1-4268-b6e9-ef52b68c5778"}},{"fullUrl":"https://madie.cms.gov/Organization/8754b1a0-f5f8-4ea2-9c29-0032ae39e0ab","resource":{"resourceType":"Organization","id":"8754b1a0-f5f8-4ea2-9c29-0032ae39e0ab","meta":{"profile":["http://hl7.org/fhir/us/qicore/StructureDefinition/qicore-organization"]},"identifier":[{"use":"temp","system":"urn:oid:2.16.840.1.113883.4.4","value":"21-3259825"}],"active":true,"type":[{"coding":[{"system":"http://terminology.hl7.org/CodeSystem/organization-type","code":"pay","display":"Payer"}]}],"name":"Blue Cross Blue Shield of Texas","telecom":[{"system":"phone","value":"(+1) 972-766-6900"}],"address":[{"use":"billing","type":"postal","line":["P.O. Box 660044"],"city":"Dallas","state":"TX","postalCode":"75266-0044","country":"USA"}]},"request":{"method":"PUT","url":"Organization/8754b1a0-f5f8-4ea2-9c29-0032ae39e0ab"}},{"fullUrl":"https://madie.cms.gov/Observation/7cfffa1d-7e08-4a95-93f3-8b54b68d21ea","resource":{"resourceType":"Observation","id":"7cfffa1d-7e08-4a95-93f3-8b54b68d21ea","meta":{"profile":["http://hl7.org/fhir/us/qicore/StructureDefinition/qicore-observation-lab"]},"status":"final","category":[{"coding":[{"system":"http://terminology.hl7.org/CodeSystem/observation-category","code":"laboratory","display":"Laboratory"}]}],"code":{"coding":[{"system":"http://loinc.org","version":"2.72","code":"2160-0","display":"Creatinine [Mass/volume] in Serum or Plasma","userSelected":true}]},"subject":{"reference":"Patient/b85c0ae2-2a8c-4c27-9a31-efc62576b203"},"effectiveDateTime":"2026-10-01T08:01:00.000+00:00","issued":"2026-10-01T08:31:00.000+00:00","valueQuantity":{"value":0.9,"unit":"mg/dL","system":"http://unitsofmeasure.org","code":"mg/dL"}},"request":{"method":"PUT","url":"Observation/7cfffa1d-7e08-4a95-93f3-8b54b68d21ea"}},{"fullUrl":"https://madie.cms.gov/Procedure/2bd876e3-acaa-4b25-af20-aa05c9e8d329","resource":{"resourceType":"Procedure","id":"2bd876e3-acaa-4b25-af20-aa05c9e8d329","meta":{"profile":["http://hl7.org/fhir/us/qicore/StructureDefinition/qicore-procedure"]},"extension":[{"url":"http://hl7.org/fhir/us/qicore/StructureDefinition/qicore-recorded","valueDateTime":"2026-09-29T09:00:00.000+00:00"}],"status":"completed","code":{"coding":[{"system":"http://www.cms.gov/Medicare/Coding/ICD10","code":"02LW3DJ","display":"Occlusion of Thoracic Aorta, Descending with Intraluminal Device, Temporary, Percutaneous Approach"}],"text":"Occlusion of Thoracic Aorta, Descending with Intraluminal Device, Temporary, Percutaneous Approach"},"subject":{"reference":"Patient/b85c0ae2-2a8c-4c27-9a31-efc62576b203"},"encounter":{"reference":"Encounter/8552968b-def1-4268-b6e9-ef52b68c5778"},"performedPeriod":{"start":"2026-09-29T09:00:00.000+00:00","end":"2026-09-29T09:30:00.000+00:00"}},"request":{"method":"PUT","url":"Procedure/2bd876e3-acaa-4b25-af20-aa05c9e8d329"}},{"fullUrl":"https://madie.cms.gov/Observation/b3288193-a20a-4328-b980-0b4147804ce3","resource":{"resourceType":"Observation","id":"b3288193-a20a-4328-b980-0b4147804ce3","meta":{"profile":["http://hl7.org/fhir/us/qicore/StructureDefinition/qicore-observation-lab"]},"status":"final","category":[{"coding":[{"system":"http://terminology.hl7.org/CodeSystem/observation-category","code":"laboratory","display":"Laboratory"}]}],"code":{"coding":[{"system":"http://loinc.org","version":"2.72","code":"2160-0","display":"Creatinine [Mass/volume] in Serum or Plasma","userSelected":true}]},"subject":{"reference":"Patient/b85c0ae2-2a8c-4c27-9a31-efc62576b203"},"effectiveDateTime":"2026-09-30T07:35:00.000+00:00","issued":"2026-09-30T08:00:00.000+00:00","valueQuantity":{"value":0.9,"unit":"mg/dL","system":"http://unitsofmeasure.org","code":"mg/dL"}},"request":{"method":"PUT","url":"Observation/b3288193-a20a-4328-b980-0b4147804ce3"}},{"fullUrl":"https://madie.cms.gov/MeasureReport/f7600763-7b9a-4bdb-9233-513065db8049","resource":{"resourceType":"MeasureReport","id":"f7600763-7b9a-4bdb-9233-513065db8049","meta":{"profile":["http://hl7.org/fhir/us/cqfmeasures/StructureDefinition/test-case-cqfm"]},"contained":[{"resourceType":"Parameters","id":"ca2bf3ef-cc66-4b04-89d0-1a4ffcb67a2f-parameters","parameter":[{"name":"subject","valueString":"b85c0ae2-2a8c-4c27-9a31-efc62576b203"}]}],"extension":[{"url":"http://hl7.org/fhir/StructureDefinition/cqf-inputParameters","valueReference":{"reference":"#ca2bf3ef-cc66-4b04-89d0-1a4ffcb67a2f-parameters"}},{"url":"http://hl7.org/fhir/us/cqfmeasures/StructureDefinition/cqfm-testCaseDescription","valueMarkdown":"DENEXPass-HighRiskProc 02LW3DJ Occlusion of Thoracic Aorta, Descending with Intraluminal Device, Temporary, Percutaneous Approach"}],"modifierExtension":[{"url":"http://hl7.org/fhir/us/cqfmeasures/StructureDefinition/cqfm-isTestCase","valueBoolean":true}],"status":"complete","type":"individual","measure":"https://madie.cms.gov/Measure/CMS832HHAKIFHIR","period":{"start":"2026-01-01","end":"2026-12-31"},"group":[{"id":"Group_1","population":[{"id":"InitialPopulation_1","code":{"coding":[{"system":"http://terminology.hl7.org/CodeSystem/measure-population","code":"initial-population","display":"Initial Population"}]},"count":1},{"id":"Denominator_1","code":{"coding":[{"system":"http://terminology.hl7.org/CodeSystem/measure-population","code":"denominator","display":"Denominator"}]},"count":1},{"id":"DenominatorExclusion_1","code":{"coding":[{"system":"http://terminology.hl7.org/CodeSystem/measure-population","code":"denominator-exclusion","display":"Denominator Exclusion"}]},"count":1},{"id":"Numerator_1","code":{"coding":[{"system":"http://terminology.hl7.org/CodeSystem/measure-population","code":"numerator","display":"Numerator"}]},"count":0}],"measureScore":{"value":0.0}}],"evaluatedResource":[{"reference":"Patient/b85c0ae2-2a8c-4c27-9a31-efc62576b203"},{"reference":"MeasureReport/60309331-9cee-4425-9f4c-5255b59af64d"},{"reference":"Observation/722f30f0-c977-44d1-a259-9bbca7b88701"},{"reference":"Coverage/b25a34a1-ec17-4a04-aa52-d2549c741f39"},{"reference":"Encounter/8552968b-def1-4268-b6e9-ef52b68c5778"},{"reference":"Organization/8754b1a0-f5f8-4ea2-9c29-0032ae39e0ab"},{"reference":"Observation/7cfffa1d-7e08-4a95-93f3-8b54b68d21ea"},{"reference":"Procedure/2bd876e3-acaa-4b25-af20-aa05c9e8d329"},{"reference":"Observation/b3288193-a20a-4328-b980-0b4147804ce3"}]},"request":{"method":"PUT","url":"MeasureReport/f7600763-7b9a-4bdb-9233-513065db8049"}}]},"request":{"method":"PUT","url":"Bundle/tests-b85c0ae2-2a8c-4c27-9a31-efc62576b203-bundle"}},{"fullUrl":"Observation/7cfffa1d-7e08-4a95-93f3-8b54b68d21ea","resource":{"resourceType":"Observation","id":"7cfffa1d-7e08-4a95-93f3-8b54b68d21ea","meta":{"profile":["http://hl7.org/fhir/us/qicore/StructureDefinition/qicore-observation-lab"]},"status":"final","category":[{"coding":[{"system":"http://terminology.hl7.org/CodeSystem/observation-category","code":"laboratory","display":"Laboratory"}]}],"code":{"coding":[{"system":"http://loinc.org","version":"2.72","code":"2160-0","display":"Creatinine [Mass/volume] in Serum or Plasma","userSelected":true}]},"subject":{"reference":"Patient/b85c0ae2-2a8c-4c27-9a31-efc62576b203"},"effectiveDateTime":"2026-10-01T08:01:00.000+00:00","issued":"2026-10-01T08:31:00.000+00:00","valueQuantity":{"value":0.9,"unit":"mg/dL","system":"http://unitsofmeasure.org","code":"mg/dL"}},"request":{"method":"PUT","url":"Observation/7cfffa1d-7e08-4a95-93f3-8b54b68d21ea"}},{"fullUrl":"Organization/8754b1a0-f5f8-4ea2-9c29-0032ae39e0ab","resource":{"resourceType":"Organization","id":"8754b1a0-f5f8-4ea2-9c29-0032ae39e0ab","meta":{"profile":["http://hl7.org/fhir/us/qicore/StructureDefinition/qicore-organization"]},"identifier":[{"use":"temp","system":"urn:oid:2.16.840.1.113883.4.4","value":"21-3259825"}],"active":true,"type":[{"coding":[{"system":"http://terminology.hl7.org/CodeSystem/organization-type","code":"pay","display":"Payer"}]}],"name":"Blue Cross Blue Shield of Texas","telecom":[{"system":"phone","value":"(+1) 972-766-6900"}],"address":[{"use":"billing","type":"postal","line":["P.O. Box 660044"],"city":"Dallas","state":"TX","postalCode":"75266-0044","country":"USA"}]},"request":{"method":"PUT","url":"Organization/8754b1a0-f5f8-4ea2-9c29-0032ae39e0ab"}},{"fullUrl":"MeasureReport/60309331-9cee-4425-9f4c-5255b59af64d","resource":{"resourceType":"MeasureReport","id":"60309331-9cee-4425-9f4c-5255b59af64d","meta":{"profile":["http://hl7.org/fhir/us/cqfmeasures/StructureDefinition/test-case-cqfm"]},"contained":[{"resourceType":"Parameters","id":"efb6f445-d978-4149-912e-c8bf3b2f12f4-parameters","parameter":[{"name":"subject","valueString":"b85c0ae2-2a8c-4c27-9a31-efc62576b203"}]}],"extension":[{"url":"http://hl7.org/fhir/us/cqfmeasures/StructureDefinition/cqfm-inputParameters","valueReference":{"reference":"#efb6f445-d978-4149-912e-c8bf3b2f12f4-parameters"}},{"url":"http://hl7.org/fhir/us/cqfmeasures/StructureDefinition/cqfm-testCaseDescription","valueMarkdown":"DENEXPass-HighRiskProc 02LW3DJ Occlusion of Thoracic Aorta, Descending with Intraluminal Device, Temporary, Percutaneous Approach"}],"modifierExtension":[{"url":"http://hl7.org/fhir/us/cqfmeasures/StructureDefinition/cqfm-isTestCase","valueBoolean":true}],"status":"complete","type":"individual","measure":"https://madie.cms.gov/Measure/CMS832HHAKIFHIR","period":{"start":"2026-01-01","end":"2026-12-31"},"group":[{"id":"67b50f879214df46de2f1fdb","population":[{"id":"DA0D3694-7F57-4FB9-8410-1F64E44CA01E","code":{"coding":[{"system":"http://terminology.hl7.org/CodeSystem/measure-population","code":"initial-population","display":"Initial Population"}]},"count":1},{"id":"624D8554-9CB0-4BF0-882D-05C4F88BCC2C","code":{"coding":[{"system":"http://terminology.hl7.org/CodeSystem/measure-population","code":"denominator","display":"Denominator"}]},"count":1},{"id":"000FF050-D4A2-4C8B-8123-4538D35D5441","code":{"coding":[{"system":"http://terminology.hl7.org/CodeSystem/measure-population","code":"denominator-exclusion","display":"Denominator Exclusion"}]},"count":1},{"id":"01644D07-D9F8-403E-A66D-109ABA29BB6E","code":{"coding":[{"system":"http://terminology.hl7.org/CodeSystem/measure-population","code":"numerator","display":"Numerator"}]},"count":0}],"measureScore":{"value":0}}],"evaluatedResource":[{"reference":"Patient/b85c0ae2-2a8c-4c27-9a31-efc62576b203"},{"reference":"Encounter/8552968b-def1-4268-b6e9-ef52b68c5778"},{"reference":"Procedure/2bd876e3-acaa-4b25-af20-aa05c9e8d329"},{"reference":"Observation/7cfffa1d-7e08-4a95-93f3-8b54b68d21ea"},{"reference":"Observation/722f30f0-c977-44d1-a259-9bbca7b88701"},{"reference":"Observation/b3288193-a20a-4328-b980-0b4147804ce3"},{"reference":"Coverage/b25a34a1-ec17-4a04-aa52-d2549c741f39"},{"reference":"Organization/8754b1a0-f5f8-4ea2-9c29-0032ae39e0ab"}]},"request":{"method":"PUT","url":"MeasureReport/60309331-9cee-4425-9f4c-5255b59af64d"}},{"fullUrl":"Observation/722f30f0-c977-44d1-a259-9bbca7b88701","resource":{"resourceType":"Observation","id":"722f30f0-c977-44d1-a259-9bbca7b88701","meta":{"profile":["http://hl7.org/fhir/us/qicore/StructureDefinition/qicore-observation-lab"]},"status":"final","category":[{"coding":[{"system":"http://terminology.hl7.org/CodeSystem/observation-category","code":"laboratory","display":"Laboratory"}]}],"code":{"coding":[{"system":"http://loinc.org","code":"2160-0","display":"Creatinine [Mass/volume] in Serum or Plasma"}]},"subject":{"reference":"Patient/b85c0ae2-2a8c-4c27-9a31-efc62576b203"},"effectiveDateTime":"2026-09-29T09:00:00.000+00:00","issued":"2026-09-29T09:30:00.000+00:00","valueQuantity":{"value":0.9,"unit":"mg/dL","system":"http://unitsofmeasure.org","code":"mg/dL"}},"request":{"method":"PUT","url":"Observation/722f30f0-c977-44d1-a259-9bbca7b88701"}},{"fullUrl":"MeasureReport/f7600763-7b9a-4bdb-9233-513065db8049","resource":{"resourceType":"MeasureReport","id":"f7600763-7b9a-4bdb-9233-513065db8049","meta":{"profile":["http://hl7.org/fhir/us/cqfmeasures/StructureDefinition/test-case-cqfm"]},"contained":[{"resourceType":"Parameters","id":"ca2bf3ef-cc66-4b04-89d0-1a4ffcb67a2f-parameters","parameter":[{"name":"subject","valueString":"b85c0ae2-2a8c-4c27-9a31-efc62576b203"}]}],"extension":[{"url":"http://hl7.org/fhir/StructureDefinition/cqf-inputParameters","valueReference":{"reference":"#ca2bf3ef-cc66-4b04-89d0-1a4ffcb67a2f-parameters"}},{"url":"http://hl7.org/fhir/us/cqfmeasures/StructureDefinition/cqfm-testCaseDescription","valueMarkdown":"DENEXPass-HighRiskProc 02LW3DJ Occlusion of Thoracic Aorta, Descending with Intraluminal Device, Temporary, Percutaneous Approach"}],"modifierExtension":[{"url":"http://hl7.org/fhir/us/cqfmeasures/StructureDefinition/cqfm-isTestCase","valueBoolean":true}],"status":"complete","type":"individual","measure":"https://madie.cms.gov/Measure/CMS832HHAKIFHIR","period":{"start":"2026-01-01","end":"2026-12-31"},"group":[{"id":"Group_1","population":[{"id":"InitialPopulation_1","code":{"coding":[{"system":"http://terminology.hl7.org/CodeSystem/measure-population","code":"initial-population","display":"Initial Population"}]},"count":1},{"id":"Denominator_1","code":{"coding":[{"system":"http://terminology.hl7.org/CodeSystem/measure-population","code":"denominator","display":"Denominator"}]},"count":1},{"id":"DenominatorExclusion_1","code":{"coding":[{"system":"http://terminology.hl7.org/CodeSystem/measure-population","code":"denominator-exclusion","display":"Denominator Exclusion"}]},"count":1},{"id":"Numerator_1","code":{"coding":[{"system":"http://terminology.hl7.org/CodeSystem/measure-population","code":"numerator","display":"Numerator"}]},"count":0}],"measureScore":{"value":0.0}}],"evaluatedResource":[{"reference":"Patient/b85c0ae2-2a8c-4c27-9a31-efc62576b203"},{"reference":"MeasureReport/60309331-9cee-4425-9f4c-5255b59af64d"},{"reference":"Observation/722f30f0-c977-44d1-a259-9bbca7b88701"},{"reference":"Coverage/b25a34a1-ec17-4a04-aa52-d2549c741f39"},{"reference":"Encounter/8552968b-def1-4268-b6e9-ef52b68c5778"},{"reference":"Organization/8754b1a0-f5f8-4ea2-9c29-0032ae39e0ab"},{"reference":"Observation/7cfffa1d-7e08-4a95-93f3-8b54b68d21ea"},{"reference":"Procedure/2bd876e3-acaa-4b25-af20-aa05c9e8d329"},{"reference":"Observation/b3288193-a20a-4328-b980-0b4147804ce3"}]},"request":{"method":"PUT","url":"MeasureReport/f7600763-7b9a-4bdb-9233-513065db8049"}}]}