{"resourceType":"Bundle","id":"tests-212b0826-d939-4c4a-8c8f-c711bf5d9e44-bundle","type":"transaction","entry":[{"resource":{"resourceType":"MeasureReport","id":"c8a3f64d-11ac-46bc-b96c-e66b53aaf324","meta":{"profile":["http://hl7.org/fhir/us/cqfmeasures/StructureDefinition/test-case-cqfm"]},"contained":[{"resourceType":"Parameters","id":"d0165583-0333-49e9-a1a1-b9a4a9dca1f9-parameters","parameter":[{"name":"subject","valueString":"212b0826-d939-4c4a-8c8f-c711bf5d9e44"}]}],"extension":[{"url":"http://hl7.org/fhir/us/cqfmeasures/StructureDefinition/cqfm-inputParameters","valueReference":{"reference":"#d0165583-0333-49e9-a1a1-b9a4a9dca1f9-parameters"}},{"url":"http://hl7.org/fhir/us/cqfmeasures/StructureDefinition/cqfm-testCaseDescription","valueMarkdown":"DENOMPass-RVAllDiagnosesPOA E08.01 Diabetes mellitus due to underlying condition with hyperosmolarity with coma but POA logic/json not generating RV tuple"}],"modifierExtension":[{"url":"http://hl7.org/fhir/us/cqfmeasures/StructureDefinition/cqfm-isTestCase","valueBoolean":true}],"status":"complete","type":"individual","measure":"https://madie.cms.gov/Measure/CMS832HHAKIFHIR","period":{"start":"2026-01-01","end":"2026-12-31"},"group":[{"id":"67b50f879214df46de2f1fdb","population":[{"id":"DA0D3694-7F57-4FB9-8410-1F64E44CA01E","code":{"coding":[{"system":"http://terminology.hl7.org/CodeSystem/measure-population","code":"initial-population","display":"Initial Population"}]},"count":1},{"id":"624D8554-9CB0-4BF0-882D-05C4F88BCC2C","code":{"coding":[{"system":"http://terminology.hl7.org/CodeSystem/measure-population","code":"denominator","display":"Denominator"}]},"count":1},{"id":"000FF050-D4A2-4C8B-8123-4538D35D5441","code":{"coding":[{"system":"http://terminology.hl7.org/CodeSystem/measure-population","code":"denominator-exclusion","display":"Denominator Exclusion"}]},"count":0},{"id":"01644D07-D9F8-403E-A66D-109ABA29BB6E","code":{"coding":[{"system":"http://terminology.hl7.org/CodeSystem/measure-population","code":"numerator","display":"Numerator"}]},"count":0}],"measureScore":{"value":0}}],"evaluatedResource":[{"reference":"Patient/212b0826-d939-4c4a-8c8f-c711bf5d9e44"},{"reference":"Encounter/c056c017-9718-4104-b30c-acd0d6b37442"},{"reference":"Condition/5ca58b93-fdc8-4a6e-8fdb-b4c24da4347d"},{"reference":"Observation/0d64218a-e0e9-4107-b113-c1e37a94b4ce"},{"reference":"Observation/370cda11-6948-4b2d-8921-00f14acc88dd"},{"reference":"Observation/e80f344f-6e7e-4021-b171-1aca72c5963d"},{"reference":"Coverage/a70eed57-f31a-4c7a-ba0e-7232a3d02ef5"},{"reference":"Organization/f480d431-b941-4820-868b-f0ded88d94f7"}]},"request":{"method":"PUT","url":"MeasureReport/c8a3f64d-11ac-46bc-b96c-e66b53aaf324"}},{"resource":{"resourceType":"Organization","id":"f480d431-b941-4820-868b-f0ded88d94f7","meta":{"profile":["http://hl7.org/fhir/us/qicore/StructureDefinition/qicore-organization"]},"identifier":[{"use":"temp","system":"urn:oid:2.16.840.1.113883.4.4","value":"21-3259825"}],"active":true,"type":[{"coding":[{"system":"http://terminology.hl7.org/CodeSystem/organization-type","code":"pay","display":"Payer"}]}],"name":"Blue Cross Blue Shield of Texas","telecom":[{"system":"phone","value":"(+1) 972-766-6900"}],"address":[{"use":"billing","type":"postal","line":["P.O. Box 660044"],"city":"Dallas","state":"TX","postalCode":"75266-0044","country":"USA"}]},"request":{"method":"PUT","url":"Organization/f480d431-b941-4820-868b-f0ded88d94f7"}},{"resource":{"resourceType":"Condition","id":"5ca58b93-fdc8-4a6e-8fdb-b4c24da4347d","meta":{"profile":["http://hl7.org/fhir/us/qicore/StructureDefinition/qicore-condition"]},"clinicalStatus":{"coding":[{"system":"http://terminology.hl7.org/CodeSystem/condition-clinical","code":"active","display":"Active","userSelected":true}]},"verificationStatus":{"coding":[{"system":"http://terminology.hl7.org/CodeSystem/condition-ver-status","code":"confirmed","display":"Confirmed","userSelected":true}]},"category":[{"coding":[{"system":"http://terminology.hl7.org/CodeSystem/condition-category","code":"encounter-diagnosis","display":"Encounter Diagnosis","userSelected":true}]}],"code":{"coding":[{"system":"http://hl7.org/fhir/sid/icd-10-cm","code":"E08.01","display":"Diabetes mellitus due to underlying condition with hyperosmolarity with coma","userSelected":true}]},"subject":{"reference":"Patient/212b0826-d939-4c4a-8c8f-c711bf5d9e44"},"onsetPeriod":{"start":"2026-09-29T06:00:00.000+00:00"},"recordedDate":"2026-09-29T08:25:00.000+00:00"},"request":{"method":"PUT","url":"Condition/5ca58b93-fdc8-4a6e-8fdb-b4c24da4347d"}},{"resource":{"resourceType":"MeasureReport","id":"f3144f5e-4637-413a-a494-8ea30f7d5fec","meta":{"profile":["http://hl7.org/fhir/us/cqfmeasures/StructureDefinition/test-case-cqfm"]},"contained":[{"resourceType":"Parameters","id":"4a153c22-6b54-4a35-9152-7ed552ec0cf7-parameters","parameter":[{"name":"subject","valueString":"212b0826-d939-4c4a-8c8f-c711bf5d9e44"}]}],"extension":[{"url":"http://hl7.org/fhir/StructureDefinition/cqf-inputParameters","valueReference":{"reference":"#4a153c22-6b54-4a35-9152-7ed552ec0cf7-parameters"}},{"url":"http://hl7.org/fhir/us/cqfmeasures/StructureDefinition/cqfm-testCaseDescription","valueMarkdown":"DENOMPass-RVAllDiagnosesPOA E08.01 Diabetes mellitus due to underlying condition with hyperosmolarity with coma but POA logic/json not generating RV tuple"}],"modifierExtension":[{"url":"http://hl7.org/fhir/us/cqfmeasures/StructureDefinition/cqfm-isTestCase","valueBoolean":true}],"status":"complete","type":"individual","measure":"https://madie.cms.gov/Measure/CMS832HHAKIFHIR","period":{"start":"2026-01-01","end":"2026-12-31"},"group":[{"id":"Group_1","population":[{"id":"InitialPopulation_1","code":{"coding":[{"system":"http://terminology.hl7.org/CodeSystem/measure-population","code":"initial-population","display":"Initial Population"}]},"count":1},{"id":"Denominator_1","code":{"coding":[{"system":"http://terminology.hl7.org/CodeSystem/measure-population","code":"denominator","display":"Denominator"}]},"count":1},{"id":"DenominatorExclusion_1","code":{"coding":[{"system":"http://terminology.hl7.org/CodeSystem/measure-population","code":"denominator-exclusion","display":"Denominator Exclusion"}]},"count":0},{"id":"Numerator_1","code":{"coding":[{"system":"http://terminology.hl7.org/CodeSystem/measure-population","code":"numerator","display":"Numerator"}]},"count":0}],"measureScore":{"value":0.0}}],"evaluatedResource":[{"reference":"Patient/212b0826-d939-4c4a-8c8f-c711bf5d9e44"},{"reference":"Observation/370cda11-6948-4b2d-8921-00f14acc88dd"},{"reference":"Observation/e80f344f-6e7e-4021-b171-1aca72c5963d"},{"reference":"Observation/0d64218a-e0e9-4107-b113-c1e37a94b4ce"},{"reference":"Encounter/c056c017-9718-4104-b30c-acd0d6b37442"},{"reference":"Organization/f480d431-b941-4820-868b-f0ded88d94f7"},{"reference":"Coverage/a70eed57-f31a-4c7a-ba0e-7232a3d02ef5"},{"reference":"MeasureReport/c8a3f64d-11ac-46bc-b96c-e66b53aaf324"},{"reference":"Condition/5ca58b93-fdc8-4a6e-8fdb-b4c24da4347d"}]},"request":{"method":"PUT","url":"MeasureReport/f3144f5e-4637-413a-a494-8ea30f7d5fec"}},{"resource":{"resourceType":"Patient","id":"212b0826-d939-4c4a-8c8f-c711bf5d9e44","meta":{"profile":["http://hl7.org/fhir/us/qicore/StructureDefinition/qicore-patient"]},"text":{"status":"generated","div":"<div xmlns=\"http://www.w3.org/1999/xhtml\"><div class=\"hapiHeaderText\">Turns 18 day of Encounter <b>DENOMPass </b></div><table class=\"hapiPropertyTable\"><tbody><tr><td>Identifier</td><td>f0eda1c9668fdacdcad3378589bf6e0a71e7dec1618f14fca4d442ec96e402b1</td></tr><tr><td>Date of birth</td><td><span>29 September 2006</span></td></tr></tbody></table></div>"},"extension":[{"url":"http://hl7.org/fhir/us/core/StructureDefinition/us-core-race","extension":[{"url":"ombCategory","valueCoding":{"system":"urn:oid:2.16.840.1.113883.6.238","code":"1002-5","display":"American Indian or Alaska Native","userSelected":true}},{"url":"text","valueString":"American Indian or Alaska Native"}]},{"url":"http://hl7.org/fhir/us/core/StructureDefinition/us-core-ethnicity","extension":[{"url":"ombCategory","valueCoding":{"system":"urn:oid:2.16.840.1.113883.6.238","code":"2135-2","display":"Hispanic or Latino","userSelected":true}},{"url":"text","valueString":"Hispanic or Latino"}]},{"url":"http://hl7.org/fhir/us/core/StructureDefinition/us-core-sex","valueCode":"248153007"}],"identifier":[{"type":{"coding":[{"system":"http://terminology.hl7.org/CodeSystem/v2-0203","code":"MR"}]},"system":"http://bonnie-fhir.healthit.gov/","value":"DENOMPass-RVAllDiagnosesPOA"}],"active":true,"name":[{"use":"usual","family":"DENOMPass","given":["RVAllDiagnosesPOA"]}],"gender":"male","birthDate":"1983-10-10"},"request":{"method":"PUT","url":"Patient/212b0826-d939-4c4a-8c8f-c711bf5d9e44"}},{"resource":{"resourceType":"Observation","id":"e80f344f-6e7e-4021-b171-1aca72c5963d","meta":{"profile":["http://hl7.org/fhir/us/qicore/StructureDefinition/qicore-observation-lab"]},"status":"final","category":[{"coding":[{"system":"http://terminology.hl7.org/CodeSystem/observation-category","code":"laboratory","display":"Laboratory"}]}],"code":{"coding":[{"system":"http://loinc.org","version":"2.72","code":"2160-0","display":"Creatinine [Mass/volume] in Serum or Plasma","userSelected":true}]},"subject":{"reference":"Patient/212b0826-d939-4c4a-8c8f-c711bf5d9e44"},"effectiveDateTime":"2026-09-30T07:35:00.000+00:00","issued":"2026-09-30T08:00:00.000+00:00","valueQuantity":{"value":0.9,"unit":"mg/dL","system":"http://unitsofmeasure.org","code":"mg/dL"}},"request":{"method":"PUT","url":"Observation/e80f344f-6e7e-4021-b171-1aca72c5963d"}},{"resource":{"resourceType":"Encounter","id":"c056c017-9718-4104-b30c-acd0d6b37442","meta":{"profile":["http://hl7.org/fhir/us/qicore/StructureDefinition/qicore-encounter"]},"status":"finished","class":{"system":"http://terminology.hl7.org/CodeSystem/v3-ActCode","code":"IMP","display":"inpatient encounter"},"type":[{"coding":[{"system":"http://snomed.info/sct","code":"183452005","display":"Emergency hospital admission (procedure)"}]}],"subject":{"reference":"Patient/212b0826-d939-4c4a-8c8f-c711bf5d9e44"},"period":{"start":"2026-09-29T08:00:00.000+00:00","end":"2026-10-03T20:00:00.000+00:00"},"diagnosis":[{"extension":[{"url":"http://hl7.org/fhir/us/qicore/StructureDefinition/qicore-encounter-diagnosisPresentOnAdmission","valueCodeableConcept":{"coding":[{"system":"https://www.cms.gov/Medicare/Medicare-Fee-for-Service-Payment/HospitalAcqCond/Coding","code":"Y"}]}}],"condition":{"reference":"Condition/5ca58b93-fdc8-4a6e-8fdb-b4c24da4347d"},"use":{"coding":[{"system":"http://hl7.org/fhir/diagnosis-role","code":"billing","display":"Billing"}]},"rank":1}]},"request":{"method":"PUT","url":"Encounter/c056c017-9718-4104-b30c-acd0d6b37442"}},{"resource":{"resourceType":"Coverage","id":"a70eed57-f31a-4c7a-ba0e-7232a3d02ef5","meta":{"profile":["http://hl7.org/fhir/us/qicore/StructureDefinition/qicore-coverage"]},"status":"active","type":{"coding":[{"system":"https://nahdo.org/sopt","version":"9.2","code":"211","display":"Medicaid HMO"}]},"beneficiary":{"reference":"Patient/212b0826-d939-4c4a-8c8f-c711bf5d9e44"},"period":{"start":"2024-12-01T00:00:00.000+00:00"},"payor":[{"reference":"Organization/f480d431-b941-4820-868b-f0ded88d94f7"}]},"request":{"method":"PUT","url":"Coverage/a70eed57-f31a-4c7a-ba0e-7232a3d02ef5"}},{"resource":{"resourceType":"Observation","id":"0d64218a-e0e9-4107-b113-c1e37a94b4ce","meta":{"profile":["http://hl7.org/fhir/us/qicore/StructureDefinition/qicore-observation-lab"]},"status":"final","category":[{"coding":[{"system":"http://terminology.hl7.org/CodeSystem/observation-category","code":"laboratory","display":"Laboratory"}]}],"code":{"coding":[{"system":"http://loinc.org","version":"2.72","code":"2160-0","display":"Creatinine [Mass/volume] in Serum or Plasma","userSelected":true}]},"subject":{"reference":"Patient/212b0826-d939-4c4a-8c8f-c711bf5d9e44"},"effectiveDateTime":"2026-10-01T08:01:00.000+00:00","issued":"2026-10-01T08:31:00.000+00:00","valueQuantity":{"value":0.9,"unit":"mg/dL","system":"http://unitsofmeasure.org","code":"mg/dL"}},"request":{"method":"PUT","url":"Observation/0d64218a-e0e9-4107-b113-c1e37a94b4ce"}},{"resource":{"resourceType":"Bundle","id":"tests-212b0826-d939-4c4a-8c8f-c711bf5d9e44-bundle","type":"transaction","entry":[{"fullUrl":"https://madie.cms.gov/Patient/212b0826-d939-4c4a-8c8f-c711bf5d9e44","resource":{"resourceType":"Patient","id":"212b0826-d939-4c4a-8c8f-c711bf5d9e44","meta":{"profile":["http://hl7.org/fhir/us/qicore/StructureDefinition/qicore-patient"]},"text":{"status":"generated","div":"<div xmlns=\"http://www.w3.org/1999/xhtml\"><div class=\"hapiHeaderText\">Turns 18 day of Encounter <b>DENOMPass </b></div><table class=\"hapiPropertyTable\"><tbody><tr><td>Identifier</td><td>f0eda1c9668fdacdcad3378589bf6e0a71e7dec1618f14fca4d442ec96e402b1</td></tr><tr><td>Date of birth</td><td><span>29 September 2006</span></td></tr></tbody></table></div>"},"extension":[{"url":"http://hl7.org/fhir/us/core/StructureDefinition/us-core-race","extension":[{"url":"ombCategory","valueCoding":{"system":"urn:oid:2.16.840.1.113883.6.238","code":"1002-5","display":"American Indian or Alaska Native","userSelected":true}},{"url":"text","valueString":"American Indian or Alaska Native"}]},{"url":"http://hl7.org/fhir/us/core/StructureDefinition/us-core-ethnicity","extension":[{"url":"ombCategory","valueCoding":{"system":"urn:oid:2.16.840.1.113883.6.238","code":"2135-2","display":"Hispanic or Latino","userSelected":true}},{"url":"text","valueString":"Hispanic or Latino"}]},{"url":"http://hl7.org/fhir/us/core/StructureDefinition/us-core-sex","valueCode":"248153007"}],"identifier":[{"type":{"coding":[{"system":"http://terminology.hl7.org/CodeSystem/v2-0203","code":"MR"}]},"system":"http://bonnie-fhir.healthit.gov/","value":"DENOMPass-RVAllDiagnosesPOA"}],"active":true,"name":[{"use":"usual","family":"DENOMPass","given":["RVAllDiagnosesPOA"]}],"gender":"male","birthDate":"1983-10-10"},"request":{"method":"PUT","url":"Patient/212b0826-d939-4c4a-8c8f-c711bf5d9e44"}},{"fullUrl":"https://madie.cms.gov/Observation/370cda11-6948-4b2d-8921-00f14acc88dd","resource":{"resourceType":"Observation","id":"370cda11-6948-4b2d-8921-00f14acc88dd","meta":{"profile":["http://hl7.org/fhir/us/qicore/StructureDefinition/qicore-observation-lab"]},"status":"final","category":[{"coding":[{"system":"http://terminology.hl7.org/CodeSystem/observation-category","code":"laboratory","display":"Laboratory"}]}],"code":{"coding":[{"system":"http://loinc.org","code":"2160-0","display":"Creatinine [Mass/volume] in Serum or Plasma"}]},"subject":{"reference":"Patient/212b0826-d939-4c4a-8c8f-c711bf5d9e44"},"effectiveDateTime":"2026-09-29T09:00:00.000+00:00","issued":"2026-09-29T09:30:00.000+00:00","valueQuantity":{"value":0.9,"unit":"mg/dL","system":"http://unitsofmeasure.org","code":"mg/dL"}},"request":{"method":"PUT","url":"Observation/370cda11-6948-4b2d-8921-00f14acc88dd"}},{"fullUrl":"https://madie.cms.gov/Observation/e80f344f-6e7e-4021-b171-1aca72c5963d","resource":{"resourceType":"Observation","id":"e80f344f-6e7e-4021-b171-1aca72c5963d","meta":{"profile":["http://hl7.org/fhir/us/qicore/StructureDefinition/qicore-observation-lab"]},"status":"final","category":[{"coding":[{"system":"http://terminology.hl7.org/CodeSystem/observation-category","code":"laboratory","display":"Laboratory"}]}],"code":{"coding":[{"system":"http://loinc.org","version":"2.72","code":"2160-0","display":"Creatinine [Mass/volume] in Serum or Plasma","userSelected":true}]},"subject":{"reference":"Patient/212b0826-d939-4c4a-8c8f-c711bf5d9e44"},"effectiveDateTime":"2026-09-30T07:35:00.000+00:00","issued":"2026-09-30T08:00:00.000+00:00","valueQuantity":{"value":0.9,"unit":"mg/dL","system":"http://unitsofmeasure.org","code":"mg/dL"}},"request":{"method":"PUT","url":"Observation/e80f344f-6e7e-4021-b171-1aca72c5963d"}},{"fullUrl":"https://madie.cms.gov/Observation/0d64218a-e0e9-4107-b113-c1e37a94b4ce","resource":{"resourceType":"Observation","id":"0d64218a-e0e9-4107-b113-c1e37a94b4ce","meta":{"profile":["http://hl7.org/fhir/us/qicore/StructureDefinition/qicore-observation-lab"]},"status":"final","category":[{"coding":[{"system":"http://terminology.hl7.org/CodeSystem/observation-category","code":"laboratory","display":"Laboratory"}]}],"code":{"coding":[{"system":"http://loinc.org","version":"2.72","code":"2160-0","display":"Creatinine [Mass/volume] in Serum or Plasma","userSelected":true}]},"subject":{"reference":"Patient/212b0826-d939-4c4a-8c8f-c711bf5d9e44"},"effectiveDateTime":"2026-10-01T08:01:00.000+00:00","issued":"2026-10-01T08:31:00.000+00:00","valueQuantity":{"value":0.9,"unit":"mg/dL","system":"http://unitsofmeasure.org","code":"mg/dL"}},"request":{"method":"PUT","url":"Observation/0d64218a-e0e9-4107-b113-c1e37a94b4ce"}},{"fullUrl":"https://madie.cms.gov/Encounter/c056c017-9718-4104-b30c-acd0d6b37442","resource":{"resourceType":"Encounter","id":"c056c017-9718-4104-b30c-acd0d6b37442","meta":{"profile":["http://hl7.org/fhir/us/qicore/StructureDefinition/qicore-encounter"]},"status":"finished","class":{"system":"http://terminology.hl7.org/CodeSystem/v3-ActCode","code":"IMP","display":"inpatient encounter"},"type":[{"coding":[{"system":"http://snomed.info/sct","code":"183452005","display":"Emergency hospital admission (procedure)"}]}],"subject":{"reference":"Patient/212b0826-d939-4c4a-8c8f-c711bf5d9e44"},"period":{"start":"2026-09-29T08:00:00.000+00:00","end":"2026-10-03T20:00:00.000+00:00"},"diagnosis":[{"extension":[{"url":"http://hl7.org/fhir/us/qicore/StructureDefinition/qicore-encounter-diagnosisPresentOnAdmission","valueCodeableConcept":{"coding":[{"system":"https://www.cms.gov/Medicare/Medicare-Fee-for-Service-Payment/HospitalAcqCond/Coding","code":"Y"}]}}],"condition":{"reference":"Condition/5ca58b93-fdc8-4a6e-8fdb-b4c24da4347d"},"use":{"coding":[{"system":"http://hl7.org/fhir/diagnosis-role","code":"billing","display":"Billing"}]},"rank":1}]},"request":{"method":"PUT","url":"Encounter/c056c017-9718-4104-b30c-acd0d6b37442"}},{"fullUrl":"https://madie.cms.gov/Organization/f480d431-b941-4820-868b-f0ded88d94f7","resource":{"resourceType":"Organization","id":"f480d431-b941-4820-868b-f0ded88d94f7","meta":{"profile":["http://hl7.org/fhir/us/qicore/StructureDefinition/qicore-organization"]},"identifier":[{"use":"temp","system":"urn:oid:2.16.840.1.113883.4.4","value":"21-3259825"}],"active":true,"type":[{"coding":[{"system":"http://terminology.hl7.org/CodeSystem/organization-type","code":"pay","display":"Payer"}]}],"name":"Blue Cross Blue Shield of Texas","telecom":[{"system":"phone","value":"(+1) 972-766-6900"}],"address":[{"use":"billing","type":"postal","line":["P.O. Box 660044"],"city":"Dallas","state":"TX","postalCode":"75266-0044","country":"USA"}]},"request":{"method":"PUT","url":"Organization/f480d431-b941-4820-868b-f0ded88d94f7"}},{"fullUrl":"https://madie.cms.gov/Coverage/a70eed57-f31a-4c7a-ba0e-7232a3d02ef5","resource":{"resourceType":"Coverage","id":"a70eed57-f31a-4c7a-ba0e-7232a3d02ef5","meta":{"profile":["http://hl7.org/fhir/us/qicore/StructureDefinition/qicore-coverage"]},"status":"active","type":{"coding":[{"system":"https://nahdo.org/sopt","version":"9.2","code":"211","display":"Medicaid HMO"}]},"beneficiary":{"reference":"Patient/212b0826-d939-4c4a-8c8f-c711bf5d9e44"},"period":{"start":"2024-12-01T00:00:00.000+00:00"},"payor":[{"reference":"Organization/f480d431-b941-4820-868b-f0ded88d94f7"}]},"request":{"method":"PUT","url":"Coverage/a70eed57-f31a-4c7a-ba0e-7232a3d02ef5"}},{"fullUrl":"https://madie.cms.gov/MeasureReport/c8a3f64d-11ac-46bc-b96c-e66b53aaf324","resource":{"resourceType":"MeasureReport","id":"c8a3f64d-11ac-46bc-b96c-e66b53aaf324","meta":{"profile":["http://hl7.org/fhir/us/cqfmeasures/StructureDefinition/test-case-cqfm"]},"contained":[{"resourceType":"Parameters","id":"d0165583-0333-49e9-a1a1-b9a4a9dca1f9-parameters","parameter":[{"name":"subject","valueString":"212b0826-d939-4c4a-8c8f-c711bf5d9e44"}]}],"extension":[{"url":"http://hl7.org/fhir/us/cqfmeasures/StructureDefinition/cqfm-inputParameters","valueReference":{"reference":"#d0165583-0333-49e9-a1a1-b9a4a9dca1f9-parameters"}},{"url":"http://hl7.org/fhir/us/cqfmeasures/StructureDefinition/cqfm-testCaseDescription","valueMarkdown":"DENOMPass-RVAllDiagnosesPOA E08.01 Diabetes mellitus due to underlying condition with hyperosmolarity with coma but POA logic/json not generating RV tuple"}],"modifierExtension":[{"url":"http://hl7.org/fhir/us/cqfmeasures/StructureDefinition/cqfm-isTestCase","valueBoolean":true}],"status":"complete","type":"individual","measure":"https://madie.cms.gov/Measure/CMS832HHAKIFHIR","period":{"start":"2026-01-01","end":"2026-12-31"},"group":[{"id":"67b50f879214df46de2f1fdb","population":[{"id":"DA0D3694-7F57-4FB9-8410-1F64E44CA01E","code":{"coding":[{"system":"http://terminology.hl7.org/CodeSystem/measure-population","code":"initial-population","display":"Initial Population"}]},"count":1},{"id":"624D8554-9CB0-4BF0-882D-05C4F88BCC2C","code":{"coding":[{"system":"http://terminology.hl7.org/CodeSystem/measure-population","code":"denominator","display":"Denominator"}]},"count":1},{"id":"000FF050-D4A2-4C8B-8123-4538D35D5441","code":{"coding":[{"system":"http://terminology.hl7.org/CodeSystem/measure-population","code":"denominator-exclusion","display":"Denominator Exclusion"}]},"count":0},{"id":"01644D07-D9F8-403E-A66D-109ABA29BB6E","code":{"coding":[{"system":"http://terminology.hl7.org/CodeSystem/measure-population","code":"numerator","display":"Numerator"}]},"count":0}],"measureScore":{"value":0}}],"evaluatedResource":[{"reference":"Patient/212b0826-d939-4c4a-8c8f-c711bf5d9e44"},{"reference":"Encounter/c056c017-9718-4104-b30c-acd0d6b37442"},{"reference":"Condition/5ca58b93-fdc8-4a6e-8fdb-b4c24da4347d"},{"reference":"Observation/0d64218a-e0e9-4107-b113-c1e37a94b4ce"},{"reference":"Observation/370cda11-6948-4b2d-8921-00f14acc88dd"},{"reference":"Observation/e80f344f-6e7e-4021-b171-1aca72c5963d"},{"reference":"Coverage/a70eed57-f31a-4c7a-ba0e-7232a3d02ef5"},{"reference":"Organization/f480d431-b941-4820-868b-f0ded88d94f7"}]},"request":{"method":"PUT","url":"MeasureReport/c8a3f64d-11ac-46bc-b96c-e66b53aaf324"}},{"fullUrl":"https://madie.cms.gov/Condition/5ca58b93-fdc8-4a6e-8fdb-b4c24da4347d","resource":{"resourceType":"Condition","id":"5ca58b93-fdc8-4a6e-8fdb-b4c24da4347d","meta":{"profile":["http://hl7.org/fhir/us/qicore/StructureDefinition/qicore-condition"]},"clinicalStatus":{"coding":[{"system":"http://terminology.hl7.org/CodeSystem/condition-clinical","code":"active","display":"Active","userSelected":true}]},"verificationStatus":{"coding":[{"system":"http://terminology.hl7.org/CodeSystem/condition-ver-status","code":"confirmed","display":"Confirmed","userSelected":true}]},"category":[{"coding":[{"system":"http://terminology.hl7.org/CodeSystem/condition-category","code":"encounter-diagnosis","display":"Encounter Diagnosis","userSelected":true}]}],"code":{"coding":[{"system":"http://hl7.org/fhir/sid/icd-10-cm","code":"E08.01","display":"Diabetes mellitus due to underlying condition with hyperosmolarity with coma","userSelected":true}]},"subject":{"reference":"Patient/212b0826-d939-4c4a-8c8f-c711bf5d9e44"},"onsetPeriod":{"start":"2026-09-29T06:00:00.000+00:00"},"recordedDate":"2026-09-29T08:25:00.000+00:00"},"request":{"method":"PUT","url":"Condition/5ca58b93-fdc8-4a6e-8fdb-b4c24da4347d"}},{"fullUrl":"https://madie.cms.gov/MeasureReport/f3144f5e-4637-413a-a494-8ea30f7d5fec","resource":{"resourceType":"MeasureReport","id":"f3144f5e-4637-413a-a494-8ea30f7d5fec","meta":{"profile":["http://hl7.org/fhir/us/cqfmeasures/StructureDefinition/test-case-cqfm"]},"contained":[{"resourceType":"Parameters","id":"4a153c22-6b54-4a35-9152-7ed552ec0cf7-parameters","parameter":[{"name":"subject","valueString":"212b0826-d939-4c4a-8c8f-c711bf5d9e44"}]}],"extension":[{"url":"http://hl7.org/fhir/StructureDefinition/cqf-inputParameters","valueReference":{"reference":"#4a153c22-6b54-4a35-9152-7ed552ec0cf7-parameters"}},{"url":"http://hl7.org/fhir/us/cqfmeasures/StructureDefinition/cqfm-testCaseDescription","valueMarkdown":"DENOMPass-RVAllDiagnosesPOA E08.01 Diabetes mellitus due to underlying condition with hyperosmolarity with coma but POA logic/json not generating RV tuple"}],"modifierExtension":[{"url":"http://hl7.org/fhir/us/cqfmeasures/StructureDefinition/cqfm-isTestCase","valueBoolean":true}],"status":"complete","type":"individual","measure":"https://madie.cms.gov/Measure/CMS832HHAKIFHIR","period":{"start":"2026-01-01","end":"2026-12-31"},"group":[{"id":"Group_1","population":[{"id":"InitialPopulation_1","code":{"coding":[{"system":"http://terminology.hl7.org/CodeSystem/measure-population","code":"initial-population","display":"Initial Population"}]},"count":1},{"id":"Denominator_1","code":{"coding":[{"system":"http://terminology.hl7.org/CodeSystem/measure-population","code":"denominator","display":"Denominator"}]},"count":1},{"id":"DenominatorExclusion_1","code":{"coding":[{"system":"http://terminology.hl7.org/CodeSystem/measure-population","code":"denominator-exclusion","display":"Denominator Exclusion"}]},"count":0},{"id":"Numerator_1","code":{"coding":[{"system":"http://terminology.hl7.org/CodeSystem/measure-population","code":"numerator","display":"Numerator"}]},"count":0}],"measureScore":{"value":0.0}}],"evaluatedResource":[{"reference":"Patient/212b0826-d939-4c4a-8c8f-c711bf5d9e44"},{"reference":"Observation/370cda11-6948-4b2d-8921-00f14acc88dd"},{"reference":"Observation/e80f344f-6e7e-4021-b171-1aca72c5963d"},{"reference":"Observation/0d64218a-e0e9-4107-b113-c1e37a94b4ce"},{"reference":"Encounter/c056c017-9718-4104-b30c-acd0d6b37442"},{"reference":"Organization/f480d431-b941-4820-868b-f0ded88d94f7"},{"reference":"Coverage/a70eed57-f31a-4c7a-ba0e-7232a3d02ef5"},{"reference":"MeasureReport/c8a3f64d-11ac-46bc-b96c-e66b53aaf324"},{"reference":"Condition/5ca58b93-fdc8-4a6e-8fdb-b4c24da4347d"}]},"request":{"method":"PUT","url":"MeasureReport/f3144f5e-4637-413a-a494-8ea30f7d5fec"}}]},"request":{"method":"PUT","url":"Bundle/tests-212b0826-d939-4c4a-8c8f-c711bf5d9e44-bundle"}},{"resource":{"resourceType":"Observation","id":"370cda11-6948-4b2d-8921-00f14acc88dd","meta":{"profile":["http://hl7.org/fhir/us/qicore/StructureDefinition/qicore-observation-lab"]},"status":"final","category":[{"coding":[{"system":"http://terminology.hl7.org/CodeSystem/observation-category","code":"laboratory","display":"Laboratory"}]}],"code":{"coding":[{"system":"http://loinc.org","code":"2160-0","display":"Creatinine [Mass/volume] in Serum or Plasma"}]},"subject":{"reference":"Patient/212b0826-d939-4c4a-8c8f-c711bf5d9e44"},"effectiveDateTime":"2026-09-29T09:00:00.000+00:00","issued":"2026-09-29T09:30:00.000+00:00","valueQuantity":{"value":0.9,"unit":"mg/dL","system":"http://unitsofmeasure.org","code":"mg/dL"}},"request":{"method":"PUT","url":"Observation/370cda11-6948-4b2d-8921-00f14acc88dd"}}]}