{"resourceType":"Bundle","id":"tests-8e6f4888-d030-4317-affc-b6a1c00a18cc-bundle","type":"transaction","entry":[{"fullUrl":"Observation/371d4fc5-2100-4632-a997-c41baf19a8c4","resource":{"resourceType":"Observation","id":"371d4fc5-2100-4632-a997-c41baf19a8c4","meta":{"profile":["http://hl7.org/fhir/us/qicore/StructureDefinition/qicore-observation-lab"]},"status":"final","category":[{"coding":[{"system":"http://terminology.hl7.org/CodeSystem/observation-category","code":"laboratory","display":"Laboratory"}]}],"code":{"coding":[{"system":"http://loinc.org","version":"2.72","code":"21232-4","display":"Creatinine [Mass/volume] in Serum or Plasma"}]},"subject":{"reference":"Patient/8e6f4888-d030-4317-affc-b6a1c00a18cc"},"effectiveDateTime":"2026-12-17T08:01:00.000+00:00","valueQuantity":{"value":1,"unit":"mg/dL","system":"http://unitsofmeasure.org","code":"mg/dL"}},"request":{"method":"PUT","url":"Observation/371d4fc5-2100-4632-a997-c41baf19a8c4"}},{"fullUrl":"Patient/8e6f4888-d030-4317-affc-b6a1c00a18cc","resource":{"resourceType":"Patient","id":"8e6f4888-d030-4317-affc-b6a1c00a18cc","meta":{"profile":["http://hl7.org/fhir/us/qicore/StructureDefinition/qicore-patient"]},"extension":[{"url":"http://hl7.org/fhir/us/core/StructureDefinition/us-core-race","extension":[{"url":"ombCategory","valueCoding":{"system":"urn:oid:2.16.840.1.113883.6.238","code":"2106-3","display":"White"}},{"url":"text","valueString":"White"}]},{"url":"http://hl7.org/fhir/us/core/StructureDefinition/us-core-ethnicity","extension":[{"url":"ombCategory","valueCoding":{"system":"urn:oid:2.16.840.1.113883.6.238","code":"2135-2","display":"Hispanic or Latino"}},{"url":"text","valueString":"Hispanic or Latino"}]},{"url":"http://hl7.org/fhir/us/core/StructureDefinition/us-core-sex","valueCode":"248153007"}],"identifier":[{"system":"http://hospital.smarthealthit.org","value":"999999999"}],"name":[{"family":"Example","given":["Patient"]}],"gender":"male","birthDate":"1956-01-01"},"request":{"method":"PUT","url":"Patient/8e6f4888-d030-4317-affc-b6a1c00a18cc"}},{"fullUrl":"Encounter/3a91ee06-2a82-48ab-a1b3-db43ea4f7a63","resource":{"resourceType":"Encounter","id":"3a91ee06-2a82-48ab-a1b3-db43ea4f7a63","meta":{"profile":["http://hl7.org/fhir/us/qicore/StructureDefinition/qicore-encounter"]},"status":"finished","class":{"system":"http://terminology.hl7.org/CodeSystem/v3-ActCode","code":"IMP","display":"inpatient encounter"},"type":[{"coding":[{"system":"http://snomed.info/sct","code":"183452005"}]}],"subject":{"reference":"Patient/8e6f4888-d030-4317-affc-b6a1c00a18cc"},"period":{"start":"2026-12-16T08:00:00.000+00:00","end":"2026-12-24T08:15:00.000+00:00"}},"request":{"method":"PUT","url":"Encounter/3a91ee06-2a82-48ab-a1b3-db43ea4f7a63"}},{"fullUrl":"Observation/0dc582da-34c2-4ad7-af72-72ad96f7a9f9","resource":{"resourceType":"Observation","id":"0dc582da-34c2-4ad7-af72-72ad96f7a9f9","meta":{"profile":["http://hl7.org/fhir/us/qicore/StructureDefinition/qicore-observation-lab"]},"status":"final","category":[{"coding":[{"system":"http://terminology.hl7.org/CodeSystem/observation-category","code":"laboratory","display":"Laboratory"}]}],"code":{"coding":[{"system":"http://loinc.org","version":"2.72","code":"21232-4","display":"Creatinine [Mass/volume] in Serum or Plasma"}]},"subject":{"reference":"Patient/8e6f4888-d030-4317-affc-b6a1c00a18cc"},"effectiveDateTime":"2026-12-18T08:01:00.000+00:00","valueQuantity":{"value":1,"unit":"mg/dL","system":"http://unitsofmeasure.org","code":"mg/dL"}},"request":{"method":"PUT","url":"Observation/0dc582da-34c2-4ad7-af72-72ad96f7a9f9"}},{"fullUrl":"Bundle/tests-DENEXFail-TestCase-DialysisAfter48Hrs","resource":{"resourceType":"Bundle","id":"tests-DENEXFail-TestCase-DialysisAfter48Hrs","type":"transaction","entry":[{"fullUrl":"https://madie.cms.gov/Procedure/921a32f0-6071-485f-81bb-05ff5a2cfe6e","resource":{"resourceType":"Procedure","id":"921a32f0-6071-485f-81bb-05ff5a2cfe6e","meta":{"profile":["http://hl7.org/fhir/us/qicore/StructureDefinition/qicore-procedure"]},"status":"completed","code":{"coding":[{"system":"http://snomed.info/sct","code":"11932001"}]},"subject":{"reference":"Patient/8e6f4888-d030-4317-affc-b6a1c00a18cc"},"performedDateTime":"2026-12-19T08:00:00.000+00:00","performer":[{"actor":{"reference":"Practitioner/Practitioner-1"}}]},"request":{"method":"PUT","url":"Procedure/921a32f0-6071-485f-81bb-05ff5a2cfe6e"}},{"fullUrl":"https://madie.cms.gov/Observation/18028d74-77a1-4ff2-a801-d91340cf3eaf","resource":{"resourceType":"Observation","id":"18028d74-77a1-4ff2-a801-d91340cf3eaf","meta":{"profile":["http://hl7.org/fhir/us/qicore/StructureDefinition/qicore-observation-lab"]},"status":"final","category":[{"coding":[{"system":"http://terminology.hl7.org/CodeSystem/observation-category","code":"laboratory","display":"Laboratory"}]}],"code":{"coding":[{"system":"http://loinc.org","version":"2.72","code":"21232-4","display":"Creatinine [Mass/volume] in Serum or Plasma"}]},"subject":{"reference":"Patient/8e6f4888-d030-4317-affc-b6a1c00a18cc"},"effectiveDateTime":"2026-12-16T08:01:00.000+00:00","valueQuantity":{"value":1,"unit":"mg/dL","system":"http://unitsofmeasure.org","code":"mg/dL"}},"request":{"method":"PUT","url":"Observation/18028d74-77a1-4ff2-a801-d91340cf3eaf"}},{"fullUrl":"https://madie.cms.gov/Encounter/3a91ee06-2a82-48ab-a1b3-db43ea4f7a63","resource":{"resourceType":"Encounter","id":"3a91ee06-2a82-48ab-a1b3-db43ea4f7a63","meta":{"profile":["http://hl7.org/fhir/us/qicore/StructureDefinition/qicore-encounter"]},"status":"finished","class":{"system":"http://terminology.hl7.org/CodeSystem/v3-ActCode","code":"IMP","display":"inpatient encounter"},"type":[{"coding":[{"system":"http://snomed.info/sct","code":"183452005"}]}],"subject":{"reference":"Patient/8e6f4888-d030-4317-affc-b6a1c00a18cc"},"period":{"start":"2026-12-16T08:00:00.000+00:00","end":"2026-12-24T08:15:00.000+00:00"}},"request":{"method":"PUT","url":"Encounter/3a91ee06-2a82-48ab-a1b3-db43ea4f7a63"}},{"fullUrl":"https://madie.cms.gov/Observation/0dc582da-34c2-4ad7-af72-72ad96f7a9f9","resource":{"resourceType":"Observation","id":"0dc582da-34c2-4ad7-af72-72ad96f7a9f9","meta":{"profile":["http://hl7.org/fhir/us/qicore/StructureDefinition/qicore-observation-lab"]},"status":"final","category":[{"coding":[{"system":"http://terminology.hl7.org/CodeSystem/observation-category","code":"laboratory","display":"Laboratory"}]}],"code":{"coding":[{"system":"http://loinc.org","version":"2.72","code":"21232-4","display":"Creatinine [Mass/volume] in Serum or Plasma"}]},"subject":{"reference":"Patient/8e6f4888-d030-4317-affc-b6a1c00a18cc"},"effectiveDateTime":"2026-12-18T08:01:00.000+00:00","valueQuantity":{"value":1,"unit":"mg/dL","system":"http://unitsofmeasure.org","code":"mg/dL"}},"request":{"method":"PUT","url":"Observation/0dc582da-34c2-4ad7-af72-72ad96f7a9f9"}},{"fullUrl":"https://madie.cms.gov/Observation/371d4fc5-2100-4632-a997-c41baf19a8c4","resource":{"resourceType":"Observation","id":"371d4fc5-2100-4632-a997-c41baf19a8c4","meta":{"profile":["http://hl7.org/fhir/us/qicore/StructureDefinition/qicore-observation-lab"]},"status":"final","category":[{"coding":[{"system":"http://terminology.hl7.org/CodeSystem/observation-category","code":"laboratory","display":"Laboratory"}]}],"code":{"coding":[{"system":"http://loinc.org","version":"2.72","code":"21232-4","display":"Creatinine [Mass/volume] in Serum or Plasma"}]},"subject":{"reference":"Patient/8e6f4888-d030-4317-affc-b6a1c00a18cc"},"effectiveDateTime":"2026-12-17T08:01:00.000+00:00","valueQuantity":{"value":1,"unit":"mg/dL","system":"http://unitsofmeasure.org","code":"mg/dL"}},"request":{"method":"PUT","url":"Observation/371d4fc5-2100-4632-a997-c41baf19a8c4"}},{"fullUrl":"https://madie.cms.gov/Patient/8e6f4888-d030-4317-affc-b6a1c00a18cc","resource":{"resourceType":"Patient","id":"8e6f4888-d030-4317-affc-b6a1c00a18cc","meta":{"profile":["http://hl7.org/fhir/us/qicore/StructureDefinition/qicore-patient"]},"extension":[{"url":"http://hl7.org/fhir/us/core/StructureDefinition/us-core-race","extension":[{"url":"ombCategory","valueCoding":{"system":"urn:oid:2.16.840.1.113883.6.238","code":"2106-3","display":"White"}},{"url":"text","valueString":"White"}]},{"url":"http://hl7.org/fhir/us/core/StructureDefinition/us-core-ethnicity","extension":[{"url":"ombCategory","valueCoding":{"system":"urn:oid:2.16.840.1.113883.6.238","code":"2135-2","display":"Hispanic or Latino"}},{"url":"text","valueString":"Hispanic or Latino"}]},{"url":"http://hl7.org/fhir/us/core/StructureDefinition/us-core-sex","valueCode":"248153007"}],"identifier":[{"system":"http://hospital.smarthealthit.org","value":"999999999"}],"name":[{"family":"Example","given":["Patient"]}],"gender":"male","birthDate":"1956-01-01"},"request":{"method":"PUT","url":"Patient/8e6f4888-d030-4317-affc-b6a1c00a18cc"}},{"fullUrl":"https://madie.cms.gov/MeasureReport/5785e493-d129-45e3-a639-42092474807b","resource":{"resourceType":"MeasureReport","id":"5785e493-d129-45e3-a639-42092474807b","meta":{"profile":["http://hl7.org/fhir/us/cqfmeasures/StructureDefinition/test-case-cqfm"]},"contained":[{"resourceType":"Parameters","id":"603d7ad0-d0ef-4961-81fb-1b7997cab136-parameters","parameter":[{"name":"subject","valueString":"8e6f4888-d030-4317-affc-b6a1c00a18cc"}]}],"extension":[{"url":"http://hl7.org/fhir/StructureDefinition/cqf-inputParameters","valueReference":{"reference":"#603d7ad0-d0ef-4961-81fb-1b7997cab136-parameters"}},{"url":"http://hl7.org/fhir/us/cqfmeasures/StructureDefinition/cqfm-testCaseDescription","valueMarkdown":"IP encounter with Dialysis after 48 hours of encounter start. Meets Numerator."}],"modifierExtension":[{"url":"http://hl7.org/fhir/us/cqfmeasures/StructureDefinition/cqfm-isTestCase","valueBoolean":true}],"status":"complete","type":"individual","measure":"https://madie.cms.gov/Measure/CMS832HHAKIFHIR","period":{"start":"2026-01-01","end":"2026-12-31"},"group":[{"id":"Group_1","population":[{"id":"InitialPopulation_1","code":{"coding":[{"system":"http://terminology.hl7.org/CodeSystem/measure-population","code":"initial-population","display":"Initial Population"}]},"count":1},{"id":"Denominator_1","code":{"coding":[{"system":"http://terminology.hl7.org/CodeSystem/measure-population","code":"denominator","display":"Denominator"}]},"count":1},{"id":"DenominatorExclusion_1","code":{"coding":[{"system":"http://terminology.hl7.org/CodeSystem/measure-population","code":"denominator-exclusion","display":"Denominator Exclusion"}]},"count":0},{"id":"Numerator_1","code":{"coding":[{"system":"http://terminology.hl7.org/CodeSystem/measure-population","code":"numerator","display":"Numerator"}]},"count":1}],"measureScore":{"value":0.0}}],"evaluatedResource":[{"reference":"Procedure/921a32f0-6071-485f-81bb-05ff5a2cfe6e"},{"reference":"Observation/18028d74-77a1-4ff2-a801-d91340cf3eaf"},{"reference":"Encounter/3a91ee06-2a82-48ab-a1b3-db43ea4f7a63"},{"reference":"Observation/0dc582da-34c2-4ad7-af72-72ad96f7a9f9"},{"reference":"Observation/371d4fc5-2100-4632-a997-c41baf19a8c4"},{"reference":"Patient/8e6f4888-d030-4317-affc-b6a1c00a18cc"}]},"request":{"method":"PUT","url":"MeasureReport/5785e493-d129-45e3-a639-42092474807b"}}]},"request":{"method":"PUT","url":"Bundle/tests-DENEXFail-TestCase-DialysisAfter48Hrs"}},{"fullUrl":"Observation/18028d74-77a1-4ff2-a801-d91340cf3eaf","resource":{"resourceType":"Observation","id":"18028d74-77a1-4ff2-a801-d91340cf3eaf","meta":{"profile":["http://hl7.org/fhir/us/qicore/StructureDefinition/qicore-observation-lab"]},"status":"final","category":[{"coding":[{"system":"http://terminology.hl7.org/CodeSystem/observation-category","code":"laboratory","display":"Laboratory"}]}],"code":{"coding":[{"system":"http://loinc.org","version":"2.72","code":"21232-4","display":"Creatinine [Mass/volume] in Serum or Plasma"}]},"subject":{"reference":"Patient/8e6f4888-d030-4317-affc-b6a1c00a18cc"},"effectiveDateTime":"2026-12-16T08:01:00.000+00:00","valueQuantity":{"value":1,"unit":"mg/dL","system":"http://unitsofmeasure.org","code":"mg/dL"}},"request":{"method":"PUT","url":"Observation/18028d74-77a1-4ff2-a801-d91340cf3eaf"}},{"fullUrl":"MeasureReport/5785e493-d129-45e3-a639-42092474807b","resource":{"resourceType":"MeasureReport","id":"5785e493-d129-45e3-a639-42092474807b","meta":{"profile":["http://hl7.org/fhir/us/cqfmeasures/StructureDefinition/test-case-cqfm"]},"contained":[{"resourceType":"Parameters","id":"603d7ad0-d0ef-4961-81fb-1b7997cab136-parameters","parameter":[{"name":"subject","valueString":"8e6f4888-d030-4317-affc-b6a1c00a18cc"}]}],"extension":[{"url":"http://hl7.org/fhir/StructureDefinition/cqf-inputParameters","valueReference":{"reference":"#603d7ad0-d0ef-4961-81fb-1b7997cab136-parameters"}},{"url":"http://hl7.org/fhir/us/cqfmeasures/StructureDefinition/cqfm-testCaseDescription","valueMarkdown":"IP encounter with Dialysis after 48 hours of encounter start. Meets Numerator."}],"modifierExtension":[{"url":"http://hl7.org/fhir/us/cqfmeasures/StructureDefinition/cqfm-isTestCase","valueBoolean":true}],"status":"complete","type":"individual","measure":"https://madie.cms.gov/Measure/CMS832HHAKIFHIR","period":{"start":"2026-01-01","end":"2026-12-31"},"group":[{"id":"Group_1","population":[{"id":"InitialPopulation_1","code":{"coding":[{"system":"http://terminology.hl7.org/CodeSystem/measure-population","code":"initial-population","display":"Initial Population"}]},"count":1},{"id":"Denominator_1","code":{"coding":[{"system":"http://terminology.hl7.org/CodeSystem/measure-population","code":"denominator","display":"Denominator"}]},"count":1},{"id":"DenominatorExclusion_1","code":{"coding":[{"system":"http://terminology.hl7.org/CodeSystem/measure-population","code":"denominator-exclusion","display":"Denominator Exclusion"}]},"count":0},{"id":"Numerator_1","code":{"coding":[{"system":"http://terminology.hl7.org/CodeSystem/measure-population","code":"numerator","display":"Numerator"}]},"count":1}],"measureScore":{"value":0.0}}],"evaluatedResource":[{"reference":"Procedure/921a32f0-6071-485f-81bb-05ff5a2cfe6e"},{"reference":"Observation/18028d74-77a1-4ff2-a801-d91340cf3eaf"},{"reference":"Encounter/3a91ee06-2a82-48ab-a1b3-db43ea4f7a63"},{"reference":"Observation/0dc582da-34c2-4ad7-af72-72ad96f7a9f9"},{"reference":"Observation/371d4fc5-2100-4632-a997-c41baf19a8c4"},{"reference":"Patient/8e6f4888-d030-4317-affc-b6a1c00a18cc"}]},"request":{"method":"PUT","url":"MeasureReport/5785e493-d129-45e3-a639-42092474807b"}},{"fullUrl":"Procedure/921a32f0-6071-485f-81bb-05ff5a2cfe6e","resource":{"resourceType":"Procedure","id":"921a32f0-6071-485f-81bb-05ff5a2cfe6e","meta":{"profile":["http://hl7.org/fhir/us/qicore/StructureDefinition/qicore-procedure"]},"status":"completed","code":{"coding":[{"system":"http://snomed.info/sct","code":"11932001"}]},"subject":{"reference":"Patient/8e6f4888-d030-4317-affc-b6a1c00a18cc"},"performedDateTime":"2026-12-19T08:00:00.000+00:00","performer":[{"actor":{"reference":"Practitioner/Practitioner-1"}}]},"request":{"method":"PUT","url":"Procedure/921a32f0-6071-485f-81bb-05ff5a2cfe6e"}}]}