{
  "resourceType": "Bundle",
  "id": "62bc69333e113102f8cedca6",
  "type": "transaction",
  "entry": [ {
    "fullUrl": "https://madie.cms.gov/Patient/84f231b5-15be-4527-a9db-4209e99954db",
    "resource": {
      "resourceType": "Patient",
      "id": "84f231b5-15be-4527-a9db-4209e99954db",
      "meta": {
        "profile": [ "http://hl7.org/fhir/us/qicore/StructureDefinition/qicore-patient" ]
      },
      "extension": [ {
        "url": "http://hl7.org/fhir/us/core/StructureDefinition/us-core-race",
        "extension": [ {
          "url": "ombCategory",
          "valueCoding": {
            "system": "urn:oid:2.16.840.1.113883.6.238",
            "code": "1002-5",
            "display": "American Indian or Alaska Native"
          }
        }, {
          "url": "text",
          "valueString": "American Indian or Alaska Native"
        } ]
      }, {
        "url": "http://hl7.org/fhir/us/core/StructureDefinition/us-core-ethnicity",
        "extension": [ {
          "url": "ombCategory",
          "valueCoding": {
            "system": "urn:oid:2.16.840.1.113883.6.238",
            "code": "2135-2",
            "display": "Hispanic or Latino"
          }
        }, {
          "url": "text",
          "valueString": "Hispanic or Latino"
        } ]
      } ],
      "identifier": [ {
        "type": {
          "coding": [ {
            "system": "http://terminology.hl7.org/CodeSystem/v2-0203",
            "code": "MR"
          } ]
        },
        "system": "https://bonnie-fhir.healthit.gov/",
        "value": "62bc69333e113102f8cedca6"
      } ],
      "name": [ {
        "family": "DENEXPass",
        "given": [ "Cystectomy1DayBeforeStagingEdge" ]
      } ],
      "gender": "female",
      "birthDate": "1947-02-01"
    },
    "request": {
      "method": "PUT",
      "url": "Patient/84f231b5-15be-4527-a9db-4209e99954db"
    }
  }, {
    "fullUrl": "https://madie.cms.gov/Encounter/b1ff3d88-a43a-40f4-bab1-d6e844d10abd",
    "resource": {
      "resourceType": "Encounter",
      "id": "b1ff3d88-a43a-40f4-bab1-d6e844d10abd",
      "meta": {
        "profile": [ "http://hl7.org/fhir/us/qicore/StructureDefinition/qicore-encounter" ]
      },
      "status": "finished",
      "class": {
        "system": "http://terminology.hl7.org/CodeSystem/v3-ActCode",
        "code": "AMB",
        "display": "ambulatory"
      },
      "type": [ {
        "coding": [ {
          "system": "http://snomed.info/sct",
          "version": "http://snomed.info/sct/731000124108/version/20240301",
          "code": "185463005",
          "display": "Visit out of hours (procedure)"
        } ]
      } ],
      "subject": {
        "reference": "Patient/84f231b5-15be-4527-a9db-4209e99954db"
      },
      "period": {
        "start": "2026-12-30T08:00:00.000+00:00",
        "end": "2026-12-30T09:15:00.000+00:00"
      }
    },
    "request": {
      "method": "PUT",
      "url": "Encounter/b1ff3d88-a43a-40f4-bab1-d6e844d10abd"
    }
  }, {
    "fullUrl": "https://madie.cms.gov/Procedure/e2f2c4ff-6f4b-4886-b5c8-a7d6f8f637ec",
    "resource": {
      "resourceType": "Procedure",
      "id": "e2f2c4ff-6f4b-4886-b5c8-a7d6f8f637ec",
      "meta": {
        "profile": [ "http://hl7.org/fhir/us/qicore/StructureDefinition/qicore-procedure" ]
      },
      "extension": [ {
        "url": "http://hl7.org/fhir/us/qicore/StructureDefinition/qicore-recorded",
        "valueDateTime": "2026-06-29T08:00:00.000+00:00"
      } ],
      "status": "completed",
      "code": {
        "coding": [ {
          "system": "http://www.ama-assn.org/go/cpt",
          "version": "2024",
          "code": "51585",
          "display": "Cystectomy Done",
          "userSelected": true
        } ]
      },
      "subject": {
        "reference": "Patient/84f231b5-15be-4527-a9db-4209e99954db"
      },
      "performedPeriod": {
        "start": "2026-06-29T08:00:00.000+00:00",
        "end": "2026-06-29T08:15:00.000+00:00"
      }
    },
    "request": {
      "method": "PUT",
      "url": "Procedure/e2f2c4ff-6f4b-4886-b5c8-a7d6f8f637ec"
    }
  }, {
    "fullUrl": "https://madie.cms.gov/Condition/e16780f1-d19a-40b1-a629-ed67f2ef5898",
    "resource": {
      "resourceType": "Condition",
      "id": "e16780f1-d19a-40b1-a629-ed67f2ef5898",
      "meta": {
        "profile": [ "http://hl7.org/fhir/us/qicore/StructureDefinition/qicore-condition-problems-health-concerns" ]
      },
      "clinicalStatus": {
        "coding": [ {
          "system": "http://terminology.hl7.org/CodeSystem/condition-clinical",
          "code": "active",
          "display": "Active"
        } ]
      },
      "verificationStatus": {
        "coding": [ {
          "system": "http://terminology.hl7.org/CodeSystem/condition-ver-status",
          "code": "confirmed",
          "display": "Confirmed"
        } ]
      },
      "category": [ {
        "coding": [ {
          "system": "http://terminology.hl7.org/CodeSystem/condition-category",
          "code": "problem-list-item",
          "display": "Problem List Item"
        } ]
      } ],
      "code": {
        "coding": [ {
          "system": "http://hl7.org/fhir/sid/icd-10-cm",
          "version": "2024",
          "code": "C67.3",
          "display": "Malignant neoplasm of anterior wall of bladder"
        } ]
      },
      "subject": {
        "reference": "Patient/84f231b5-15be-4527-a9db-4209e99954db"
      },
      "onsetDateTime": "2026-06-30T08:00:00.000+00:00"
    },
    "request": {
      "method": "PUT",
      "url": "Condition/e16780f1-d19a-40b1-a629-ed67f2ef5898"
    }
  }, {
    "fullUrl": "https://madie.cms.gov/Observation/006ce71f-06c1-4bab-a5f7-49aa814d9178",
    "resource": {
      "resourceType": "Observation",
      "id": "006ce71f-06c1-4bab-a5f7-49aa814d9178",
      "meta": {
        "profile": [ "http://hl7.org/fhir/us/qicore/StructureDefinition/qicore-observation-lab" ]
      },
      "partOf": [ {
        "reference": "Procedure/e2f2c4ff-6f4b-4886-b5c8-a7d6f8f637ec"
      } ],
      "status": "final",
      "category": [ {
        "coding": [ {
          "system": "http://terminology.hl7.org/CodeSystem/observation-category",
          "code": "procedure",
          "display": "Procedure"
        } ]
      } ],
      "code": {
        "coding": [ {
          "system": "http://loinc.org",
          "version": "2.76",
          "code": "21902-2",
          "display": "Stage group.pathology Cancer"
        } ]
      },
      "subject": {
        "reference": "Patient/84f231b5-15be-4527-a9db-4209e99954db"
      },
      "effectivePeriod": {
        "start": "2026-06-30T08:00:00.000+00:00",
        "end": "2026-06-30T08:15:00.000+00:00"
      },
      "issued": "2026-06-30T08:15:00.000+00:00",
      "valueCodeableConcept": {
        "coding": [ {
          "system": "http://snomed.info/sct",
          "version": "http://snomed.info/sct/731000124108/version/20240301",
          "code": "1228883000",
          "display": "American Joint Committee on Cancer cTa (qualifier value)"
        } ]
      }
    },
    "request": {
      "method": "PUT",
      "url": "Observation/006ce71f-06c1-4bab-a5f7-49aa814d9178"
    }
  }, {
    "fullUrl": "https://madie.cms.gov/Practitioner/7014404b-1069-4771-971b-6926242f1e57",
    "resource": {
      "resourceType": "Practitioner",
      "id": "7014404b-1069-4771-971b-6926242f1e57",
      "meta": {
        "profile": [ "http://hl7.org/fhir/us/qicore/StructureDefinition/qicore-practitioner" ]
      },
      "identifier": [ {
        "use": "temp",
        "system": "urn:oid:2.16.840.1.113883.4.336",
        "value": "Practitioner-23"
      } ],
      "active": true,
      "name": [ {
        "family": "Careful",
        "given": [ "Adam" ],
        "prefix": [ "Dr" ]
      } ],
      "address": [ {
        "use": "home",
        "line": [ "534 Erewhon St" ],
        "city": "PleasantVille",
        "state": "UT",
        "postalCode": "84414"
      } ],
      "qualification": [ {
        "identifier": [ {
          "system": "http://example.org/UniversityIdentifier",
          "value": "12345"
        } ],
        "code": {
          "coding": [ {
            "system": "http://terminology.hl7.org/CodeSystem/v2-0360|2.7",
            "code": "BS",
            "display": "Bachelor of Science"
          } ],
          "text": "Bachelor of Science"
        },
        "period": {
          "start": "1996"
        },
        "issuer": {
          "display": "Example University"
        }
      } ]
    },
    "request": {
      "method": "PUT",
      "url": "Practitioner/7014404b-1069-4771-971b-6926242f1e57"
    }
  }, {
    "fullUrl": "https://madie.cms.gov/Procedure/fbbf41fc-aa28-4c0d-a1fb-dbfeebafb8a1",
    "resource": {
      "resourceType": "Procedure",
      "id": "fbbf41fc-aa28-4c0d-a1fb-dbfeebafb8a1",
      "meta": {
        "profile": [ "http://hl7.org/fhir/us/qicore/StructureDefinition/qicore-procedure" ]
      },
      "extension": [ {
        "url": "http://hl7.org/fhir/us/qicore/StructureDefinition/qicore-recorded",
        "valueDateTime": "2026-06-30T08:00:00.000+00:00"
      } ],
      "status": "completed",
      "code": {
        "coding": [ {
          "system": "http://snomed.info/sct",
          "version": "http://snomed.info/sct/731000124108/version/20240301",
          "code": "254292007",
          "display": "Tumor staging",
          "userSelected": true
        } ]
      },
      "subject": {
        "reference": "Patient/84f231b5-15be-4527-a9db-4209e99954db"
      },
      "performedPeriod": {
        "start": "2026-06-30T08:00:00.000+00:00",
        "end": "2026-06-30T08:15:00.000+00:00"
      }
    },
    "request": {
      "method": "PUT",
      "url": "Procedure/fbbf41fc-aa28-4c0d-a1fb-dbfeebafb8a1"
    }
  }, {
    "fullUrl": "https://madie.cms.gov/MeasureReport/8b51bf0c-b248-4f55-b69e-685a02a1217b",
    "resource": {
      "resourceType": "MeasureReport",
      "id": "8b51bf0c-b248-4f55-b69e-685a02a1217b",
      "meta": {
        "profile": [ "http://hl7.org/fhir/us/cqfmeasures/StructureDefinition/test-case-cqfm" ]
      },
      "contained": [ {
        "resourceType": "Parameters",
        "id": "f75ef811-20a2-425b-a74b-308408437e24-parameters",
        "parameter": [ {
          "name": "subject",
          "valueString": "84f231b5-15be-4527-a9db-4209e99954db"
        } ]
      } ],
      "extension": [ {
        "url": "http://hl7.org/fhir/StructureDefinition/cqf-inputParameters",
        "valueReference": {
          "reference": "#f75ef811-20a2-425b-a74b-308408437e24-parameters"
        }
      }, {
        "url": "http://hl7.org/fhir/us/cqfmeasures/StructureDefinition/cqfm-testCaseDescription",
        "valueMarkdown": "Patient with OV in MP. Bladder cancer diagnosis and cancer staging in MP.  Pt had a cystectomy one day before staging and should be excluded. "
      } ],
      "modifierExtension": [ {
        "url": "http://hl7.org/fhir/us/cqfmeasures/StructureDefinition/cqfm-isTestCase",
        "valueBoolean": true
      } ],
      "status": "complete",
      "type": "individual",
      "measure": "https://madie.cms.gov/Measure/CMS646FHIRIntravesicalBacillusCalmetteGuerinForBladderCancer",
      "period": {
        "start": "2026-01-01",
        "end": "2026-12-31"
      },
      "group": [ {
        "id": "Group_1",
        "population": [ {
          "id": "InitialPopulation_1",
          "code": {
            "coding": [ {
              "system": "http://terminology.hl7.org/CodeSystem/measure-population",
              "code": "initial-population",
              "display": "Initial Population"
            } ]
          },
          "count": 1
        }, {
          "id": "Denominator_1",
          "code": {
            "coding": [ {
              "system": "http://terminology.hl7.org/CodeSystem/measure-population",
              "code": "denominator",
              "display": "Denominator"
            } ]
          },
          "count": 1
        }, {
          "id": "DenominatorExclusion_1",
          "code": {
            "coding": [ {
              "system": "http://terminology.hl7.org/CodeSystem/measure-population",
              "code": "denominator-exclusion",
              "display": "Denominator Exclusion"
            } ]
          },
          "count": 1
        }, {
          "id": "Numerator_1",
          "code": {
            "coding": [ {
              "system": "http://terminology.hl7.org/CodeSystem/measure-population",
              "code": "numerator",
              "display": "Numerator"
            } ]
          },
          "count": 0
        }, {
          "id": "DenominatorException_1",
          "code": {
            "coding": [ {
              "system": "http://terminology.hl7.org/CodeSystem/measure-population",
              "code": "denominator-exception",
              "display": "Denominator Exception"
            } ]
          },
          "count": 0
        } ],
        "measureScore": {
          "value": 1.0
        }
      } ],
      "evaluatedResource": [ {
        "reference": "Patient/84f231b5-15be-4527-a9db-4209e99954db"
      }, {
        "reference": "Encounter/b1ff3d88-a43a-40f4-bab1-d6e844d10abd"
      }, {
        "reference": "Procedure/e2f2c4ff-6f4b-4886-b5c8-a7d6f8f637ec"
      }, {
        "reference": "Condition/e16780f1-d19a-40b1-a629-ed67f2ef5898"
      }, {
        "reference": "Observation/006ce71f-06c1-4bab-a5f7-49aa814d9178"
      }, {
        "reference": "Practitioner/7014404b-1069-4771-971b-6926242f1e57"
      }, {
        "reference": "Procedure/fbbf41fc-aa28-4c0d-a1fb-dbfeebafb8a1"
      } ]
    },
    "request": {
      "method": "PUT",
      "url": "MeasureReport/8b51bf0c-b248-4f55-b69e-685a02a1217b"
    }
  } ]
}