{
  "resourceType": "Bundle",
  "id": "612e6b5d02c62a011f2ed7ba",
  "type": "transaction",
  "entry": [ {
    "fullUrl": "https://madie.cms.gov/Patient/439d95f5-58cd-485f-bbb4-a3915592af72",
    "resource": {
      "resourceType": "Patient",
      "id": "439d95f5-58cd-485f-bbb4-a3915592af72",
      "meta": {
        "profile": [ "http://hl7.org/fhir/us/qicore/StructureDefinition/qicore-patient" ]
      },
      "text": {
        "status": "generated",
        "div": "<div xmlns=\"http://www.w3.org/1999/xhtml\"><div class=\"hapiHeaderText\">MAUHepEDendTimeOnIPEncStrtTm <b>NUMERPASS </b></div><table class=\"hapiPropertyTable\"><tbody><tr><td>Identifier</td><td>613a0a42598b5d681406521f174c78ac</td></tr><tr><td>Date of birth</td><td><span>02 January 1974</span></td></tr></tbody></table></div>"
      },
      "extension": [ {
        "url": "http://hl7.org/fhir/us/core/StructureDefinition/us-core-race",
        "extension": [ {
          "url": "ombCategory",
          "valueCoding": {
            "system": "urn:oid:2.16.840.1.113883.6.238",
            "code": "1002-5",
            "display": "American Indian or Alaska Native",
            "userSelected": true
          }
        }, {
          "url": "text",
          "valueString": "American Indian or Alaska Native"
        } ]
      }, {
        "url": "http://hl7.org/fhir/us/core/StructureDefinition/us-core-ethnicity",
        "extension": [ {
          "url": "ombCategory",
          "valueCoding": {
            "system": "urn:oid:2.16.840.1.113883.6.238",
            "code": "2135-2",
            "display": "Hispanic or Latino",
            "userSelected": true
          }
        }, {
          "url": "text",
          "valueString": "Hispanic or Latino"
        } ]
      } ],
      "identifier": [ {
        "type": {
          "coding": [ {
            "system": "http://terminology.hl7.org/CodeSystem/v2-0203",
            "code": "MR"
          } ]
        },
        "system": "https://bonnie-fhir.healthit.gov/",
        "value": "612e6b5d02c62a011f2ed7ba"
      } ],
      "active": true,
      "name": [ {
        "use": "usual",
        "family": "NUMERPass",
        "given": [ "MAUHepEDendTimeOnIPEncStrtTm" ]
      } ],
      "gender": "male",
      "birthDate": "1975-01-02"
    },
    "request": {
      "method": "PUT",
      "url": "Patient/439d95f5-58cd-485f-bbb4-a3915592af72"
    }
  }, {
    "fullUrl": "https://madie.cms.gov/Encounter/a990c34e-ed60-4edd-acbc-d58348201852",
    "resource": {
      "resourceType": "Encounter",
      "id": "a990c34e-ed60-4edd-acbc-d58348201852",
      "meta": {
        "profile": [ "http://hl7.org/fhir/us/qicore/StructureDefinition/qicore-encounter" ]
      },
      "status": "finished",
      "class": {
        "system": "http://terminology.hl7.org/CodeSystem/v3-ActCode",
        "code": "EMER",
        "display": "emergency"
      },
      "type": [ {
        "coding": [ {
          "system": "http://snomed.info/sct",
          "code": "4525004"
        } ]
      } ],
      "subject": {
        "reference": "Patient/439d95f5-58cd-485f-bbb4-a3915592af72"
      },
      "period": {
        "start": "2026-10-30T06:00:00.000+00:00",
        "end": "2026-11-01T08:00:00.000+00:00"
      },
      "length": {
        "value": 2.0,
        "unit": "days"
      }
    },
    "request": {
      "method": "PUT",
      "url": "Encounter/a990c34e-ed60-4edd-acbc-d58348201852"
    }
  }, {
    "fullUrl": "https://madie.cms.gov/Encounter/e398a807-0169-49b7-a047-2866821d935e",
    "resource": {
      "resourceType": "Encounter",
      "id": "e398a807-0169-49b7-a047-2866821d935e",
      "meta": {
        "profile": [ "http://hl7.org/fhir/us/qicore/StructureDefinition/qicore-encounter" ]
      },
      "status": "finished",
      "class": {
        "system": "http://terminology.hl7.org/CodeSystem/v3-ActCode",
        "code": "IMP",
        "display": "inpatient encounter"
      },
      "type": [ {
        "coding": [ {
          "system": "http://snomed.info/sct",
          "code": "8715000"
        } ]
      } ],
      "subject": {
        "reference": "Patient/439d95f5-58cd-485f-bbb4-a3915592af72"
      },
      "period": {
        "start": "2026-11-01T08:00:00.000+00:00",
        "end": "2026-11-26T08:15:00.000+00:00"
      },
      "length": {
        "value": 25.0,
        "unit": "days"
      },
      "location": [ {
        "location": {
          "reference": "Location/1d3d025f-fa78-41ad-92fc-c25c9f30c401"
        },
        "period": {
          "start": "2026-11-02T09:00:00.000+00:00",
          "end": "2026-11-10T08:15:00.000+00:00"
        }
      } ]
    },
    "request": {
      "method": "PUT",
      "url": "Encounter/e398a807-0169-49b7-a047-2866821d935e"
    }
  }, {
    "fullUrl": "https://madie.cms.gov/Coverage/a314a4a2-5dce-4772-9f45-e96f999e0314",
    "resource": {
      "resourceType": "Coverage",
      "id": "a314a4a2-5dce-4772-9f45-e96f999e0314",
      "status": "active",
      "beneficiary": {
        "reference": "Patient/439d95f5-58cd-485f-bbb4-a3915592af72"
      },
      "period": {
        "start": "1975-01-02T08:00:00.000+00:00"
      },
      "payor": [ {
        "reference": "Organization/73c153a5-cc79-4287-baa7-8ef8a88eb1cf"
      } ]
    },
    "request": {
      "method": "PUT",
      "url": "Coverage/a314a4a2-5dce-4772-9f45-e96f999e0314"
    }
  }, {
    "fullUrl": "https://madie.cms.gov/MedicationAdministration/989c602d-79ed-48fe-832b-f8d31fd9500c",
    "resource": {
      "resourceType": "MedicationAdministration",
      "id": "989c602d-79ed-48fe-832b-f8d31fd9500c",
      "meta": {
        "profile": [ "http://hl7.org/fhir/us/qicore/StructureDefinition/qicore-medicationadministration" ]
      },
      "status": "completed",
      "medicationCodeableConcept": {
        "coding": [ {
          "system": "http://www.nlm.nih.gov/research/umls/rxnorm",
          "code": "1361607"
        } ]
      },
      "subject": {
        "reference": "Patient/439d95f5-58cd-485f-bbb4-a3915592af72"
      },
      "effectivePeriod": {
        "start": "2026-11-01T06:00:00.000+00:00",
        "end": "2026-11-01T07:00:00.000+00:00"
      },
      "dosage": {
        "route": {
          "coding": [ {
            "system": "http://snomed.info/sct",
            "code": "418114005",
            "display": "Intravenous route"
          } ]
        },
        "dose": {
          "value": 500,
          "unit": "ml",
          "system": "http://unitsofmeasure.org",
          "code": "ml"
        }
      }
    },
    "request": {
      "method": "PUT",
      "url": "MedicationAdministration/989c602d-79ed-48fe-832b-f8d31fd9500c"
    }
  }, {
    "fullUrl": "https://madie.cms.gov/Location/1d3d025f-fa78-41ad-92fc-c25c9f30c401",
    "resource": {
      "resourceType": "Location",
      "id": "1d3d025f-fa78-41ad-92fc-c25c9f30c401",
      "meta": {
        "profile": [ "http://hl7.org/fhir/us/qicore/StructureDefinition/qicore-location" ]
      },
      "identifier": [ {
        "use": "usual",
        "system": "http://exampleoflocation.com",
        "value": "B1-S.F2"
      } ],
      "name": "Medical Surgical East, first floor",
      "type": [ {
        "coding": [ {
          "system": "https://www.cdc.gov/nhsn/cdaportal/terminology/codesystem/hsloc.html",
          "code": "1025-6",
          "display": "Trauma Critical Care",
          "userSelected": true
        } ]
      } ]
    },
    "request": {
      "method": "PUT",
      "url": "Location/1d3d025f-fa78-41ad-92fc-c25c9f30c401"
    }
  }, {
    "fullUrl": "https://madie.cms.gov/Organization/73c153a5-cc79-4287-baa7-8ef8a88eb1cf",
    "resource": {
      "resourceType": "Organization",
      "id": "73c153a5-cc79-4287-baa7-8ef8a88eb1cf",
      "meta": {
        "profile": [ "http://hl7.org/fhir/us/qicore/StructureDefinition/qicore-organization" ]
      },
      "identifier": [ {
        "use": "temp",
        "system": "urn:oid:2.16.840.1.113883.4.4",
        "value": "21-3259825"
      } ],
      "active": true,
      "type": [ {
        "coding": [ {
          "system": "http://terminology.hl7.org/CodeSystem/organization-type",
          "code": "pay",
          "display": "Payer"
        } ]
      } ],
      "name": "Blue Cross Blue Shield of Texas",
      "telecom": [ {
        "system": "phone",
        "value": "(+1) 972-766-6900"
      } ],
      "address": [ {
        "use": "billing",
        "type": "postal",
        "line": [ "P.O. Box 660044" ],
        "city": "Dallas",
        "state": "TX",
        "postalCode": "75266-0044",
        "country": "USA"
      } ]
    },
    "request": {
      "method": "PUT",
      "url": "Organization/73c153a5-cc79-4287-baa7-8ef8a88eb1cf"
    }
  }, {
    "fullUrl": "https://madie.cms.gov/Practitioner/a20c8c4d-9fcc-4770-930e-ff978014595d",
    "resource": {
      "resourceType": "Practitioner",
      "id": "a20c8c4d-9fcc-4770-930e-ff978014595d",
      "identifier": [ {
        "system": "http://hl7.org/fhir/sid/us-npi",
        "value": "123456"
      } ],
      "name": [ {
        "family": "Evil",
        "prefix": [ "Dr" ]
      } ]
    },
    "request": {
      "method": "PUT",
      "url": "Practitioner/a20c8c4d-9fcc-4770-930e-ff978014595d"
    }
  }, {
    "fullUrl": "https://madie.cms.gov/MeasureReport/d5157556-bff1-47a2-8101-c5b90409c965",
    "resource": {
      "resourceType": "MeasureReport",
      "id": "d5157556-bff1-47a2-8101-c5b90409c965",
      "meta": {
        "profile": [ "http://hl7.org/fhir/us/cqfmeasures/StructureDefinition/test-case-cqfm" ]
      },
      "contained": [ {
        "resourceType": "Parameters",
        "id": "340cb800-fce2-485c-b20b-1c89e5bf80ae-parameters",
        "parameter": [ {
          "name": "subject",
          "valueString": "439d95f5-58cd-485f-bbb4-a3915592af72"
        } ]
      } ],
      "extension": [ {
        "url": "http://hl7.org/fhir/StructureDefinition/cqf-inputParameters",
        "valueReference": {
          "reference": "#340cb800-fce2-485c-b20b-1c89e5bf80ae-parameters"
        }
      }, {
        "url": "http://hl7.org/fhir/us/cqfmeasures/StructureDefinition/cqfm-testCaseDescription",
        "valueMarkdown": "meets IPP, meets Denominator, medication administered:Unfractionated Heparin Route:IV during ED, ED endTime on Start of encounter\n"
      } ],
      "modifierExtension": [ {
        "url": "http://hl7.org/fhir/us/cqfmeasures/StructureDefinition/cqfm-isTestCase",
        "valueBoolean": true
      } ],
      "status": "complete",
      "type": "individual",
      "measure": "https://madie.cms.gov/Measure/CMS190VTEProphylaxisICUFHIR",
      "period": {
        "start": "2026-01-01",
        "end": "2026-12-31"
      },
      "group": [ {
        "id": "Group_1",
        "population": [ {
          "id": "InitialPopulation_1",
          "code": {
            "coding": [ {
              "system": "http://terminology.hl7.org/CodeSystem/measure-population",
              "code": "initial-population",
              "display": "Initial Population"
            } ]
          },
          "count": 1
        }, {
          "id": "Denominator_1",
          "code": {
            "coding": [ {
              "system": "http://terminology.hl7.org/CodeSystem/measure-population",
              "code": "denominator",
              "display": "Denominator"
            } ]
          },
          "count": 1
        }, {
          "id": "DenominatorExclusion_1",
          "code": {
            "coding": [ {
              "system": "http://terminology.hl7.org/CodeSystem/measure-population",
              "code": "denominator-exclusion",
              "display": "Denominator Exclusion"
            } ]
          },
          "count": 0
        }, {
          "id": "Numerator_1",
          "code": {
            "coding": [ {
              "system": "http://terminology.hl7.org/CodeSystem/measure-population",
              "code": "numerator",
              "display": "Numerator"
            } ]
          },
          "count": 1
        }, {
          "id": "DenominatorException_1",
          "code": {
            "coding": [ {
              "system": "http://terminology.hl7.org/CodeSystem/measure-population",
              "code": "denominator-exception",
              "display": "Denominator Exception"
            } ]
          },
          "count": 0
        } ],
        "measureScore": {
          "value": 0.0
        }
      } ],
      "evaluatedResource": [ {
        "reference": "Patient/439d95f5-58cd-485f-bbb4-a3915592af72"
      }, {
        "reference": "Encounter/a990c34e-ed60-4edd-acbc-d58348201852"
      }, {
        "reference": "Encounter/e398a807-0169-49b7-a047-2866821d935e"
      }, {
        "reference": "Coverage/a314a4a2-5dce-4772-9f45-e96f999e0314"
      }, {
        "reference": "MedicationAdministration/989c602d-79ed-48fe-832b-f8d31fd9500c"
      }, {
        "reference": "Location/1d3d025f-fa78-41ad-92fc-c25c9f30c401"
      }, {
        "reference": "Organization/73c153a5-cc79-4287-baa7-8ef8a88eb1cf"
      }, {
        "reference": "Practitioner/a20c8c4d-9fcc-4770-930e-ff978014595d"
      } ]
    },
    "request": {
      "method": "PUT",
      "url": "MeasureReport/d5157556-bff1-47a2-8101-c5b90409c965"
    }
  } ]
}