{"resourceType":"Bundle","id":"tests-bf0200ab-3e37-4e90-8517-ffb351f2e563-bundle","type":"transaction","entry":[{"resource":{"resourceType":"Bundle","id":"6101649398086b4fedf65e39","type":"transaction","entry":[{"fullUrl":"https://madie.cms.gov/Patient/bf0200ab-3e37-4e90-8517-ffb351f2e563","resource":{"resourceType":"Patient","id":"bf0200ab-3e37-4e90-8517-ffb351f2e563","meta":{"profile":["http://hl7.org/fhir/us/qicore/StructureDefinition/qicore-patient"]},"extension":[{"url":"http://hl7.org/fhir/us/core/StructureDefinition/us-core-race","extension":[{"url":"ombCategory","valueCoding":{"system":"urn:oid:2.16.840.1.113883.6.238","code":"1002-5","display":"American Indian or Alaska Native"}},{"url":"text","valueString":"American Indian or Alaska Native"}]},{"url":"http://hl7.org/fhir/us/core/StructureDefinition/us-core-ethnicity","extension":[{"url":"ombCategory","valueCoding":{"system":"urn:oid:2.16.840.1.113883.6.238","code":"2186-5","display":"Non Hispanic or Latino"}},{"url":"text","valueString":"Non Hispanic or Latino"}]}],"identifier":[{"type":{"coding":[{"system":"http://terminology.hl7.org/CodeSystem/v2-0203","code":"MR"}]},"system":"https://GoodHealthCare.com","value":"6516516486115651"}],"active":true,"name":[{"use":"usual","family":"DENEXFail","given":["HasBMILT40"]}],"gender":"male","birthDate":"1958-12-01"},"request":{"method":"PUT","url":"Patient/bf0200ab-3e37-4e90-8517-ffb351f2e563"}},{"fullUrl":"https://madie.cms.gov/Observation/56ff5e20-90b5-4170-9145-73ea3d3f3c3c","resource":{"resourceType":"Observation","id":"56ff5e20-90b5-4170-9145-73ea3d3f3c3c","meta":{"profile":["http://hl7.org/fhir/us/qicore/StructureDefinition/qicore-observation-screening-assessment"]},"status":"final","category":[{"coding":[{"system":"http://terminology.hl7.org/CodeSystem/observation-category","code":"survey","display":"Survey"}]}],"code":{"coding":[{"system":"http://loinc.org","version":"2.76","code":"80976-4"}]},"subject":{"reference":"Patient/bf0200ab-3e37-4e90-8517-ffb351f2e563"},"effectivePeriod":{"start":"2026-01-14T08:00:00.000+00:00"},"valueInteger":5},"request":{"method":"PUT","url":"Observation/56ff5e20-90b5-4170-9145-73ea3d3f3c3c"}},{"fullUrl":"https://madie.cms.gov/Observation/0352380b-4720-44dd-9242-655bdcb73055","resource":{"resourceType":"Observation","id":"0352380b-4720-44dd-9242-655bdcb73055","meta":{"profile":["http://hl7.org/fhir/us/qicore/StructureDefinition/qicore-observation-screening-assessment"]},"status":"final","category":[{"coding":[{"system":"http://terminology.hl7.org/CodeSystem/observation-category","code":"survey","display":"Survey"}]}],"code":{"coding":[{"system":"http://loinc.org","version":"2.76","code":"80976-4"}]},"subject":{"reference":"Patient/bf0200ab-3e37-4e90-8517-ffb351f2e563"},"effectivePeriod":{"start":"2026-10-12T08:00:00.000+00:00"},"valueInteger":3},"request":{"method":"PUT","url":"Observation/0352380b-4720-44dd-9242-655bdcb73055"}},{"fullUrl":"https://madie.cms.gov/Condition/f6039ece-0e0d-4eca-a64d-cb04ef928d3d","resource":{"resourceType":"Condition","id":"f6039ece-0e0d-4eca-a64d-cb04ef928d3d","meta":{"profile":["http://hl7.org/fhir/us/qicore/StructureDefinition/qicore-condition-problems-health-concerns"]},"clinicalStatus":{"coding":[{"system":"http://terminology.hl7.org/CodeSystem/condition-clinical","code":"active","display":"active"}]},"verificationStatus":{"coding":[{"system":"http://terminology.hl7.org/CodeSystem/condition-ver-status","code":"confirmed","display":"Confirmed"}]},"category":[{"coding":[{"system":"http://terminology.hl7.org/CodeSystem/condition-category","code":"problem-list-item","display":"Problem List Item"}]}],"code":{"coding":[{"system":"http://hl7.org/fhir/sid/icd-10-cm","version":"2024","code":"N40.1"}]},"subject":{"reference":"Patient/bf0200ab-3e37-4e90-8517-ffb351f2e563"},"onsetPeriod":{"start":"2025-12-31T08:00:00.000+00:00"}},"request":{"method":"PUT","url":"Condition/f6039ece-0e0d-4eca-a64d-cb04ef928d3d"}},{"fullUrl":"https://madie.cms.gov/Encounter/6353aea9-019f-4731-a098-bb6b1583d6e7","resource":{"resourceType":"Encounter","id":"6353aea9-019f-4731-a098-bb6b1583d6e7","meta":{"profile":["http://hl7.org/fhir/us/qicore/StructureDefinition/qicore-encounter"]},"status":"finished","class":{"system":"http://terminology.hl7.org/CodeSystem/v3-ActCode","code":"AMB","display":"ambulatory"},"type":[{"coding":[{"system":"http://www.ama-assn.org/go/cpt","version":"2024","code":"99214"}]}],"subject":{"reference":"Patient/bf0200ab-3e37-4e90-8517-ffb351f2e563"},"period":{"start":"2026-02-12T08:00:00+00:00","end":"2026-02-12T09:15:00+00:00"}},"request":{"method":"PUT","url":"Encounter/6353aea9-019f-4731-a098-bb6b1583d6e7"}},{"fullUrl":"https://madie.cms.gov/Observation/e2b818f9-febc-428c-ab27-47ff978d76e6","resource":{"resourceType":"Observation","id":"e2b818f9-febc-428c-ab27-47ff978d76e6","meta":{"profile":["http://hl7.org/fhir/StructureDefinition/bmi"]},"status":"final","category":[{"coding":[{"system":"http://terminology.hl7.org/CodeSystem/observation-category","code":"vital-signs","display":"Vital Signs"}]}],"code":{"coding":[{"system":"http://loinc.org","version":"2.76","code":"39156-5"}]},"subject":{"reference":"Patient/bf0200ab-3e37-4e90-8517-ffb351f2e563"},"effectiveDateTime":"2026-01-14T08:00:00.000+00:00","valueQuantity":{"value":39.9,"unit":"kg/m2","system":"http://unitsofmeasure.org","code":"kg/m2"}},"request":{"method":"PUT","url":"Observation/e2b818f9-febc-428c-ab27-47ff978d76e6"}},{"fullUrl":"https://madie.cms.gov/MeasureReport/a3d2065c-3a49-44af-bf7f-46b650ce8af8","resource":{"resourceType":"MeasureReport","id":"a3d2065c-3a49-44af-bf7f-46b650ce8af8","meta":{"profile":["http://hl7.org/fhir/us/cqfmeasures/StructureDefinition/test-case-cqfm"]},"contained":[{"resourceType":"Parameters","id":"5e3dd51a-0217-4aef-878f-3c8a9472be97-parameters","parameter":[{"name":"subject","valueString":"bf0200ab-3e37-4e90-8517-ffb351f2e563"}]}],"extension":[{"url":"http://hl7.org/fhir/StructureDefinition/cqf-inputParameters","valueReference":{"reference":"#5e3dd51a-0217-4aef-878f-3c8a9472be97-parameters"}},{"url":"http://hl7.org/fhir/us/cqfmeasures/StructureDefinition/cqfm-testCaseDescription","valueMarkdown":"Patient meeting initial population/denominator criteria also has BMI observation which does not meet the denominator exclusion criteria of greater then or equal to 40"}],"modifierExtension":[{"url":"http://hl7.org/fhir/us/cqfmeasures/StructureDefinition/cqfm-isTestCase","valueBoolean":true}],"status":"complete","type":"individual","measure":"https://madie.cms.gov/Measure/CMS771FHIRUrinarySymptomScoreChangeBenignProstaticHyperplasia","period":{"start":"2026-01-01","end":"2026-12-31"},"group":[{"id":"Group_1","population":[{"id":"InitialPopulation_1","code":{"coding":[{"system":"http://terminology.hl7.org/CodeSystem/measure-population","code":"initial-population","display":"Initial Population"}]},"count":1},{"id":"Denominator_1","code":{"coding":[{"system":"http://terminology.hl7.org/CodeSystem/measure-population","code":"denominator","display":"Denominator"}]},"count":1},{"id":"DenominatorExclusion_1","code":{"coding":[{"system":"http://terminology.hl7.org/CodeSystem/measure-population","code":"denominator-exclusion","display":"Denominator Exclusion"}]},"count":0},{"id":"Numerator_1","code":{"coding":[{"system":"http://terminology.hl7.org/CodeSystem/measure-population","code":"numerator","display":"Numerator"}]},"count":0}],"measureScore":{"value":1.0}}],"evaluatedResource":[{"reference":"Patient/bf0200ab-3e37-4e90-8517-ffb351f2e563"},{"reference":"Observation/56ff5e20-90b5-4170-9145-73ea3d3f3c3c"},{"reference":"Observation/0352380b-4720-44dd-9242-655bdcb73055"},{"reference":"Condition/f6039ece-0e0d-4eca-a64d-cb04ef928d3d"},{"reference":"Encounter/6353aea9-019f-4731-a098-bb6b1583d6e7"},{"reference":"Observation/e2b818f9-febc-428c-ab27-47ff978d76e6"}]},"request":{"method":"PUT","url":"MeasureReport/a3d2065c-3a49-44af-bf7f-46b650ce8af8"}}]},"request":{"method":"PUT","url":"Bundle/6101649398086b4fedf65e39"}},{"resource":{"resourceType":"Observation","id":"0352380b-4720-44dd-9242-655bdcb73055","meta":{"profile":["http://hl7.org/fhir/us/qicore/StructureDefinition/qicore-observation-screening-assessment"]},"status":"final","category":[{"coding":[{"system":"http://terminology.hl7.org/CodeSystem/observation-category","code":"survey","display":"Survey"}]}],"code":{"coding":[{"system":"http://loinc.org","version":"2.76","code":"80976-4"}]},"subject":{"reference":"Patient/bf0200ab-3e37-4e90-8517-ffb351f2e563"},"effectivePeriod":{"start":"2026-10-12T08:00:00.000+00:00"},"valueInteger":3},"request":{"method":"PUT","url":"Observation/0352380b-4720-44dd-9242-655bdcb73055"}},{"resource":{"resourceType":"Observation","id":"e2b818f9-febc-428c-ab27-47ff978d76e6","meta":{"profile":["http://hl7.org/fhir/StructureDefinition/bmi"]},"status":"final","category":[{"coding":[{"system":"http://terminology.hl7.org/CodeSystem/observation-category","code":"vital-signs","display":"Vital Signs"}]}],"code":{"coding":[{"system":"http://loinc.org","version":"2.76","code":"39156-5"}]},"subject":{"reference":"Patient/bf0200ab-3e37-4e90-8517-ffb351f2e563"},"effectiveDateTime":"2026-01-14T08:00:00.000+00:00","valueQuantity":{"value":39.9,"unit":"kg/m2","system":"http://unitsofmeasure.org","code":"kg/m2"}},"request":{"method":"PUT","url":"Observation/e2b818f9-febc-428c-ab27-47ff978d76e6"}},{"resource":{"resourceType":"Encounter","id":"6353aea9-019f-4731-a098-bb6b1583d6e7","meta":{"profile":["http://hl7.org/fhir/us/qicore/StructureDefinition/qicore-encounter"]},"status":"finished","class":{"system":"http://terminology.hl7.org/CodeSystem/v3-ActCode","code":"AMB","display":"ambulatory"},"type":[{"coding":[{"system":"http://www.ama-assn.org/go/cpt","version":"2024","code":"99214"}]}],"subject":{"reference":"Patient/bf0200ab-3e37-4e90-8517-ffb351f2e563"},"period":{"start":"2026-02-12T08:00:00+00:00","end":"2026-02-12T09:15:00+00:00"}},"request":{"method":"PUT","url":"Encounter/6353aea9-019f-4731-a098-bb6b1583d6e7"}},{"resource":{"resourceType":"MeasureReport","id":"a3d2065c-3a49-44af-bf7f-46b650ce8af8","meta":{"profile":["http://hl7.org/fhir/us/cqfmeasures/StructureDefinition/test-case-cqfm"]},"contained":[{"resourceType":"Parameters","id":"5e3dd51a-0217-4aef-878f-3c8a9472be97-parameters","parameter":[{"name":"subject","valueString":"bf0200ab-3e37-4e90-8517-ffb351f2e563"}]}],"extension":[{"url":"http://hl7.org/fhir/StructureDefinition/cqf-inputParameters","valueReference":{"reference":"#5e3dd51a-0217-4aef-878f-3c8a9472be97-parameters"}},{"url":"http://hl7.org/fhir/us/cqfmeasures/StructureDefinition/cqfm-testCaseDescription","valueMarkdown":"Patient meeting initial population/denominator criteria also has BMI observation which does not meet the denominator exclusion criteria of greater then or equal to 40"}],"modifierExtension":[{"url":"http://hl7.org/fhir/us/cqfmeasures/StructureDefinition/cqfm-isTestCase","valueBoolean":true}],"status":"complete","type":"individual","measure":"https://madie.cms.gov/Measure/CMS771FHIRUrinarySymptomScoreChangeBenignProstaticHyperplasia","period":{"start":"2026-01-01","end":"2026-12-31"},"group":[{"id":"Group_1","population":[{"id":"InitialPopulation_1","code":{"coding":[{"system":"http://terminology.hl7.org/CodeSystem/measure-population","code":"initial-population","display":"Initial Population"}]},"count":1},{"id":"Denominator_1","code":{"coding":[{"system":"http://terminology.hl7.org/CodeSystem/measure-population","code":"denominator","display":"Denominator"}]},"count":1},{"id":"DenominatorExclusion_1","code":{"coding":[{"system":"http://terminology.hl7.org/CodeSystem/measure-population","code":"denominator-exclusion","display":"Denominator Exclusion"}]},"count":0},{"id":"Numerator_1","code":{"coding":[{"system":"http://terminology.hl7.org/CodeSystem/measure-population","code":"numerator","display":"Numerator"}]},"count":0}],"measureScore":{"value":1.0}}],"evaluatedResource":[{"reference":"Patient/bf0200ab-3e37-4e90-8517-ffb351f2e563"},{"reference":"Observation/56ff5e20-90b5-4170-9145-73ea3d3f3c3c"},{"reference":"Observation/0352380b-4720-44dd-9242-655bdcb73055"},{"reference":"Condition/f6039ece-0e0d-4eca-a64d-cb04ef928d3d"},{"reference":"Encounter/6353aea9-019f-4731-a098-bb6b1583d6e7"},{"reference":"Observation/e2b818f9-febc-428c-ab27-47ff978d76e6"}]},"request":{"method":"PUT","url":"MeasureReport/a3d2065c-3a49-44af-bf7f-46b650ce8af8"}},{"resource":{"resourceType":"Observation","id":"56ff5e20-90b5-4170-9145-73ea3d3f3c3c","meta":{"profile":["http://hl7.org/fhir/us/qicore/StructureDefinition/qicore-observation-screening-assessment"]},"status":"final","category":[{"coding":[{"system":"http://terminology.hl7.org/CodeSystem/observation-category","code":"survey","display":"Survey"}]}],"code":{"coding":[{"system":"http://loinc.org","version":"2.76","code":"80976-4"}]},"subject":{"reference":"Patient/bf0200ab-3e37-4e90-8517-ffb351f2e563"},"effectivePeriod":{"start":"2026-01-14T08:00:00.000+00:00"},"valueInteger":5},"request":{"method":"PUT","url":"Observation/56ff5e20-90b5-4170-9145-73ea3d3f3c3c"}},{"resource":{"resourceType":"Patient","id":"bf0200ab-3e37-4e90-8517-ffb351f2e563","meta":{"profile":["http://hl7.org/fhir/us/qicore/StructureDefinition/qicore-patient"]},"extension":[{"url":"http://hl7.org/fhir/us/core/StructureDefinition/us-core-race","extension":[{"url":"ombCategory","valueCoding":{"system":"urn:oid:2.16.840.1.113883.6.238","code":"1002-5","display":"American Indian or Alaska Native"}},{"url":"text","valueString":"American Indian or Alaska Native"}]},{"url":"http://hl7.org/fhir/us/core/StructureDefinition/us-core-ethnicity","extension":[{"url":"ombCategory","valueCoding":{"system":"urn:oid:2.16.840.1.113883.6.238","code":"2186-5","display":"Non Hispanic or Latino"}},{"url":"text","valueString":"Non Hispanic or Latino"}]}],"identifier":[{"type":{"coding":[{"system":"http://terminology.hl7.org/CodeSystem/v2-0203","code":"MR"}]},"system":"https://GoodHealthCare.com","value":"6516516486115651"}],"active":true,"name":[{"use":"usual","family":"DENEXFail","given":["HasBMILT40"]}],"gender":"male","birthDate":"1958-12-01"},"request":{"method":"PUT","url":"Patient/bf0200ab-3e37-4e90-8517-ffb351f2e563"}},{"resource":{"resourceType":"Condition","id":"f6039ece-0e0d-4eca-a64d-cb04ef928d3d","meta":{"profile":["http://hl7.org/fhir/us/qicore/StructureDefinition/qicore-condition-problems-health-concerns"]},"clinicalStatus":{"coding":[{"system":"http://terminology.hl7.org/CodeSystem/condition-clinical","code":"active","display":"active"}]},"verificationStatus":{"coding":[{"system":"http://terminology.hl7.org/CodeSystem/condition-ver-status","code":"confirmed","display":"Confirmed"}]},"category":[{"coding":[{"system":"http://terminology.hl7.org/CodeSystem/condition-category","code":"problem-list-item","display":"Problem List Item"}]}],"code":{"coding":[{"system":"http://hl7.org/fhir/sid/icd-10-cm","version":"2024","code":"N40.1"}]},"subject":{"reference":"Patient/bf0200ab-3e37-4e90-8517-ffb351f2e563"},"onsetPeriod":{"start":"2025-12-31T08:00:00.000+00:00"}},"request":{"method":"PUT","url":"Condition/f6039ece-0e0d-4eca-a64d-cb04ef928d3d"}}]}