{
  "resourceType": "Bundle",
  "id": "63487c2f0968f80122540199",
  "type": "transaction",
  "entry": [ {
    "fullUrl": "https://madie.cms.gov/Patient/64bbffd3-e7b5-4cfb-8e7d-6705b46ce964",
    "resource": {
      "resourceType": "Patient",
      "id": "64bbffd3-e7b5-4cfb-8e7d-6705b46ce964",
      "meta": {
        "profile": [ "http://hl7.org/fhir/us/qicore/StructureDefinition/qicore-patient" ]
      },
      "text": {
        "status": "generated",
        "div": "<div xmlns=\"http://www.w3.org/1999/xhtml\"><div class=\"hapiHeaderText\">2EncWin42weeksEGAeq38OnBothEncounters<b>DENpass</b></div><table class=\"hapiPropertyTable\"><tbody><tr><td>Identifier</td><td>d49eff12b5ae0570e385f43288917b0fcc7f54d4422938b9cf7918aaeb400005</td></tr><tr><td>Date of birth</td><td><span>14 February 1985</span></td></tr></tbody></table></div>"
      },
      "extension": [ {
        "url": "http://hl7.org/fhir/us/core/StructureDefinition/us-core-race",
        "extension": [ {
          "url": "ombCategory",
          "valueCoding": {
            "system": "urn:oid:2.16.840.1.113883.6.238",
            "code": "1002-5",
            "display": "American Indian or Alaska Native",
            "userSelected": true
          }
        }, {
          "url": "text",
          "valueString": "American Indian or Alaska Native"
        } ]
      }, {
        "url": "http://hl7.org/fhir/us/core/StructureDefinition/us-core-ethnicity",
        "extension": [ {
          "url": "ombCategory",
          "valueCoding": {
            "system": "urn:oid:2.16.840.1.113883.6.238",
            "code": "2135-2",
            "display": "Hispanic or Latino",
            "userSelected": true
          }
        }, {
          "url": "text",
          "valueString": "Hispanic or Latino"
        } ]
      } ],
      "identifier": [ {
        "type": {
          "coding": [ {
            "system": "http://terminology.hl7.org/CodeSystem/v2-0203",
            "code": "MR"
          } ]
        },
        "system": "https://bonnie-fhir.healthit.gov/",
        "value": "63487c2f0968f80122540199"
      } ],
      "active": true,
      "name": [ {
        "use": "usual",
        "family": "DENPass",
        "given": [ "2EncWin42weeksEGAeq38onBothEncounters" ]
      } ],
      "gender": "female",
      "birthDate": "1998-02-14"
    },
    "request": {
      "method": "PUT",
      "url": "Patient/64bbffd3-e7b5-4cfb-8e7d-6705b46ce964"
    }
  }, {
    "fullUrl": "https://madie.cms.gov/Observation/61af94dd-24dc-4d11-a6a3-6974bbc9fde1",
    "resource": {
      "resourceType": "Observation",
      "id": "61af94dd-24dc-4d11-a6a3-6974bbc9fde1",
      "meta": {
        "profile": [ "http://hl7.org/fhir/us/qicore/StructureDefinition/qicore-simple-observation" ]
      },
      "status": "final",
      "category": [ {
        "coding": [ {
          "system": "http://terminology.hl7.org/CodeSystem/observation-category",
          "code": "exam",
          "display": "exam",
          "userSelected": true
        } ]
      } ],
      "code": {
        "coding": [ {
          "system": "http://loinc.org",
          "code": "11884-4"
        } ]
      },
      "subject": {
        "reference": "Patient/64bbffd3-e7b5-4cfb-8e7d-6705b46ce964"
      },
      "effectiveDateTime": "2026-02-01T09:15:00.000+00:00",
      "performer": [ {
        "reference": "Organization/example1",
        "display": "Hendricks Country Hospital"
      } ],
      "valueQuantity": {
        "value": 38,
        "system": "http://unitsofmeasure.org",
        "code": "wk"
      }
    },
    "request": {
      "method": "PUT",
      "url": "Observation/61af94dd-24dc-4d11-a6a3-6974bbc9fde1"
    }
  }, {
    "fullUrl": "https://madie.cms.gov/Observation/f9bea387-4a45-4558-adad-658b60e5d9a2",
    "resource": {
      "resourceType": "Observation",
      "id": "f9bea387-4a45-4558-adad-658b60e5d9a2",
      "meta": {
        "profile": [ "http://hl7.org/fhir/us/qicore/StructureDefinition/qicore-simple-observation" ]
      },
      "status": "final",
      "category": [ {
        "coding": [ {
          "system": "http://terminology.hl7.org/CodeSystem/observation-category",
          "code": "exam",
          "display": "exam",
          "userSelected": true
        } ]
      } ],
      "code": {
        "coding": [ {
          "system": "http://loinc.org",
          "code": "11884-4"
        } ]
      },
      "subject": {
        "reference": "Patient/64bbffd3-e7b5-4cfb-8e7d-6705b46ce964"
      },
      "effectiveDateTime": "2026-11-10T08:00:00.000+00:00",
      "performer": [ {
        "reference": "Organization/example1",
        "display": "Hendricks Country Hospital"
      } ],
      "valueQuantity": {
        "value": 38,
        "system": "http://unitsofmeasure.org",
        "code": "wk"
      }
    },
    "request": {
      "method": "PUT",
      "url": "Observation/f9bea387-4a45-4558-adad-658b60e5d9a2"
    }
  }, {
    "fullUrl": "https://madie.cms.gov/Observation/de6ba7f0-0a8f-4792-ae1d-5f4b62da4c81",
    "resource": {
      "resourceType": "Observation",
      "id": "de6ba7f0-0a8f-4792-ae1d-5f4b62da4c81",
      "meta": {
        "profile": [ "http://hl7.org/fhir/us/qicore/StructureDefinition/qicore-simple-observation" ]
      },
      "status": "final",
      "category": [ {
        "coding": [ {
          "system": "http://terminology.hl7.org/CodeSystem/observation-category",
          "code": "exam",
          "display": "exam",
          "userSelected": true
        } ]
      } ],
      "code": {
        "coding": [ {
          "system": "http://loinc.org",
          "code": "93857-1"
        } ]
      },
      "subject": {
        "reference": "Patient/64bbffd3-e7b5-4cfb-8e7d-6705b46ce964"
      },
      "effectiveDateTime": "2026-02-01T19:00:00.000+00:00",
      "performer": [ {
        "reference": "Organization/example1",
        "display": "Hendricks Country Hospital"
      } ],
      "valueDateTime": "2026-02-01T19:00:00.000+00:00"
    },
    "request": {
      "method": "PUT",
      "url": "Observation/de6ba7f0-0a8f-4792-ae1d-5f4b62da4c81"
    }
  }, {
    "fullUrl": "https://madie.cms.gov/Observation/8fff0330-4a99-417f-abf1-0e332773dd2d",
    "resource": {
      "resourceType": "Observation",
      "id": "8fff0330-4a99-417f-abf1-0e332773dd2d",
      "meta": {
        "profile": [ "http://hl7.org/fhir/us/qicore/StructureDefinition/qicore-simple-observation" ]
      },
      "status": "final",
      "category": [ {
        "coding": [ {
          "system": "http://terminology.hl7.org/CodeSystem/observation-category",
          "code": "exam",
          "display": "exam",
          "userSelected": true
        } ]
      } ],
      "code": {
        "coding": [ {
          "system": "http://loinc.org",
          "code": "93857-1"
        } ]
      },
      "subject": {
        "reference": "Patient/64bbffd3-e7b5-4cfb-8e7d-6705b46ce964"
      },
      "effectiveDateTime": "2026-11-10T08:00:00.000+00:00",
      "performer": [ {
        "reference": "Organization/example1",
        "display": "Hendricks Country Hospital"
      } ],
      "valueDateTime": "2026-11-10T08:00:00.000+00:00"
    },
    "request": {
      "method": "PUT",
      "url": "Observation/8fff0330-4a99-417f-abf1-0e332773dd2d"
    }
  }, {
    "fullUrl": "https://madie.cms.gov/Observation/e6cf9fc6-06b4-4f99-8902-859c3c748c20",
    "resource": {
      "resourceType": "Observation",
      "id": "e6cf9fc6-06b4-4f99-8902-859c3c748c20",
      "meta": {
        "profile": [ "http://hl7.org/fhir/us/qicore/StructureDefinition/qicore-simple-observation" ]
      },
      "status": "final",
      "category": [ {
        "coding": [ {
          "system": "http://terminology.hl7.org/CodeSystem/observation-category",
          "code": "exam",
          "display": "exam",
          "userSelected": true
        } ]
      } ],
      "code": {
        "coding": [ {
          "system": "http://loinc.org",
          "code": "11639-2"
        } ]
      },
      "subject": {
        "reference": "Patient/64bbffd3-e7b5-4cfb-8e7d-6705b46ce964"
      },
      "effectiveDateTime": "2026-01-31T08:00:00.000+00:00",
      "performer": [ {
        "reference": "Organization/example1",
        "display": "Hendricks Country Hospital"
      } ],
      "valueInteger": 0
    },
    "request": {
      "method": "PUT",
      "url": "Observation/e6cf9fc6-06b4-4f99-8902-859c3c748c20"
    }
  }, {
    "fullUrl": "https://madie.cms.gov/Observation/919b752e-0eaa-4ed3-bf26-2604f68fb58f",
    "resource": {
      "resourceType": "Observation",
      "id": "919b752e-0eaa-4ed3-bf26-2604f68fb58f",
      "meta": {
        "profile": [ "http://hl7.org/fhir/us/qicore/StructureDefinition/qicore-simple-observation" ]
      },
      "status": "final",
      "category": [ {
        "coding": [ {
          "system": "http://terminology.hl7.org/CodeSystem/observation-category",
          "code": "exam",
          "display": "exam",
          "userSelected": true
        } ]
      } ],
      "code": {
        "coding": [ {
          "system": "http://loinc.org",
          "code": "11637-6"
        } ]
      },
      "subject": {
        "reference": "Patient/64bbffd3-e7b5-4cfb-8e7d-6705b46ce964"
      },
      "effectiveDateTime": "2026-01-31T08:00:00.000+00:00",
      "performer": [ {
        "reference": "Organization/example1",
        "display": "Hendricks Country Hospital"
      } ],
      "valueInteger": 0
    },
    "request": {
      "method": "PUT",
      "url": "Observation/919b752e-0eaa-4ed3-bf26-2604f68fb58f"
    }
  }, {
    "fullUrl": "https://madie.cms.gov/Observation/2f9fc353-d2a2-47b1-933b-93f461af2221",
    "resource": {
      "resourceType": "Observation",
      "id": "2f9fc353-d2a2-47b1-933b-93f461af2221",
      "meta": {
        "profile": [ "http://hl7.org/fhir/us/qicore/StructureDefinition/qicore-simple-observation" ]
      },
      "status": "final",
      "category": [ {
        "coding": [ {
          "system": "http://terminology.hl7.org/CodeSystem/observation-category",
          "code": "exam",
          "display": "exam",
          "userSelected": true
        } ]
      } ],
      "code": {
        "coding": [ {
          "system": "http://loinc.org",
          "code": "11639-2"
        } ]
      },
      "subject": {
        "reference": "Patient/64bbffd3-e7b5-4cfb-8e7d-6705b46ce964"
      },
      "effectiveDateTime": "2026-11-09T08:00:00.000+00:00",
      "performer": [ {
        "reference": "Organization/example1",
        "display": "Hendricks Country Hospital"
      } ],
      "valueInteger": 1
    },
    "request": {
      "method": "PUT",
      "url": "Observation/2f9fc353-d2a2-47b1-933b-93f461af2221"
    }
  }, {
    "fullUrl": "https://madie.cms.gov/Observation/789b2b5e-830d-4ef1-a408-75d7cac97da3",
    "resource": {
      "resourceType": "Observation",
      "id": "789b2b5e-830d-4ef1-a408-75d7cac97da3",
      "meta": {
        "profile": [ "http://hl7.org/fhir/us/qicore/StructureDefinition/qicore-simple-observation" ]
      },
      "status": "final",
      "category": [ {
        "coding": [ {
          "system": "http://terminology.hl7.org/CodeSystem/observation-category",
          "code": "exam",
          "display": "exam",
          "userSelected": true
        } ]
      } ],
      "code": {
        "coding": [ {
          "system": "http://loinc.org",
          "code": "11637-6"
        } ]
      },
      "subject": {
        "reference": "Patient/64bbffd3-e7b5-4cfb-8e7d-6705b46ce964"
      },
      "effectiveDateTime": "2026-11-09T08:00:00.000+00:00",
      "performer": [ {
        "reference": "Organization/example1",
        "display": "Hendricks Country Hospital"
      } ],
      "valueInteger": 1
    },
    "request": {
      "method": "PUT",
      "url": "Observation/789b2b5e-830d-4ef1-a408-75d7cac97da3"
    }
  }, {
    "fullUrl": "https://madie.cms.gov/Encounter/a8d98308-b304-4319-879f-479f015798f3",
    "resource": {
      "resourceType": "Encounter",
      "id": "a8d98308-b304-4319-879f-479f015798f3",
      "meta": {
        "profile": [ "http://hl7.org/fhir/us/qicore/StructureDefinition/qicore-encounter" ]
      },
      "status": "finished",
      "class": {
        "system": "http://terminology.hl7.org/CodeSystem/v3-ActCode",
        "code": "IMP",
        "display": "inpatient encounter"
      },
      "type": [ {
        "coding": [ {
          "system": "http://snomed.info/sct",
          "code": "183452005"
        } ]
      } ],
      "subject": {
        "reference": "Patient/64bbffd3-e7b5-4cfb-8e7d-6705b46ce964"
      },
      "period": {
        "start": "2026-02-01T08:00:00.000+00:00",
        "end": "2026-02-05T08:15:00.000+00:00"
      },
      "length": {
        "value": 4,
        "unit": "days"
      },
      "reasonCode": [ {
        "coding": [ {
          "system": "http://snomed.info/sct",
          "code": "169826009",
          "display": "Single live birth from singleton pregnancy (finding)"
        } ]
      } ]
    },
    "request": {
      "method": "PUT",
      "url": "Encounter/a8d98308-b304-4319-879f-479f015798f3"
    }
  }, {
    "fullUrl": "https://madie.cms.gov/Encounter/495c7ada-3dea-40b0-98ac-d18adf2670d9",
    "resource": {
      "resourceType": "Encounter",
      "id": "495c7ada-3dea-40b0-98ac-d18adf2670d9",
      "meta": {
        "profile": [ "http://hl7.org/fhir/us/qicore/StructureDefinition/qicore-encounter" ]
      },
      "status": "finished",
      "class": {
        "system": "http://terminology.hl7.org/CodeSystem/v3-ActCode",
        "code": "IMP",
        "display": "inpatient encounter"
      },
      "type": [ {
        "coding": [ {
          "system": "http://snomed.info/sct",
          "code": "183452005"
        } ]
      } ],
      "subject": {
        "reference": "Patient/64bbffd3-e7b5-4cfb-8e7d-6705b46ce964"
      },
      "period": {
        "start": "2026-11-10T08:00:00.000+00:00",
        "end": "2026-11-15T08:15:00.000+00:00"
      },
      "length": {
        "value": 5,
        "unit": "days"
      },
      "reasonCode": [ {
        "coding": [ {
          "system": "http://snomed.info/sct",
          "code": "169826009",
          "display": "Single live birth from singleton pregnancy (finding)"
        } ]
      } ]
    },
    "request": {
      "method": "PUT",
      "url": "Encounter/495c7ada-3dea-40b0-98ac-d18adf2670d9"
    }
  }, {
    "fullUrl": "https://madie.cms.gov/Coverage/5f5f9e4f1c76ba674bb0336d",
    "resource": {
      "resourceType": "Coverage",
      "id": "5f5f9e4f1c76ba674bb0336d",
      "meta": {
        "profile": [ "http://hl7.org/fhir/us/qicore/StructureDefinition/qicore-coverage" ]
      },
      "status": "active",
      "subscriberId": "523435",
      "beneficiary": {
        "reference": "Patient/64bbffd3-e7b5-4cfb-8e7d-6705b46ce964"
      },
      "relationship": {
        "coding": [ {
          "system": "http://terminology.hl7.org/CodeSystem/subscriber-relationship",
          "code": "self"
        } ]
      },
      "period": {
        "start": "1986-02-14T08:00:00.000+00:00"
      },
      "payor": [ {
        "reference": "Organization/e0e7f3fd-c407-46d7-a64d-86ba33498c53"
      } ]
    },
    "request": {
      "method": "PUT",
      "url": "Coverage/5f5f9e4f1c76ba674bb0336d"
    }
  }, {
    "fullUrl": "https://madie.cms.gov/Procedure/5ada6083-ea75-4bc0-82a3-9d79165cd146",
    "resource": {
      "resourceType": "Procedure",
      "id": "5ada6083-ea75-4bc0-82a3-9d79165cd146",
      "meta": {
        "profile": [ "http://hl7.org/fhir/us/qicore/StructureDefinition/qicore-procedure" ]
      },
      "extension": [ {
        "url": "http://hl7.org/fhir/us/qicore/StructureDefinition/qicore-recorded",
        "valueDateTime": "2014-04-05T13:35:00.000+00:00"
      } ],
      "status": "completed",
      "code": {
        "coding": [ {
          "system": "http://snomed.info/sct",
          "code": "10745001"
        }, {
          "system": "http://www.cms.gov/Medicare/Coding/ICD10",
          "code": "10D00Z0"
        } ]
      },
      "subject": {
        "reference": "Patient/64bbffd3-e7b5-4cfb-8e7d-6705b46ce964"
      },
      "performedPeriod": {
        "start": "2026-02-01T08:00:00.000+00:00",
        "end": "2026-02-05T08:15:00.000+00:00"
      }
    },
    "request": {
      "method": "PUT",
      "url": "Procedure/5ada6083-ea75-4bc0-82a3-9d79165cd146"
    }
  }, {
    "fullUrl": "https://madie.cms.gov/Procedure/fd608b05-d1e6-4beb-97b3-19845f935ae8",
    "resource": {
      "resourceType": "Procedure",
      "id": "fd608b05-d1e6-4beb-97b3-19845f935ae8",
      "meta": {
        "profile": [ "http://hl7.org/fhir/us/qicore/StructureDefinition/qicore-procedure" ]
      },
      "extension": [ {
        "url": "http://hl7.org/fhir/us/qicore/StructureDefinition/qicore-recorded",
        "valueDateTime": "2014-04-05T13:35:00.000+00:00"
      } ],
      "status": "completed",
      "code": {
        "coding": [ {
          "system": "http://snomed.info/sct",
          "code": "10745001"
        }, {
          "system": "http://www.cms.gov/Medicare/Coding/ICD10",
          "code": "10D00Z0"
        } ]
      },
      "subject": {
        "reference": "Patient/64bbffd3-e7b5-4cfb-8e7d-6705b46ce964"
      },
      "performedPeriod": {
        "start": "2026-11-10T08:00:00.000+00:00",
        "end": "2026-11-15T08:15:00.000+00:00"
      }
    },
    "request": {
      "method": "PUT",
      "url": "Procedure/fd608b05-d1e6-4beb-97b3-19845f935ae8"
    }
  }, {
    "fullUrl": "https://madie.cms.gov/Condition/0f108799-11dd-472c-8875-c59b1920cb83",
    "resource": {
      "resourceType": "Condition",
      "id": "0f108799-11dd-472c-8875-c59b1920cb83",
      "meta": {
        "profile": [ "http://hl7.org/fhir/us/qicore/StructureDefinition/qicore-condition-problems-health-concerns" ]
      },
      "category": [ {
        "coding": [ {
          "system": "http://terminology.hl7.org/CodeSystem/condition-category",
          "code": "encounter-diagnosis",
          "display": "Encounter Diagnosis"
        } ]
      } ],
      "code": {
        "coding": [ {
          "system": "http://snomed.info/sct",
          "version": "2022-09",
          "code": "169826009",
          "display": "Single live birth from singleton pregnancy (finding)",
          "userSelected": true
        } ]
      },
      "subject": {
        "reference": "Patient/64bbffd3-e7b5-4cfb-8e7d-6705b46ce964"
      },
      "recordedDate": "2026-10-21T08:00:00.000+00:00"
    },
    "request": {
      "method": "PUT",
      "url": "Condition/0f108799-11dd-472c-8875-c59b1920cb83"
    }
  }, {
    "fullUrl": "https://madie.cms.gov/Organization/e0e7f3fd-c407-46d7-a64d-86ba33498c53",
    "resource": {
      "resourceType": "Organization",
      "id": "e0e7f3fd-c407-46d7-a64d-86ba33498c53",
      "meta": {
        "profile": [ "http://hl7.org/fhir/us/qicore/StructureDefinition/qicore-organization" ]
      },
      "identifier": [ {
        "use": "temp",
        "system": "urn:oid:2.16.840.1.113883.4.4",
        "value": "21-3259825"
      } ],
      "active": true,
      "type": [ {
        "coding": [ {
          "system": "http://terminology.hl7.org/CodeSystem/organization-type",
          "code": "pay",
          "display": "Payer"
        } ]
      } ],
      "name": "Blue Cross Blue Shield of Texas",
      "telecom": [ {
        "system": "phone",
        "value": "(+1) 972-766-6900"
      } ],
      "address": [ {
        "use": "billing",
        "type": "postal",
        "line": [ "P.O. Box 660044" ],
        "city": "Dallas",
        "state": "TX",
        "postalCode": "75266-0044",
        "country": "USA"
      } ]
    },
    "request": {
      "method": "PUT",
      "url": "Organization/e0e7f3fd-c407-46d7-a64d-86ba33498c53"
    }
  }, {
    "fullUrl": "https://madie.cms.gov/Practitioner/be6557ee-f66d-4143-9844-ac20baabc076",
    "resource": {
      "resourceType": "Practitioner",
      "id": "be6557ee-f66d-4143-9844-ac20baabc076",
      "meta": {
        "profile": [ "http://hl7.org/fhir/us/qicore/StructureDefinition/qicore-practitioner" ]
      },
      "identifier": [ {
        "system": "http://hl7.org/fhir/sid/us-npi",
        "value": "1234567890"
      } ],
      "name": [ {
        "family": "Evil",
        "prefix": [ "Dr" ]
      } ]
    },
    "request": {
      "method": "PUT",
      "url": "Practitioner/be6557ee-f66d-4143-9844-ac20baabc076"
    }
  }, {
    "fullUrl": "https://madie.cms.gov/MeasureReport/e17d05c4-e92e-46a0-8035-303bd7ab8d5f",
    "resource": {
      "resourceType": "MeasureReport",
      "id": "e17d05c4-e92e-46a0-8035-303bd7ab8d5f",
      "meta": {
        "profile": [ "http://hl7.org/fhir/us/cqfmeasures/StructureDefinition/test-case-cqfm" ]
      },
      "contained": [ {
        "resourceType": "Parameters",
        "id": "0155a2b7-0f2e-443d-a8e3-9fb05c04dc7a-parameters",
        "parameter": [ {
          "name": "subject",
          "valueString": "64bbffd3-e7b5-4cfb-8e7d-6705b46ce964"
        } ]
      } ],
      "extension": [ {
        "url": "http://hl7.org/fhir/StructureDefinition/cqf-inputParameters",
        "valueReference": {
          "reference": "#0155a2b7-0f2e-443d-a8e3-9fb05c04dc7a-parameters"
        }
      }, {
        "url": "http://hl7.org/fhir/us/cqfmeasures/StructureDefinition/cqfm-testCaseDescription",
        "valueMarkdown": "\"Pregnancy 1 delivery documented 2/1/2012, Preterm & Term Births=0,EGA=38\nPregnancy 2  delivery documented 11/10/2012, Preterm & Term Births=1 & EGA=38.  Fails denom."
      } ],
      "modifierExtension": [ {
        "url": "http://hl7.org/fhir/us/cqfmeasures/StructureDefinition/cqfm-isTestCase",
        "valueBoolean": true
      } ],
      "status": "complete",
      "type": "individual",
      "measure": "https://madie.cms.gov/Measure/CMS0334FHIRPCCesareanBirth",
      "period": {
        "start": "2026-01-01",
        "end": "2026-12-31"
      },
      "group": [ {
        "id": "Group_1",
        "population": [ {
          "id": "InitialPopulation_1",
          "code": {
            "coding": [ {
              "system": "http://terminology.hl7.org/CodeSystem/measure-population",
              "code": "initial-population",
              "display": "Initial Population"
            } ]
          },
          "count": 2
        }, {
          "id": "Denominator_1",
          "code": {
            "coding": [ {
              "system": "http://terminology.hl7.org/CodeSystem/measure-population",
              "code": "denominator",
              "display": "Denominator"
            } ]
          },
          "count": 1
        }, {
          "id": "DenominatorExclusion_1",
          "code": {
            "coding": [ {
              "system": "http://terminology.hl7.org/CodeSystem/measure-population",
              "code": "denominator-exclusion",
              "display": "Denominator Exclusion"
            } ]
          },
          "count": 0
        }, {
          "id": "Numerator_1",
          "code": {
            "coding": [ {
              "system": "http://terminology.hl7.org/CodeSystem/measure-population",
              "code": "numerator",
              "display": "Numerator"
            } ]
          },
          "count": 1
        } ],
        "measureScore": {
          "value": 0.0
        }
      } ],
      "evaluatedResource": [ {
        "reference": "Patient/64bbffd3-e7b5-4cfb-8e7d-6705b46ce964"
      }, {
        "reference": "Observation/61af94dd-24dc-4d11-a6a3-6974bbc9fde1"
      }, {
        "reference": "Observation/f9bea387-4a45-4558-adad-658b60e5d9a2"
      }, {
        "reference": "Observation/de6ba7f0-0a8f-4792-ae1d-5f4b62da4c81"
      }, {
        "reference": "Observation/8fff0330-4a99-417f-abf1-0e332773dd2d"
      }, {
        "reference": "Observation/e6cf9fc6-06b4-4f99-8902-859c3c748c20"
      }, {
        "reference": "Observation/919b752e-0eaa-4ed3-bf26-2604f68fb58f"
      }, {
        "reference": "Observation/2f9fc353-d2a2-47b1-933b-93f461af2221"
      }, {
        "reference": "Observation/789b2b5e-830d-4ef1-a408-75d7cac97da3"
      }, {
        "reference": "Encounter/a8d98308-b304-4319-879f-479f015798f3"
      }, {
        "reference": "Encounter/495c7ada-3dea-40b0-98ac-d18adf2670d9"
      }, {
        "reference": "Coverage/5f5f9e4f1c76ba674bb0336d"
      }, {
        "reference": "Procedure/5ada6083-ea75-4bc0-82a3-9d79165cd146"
      }, {
        "reference": "Procedure/fd608b05-d1e6-4beb-97b3-19845f935ae8"
      }, {
        "reference": "Condition/0f108799-11dd-472c-8875-c59b1920cb83"
      }, {
        "reference": "Organization/e0e7f3fd-c407-46d7-a64d-86ba33498c53"
      }, {
        "reference": "Practitioner/be6557ee-f66d-4143-9844-ac20baabc076"
      } ]
    },
    "request": {
      "method": "PUT",
      "url": "MeasureReport/e17d05c4-e92e-46a0-8035-303bd7ab8d5f"
    }
  } ]
}