{
  "resourceType": "Bundle",
  "id": "612e6a8802c62a011f2ea423",
  "type": "transaction",
  "entry": [ {
    "fullUrl": "https://madie.cms.gov/Patient/f00f3778-6ad1-466d-a3bd-bcbc63d62b55",
    "resource": {
      "resourceType": "Patient",
      "id": "f00f3778-6ad1-466d-a3bd-bcbc63d62b55",
      "meta": {
        "profile": [ "http://hl7.org/fhir/us/qicore/StructureDefinition/qicore-patient" ]
      },
      "text": {
        "status": "generated",
        "div": "<div xmlns=\"http://www.w3.org/1999/xhtml\"><div class=\"hapiHeaderText\">MedReasonMALMWHDOGCSIPEnc <b>NUMERPASS </b></div><table class=\"hapiPropertyTable\"><tbody><tr><td>Identifier</td><td>57c53fc7391e680566116a818dec99f8</td></tr><tr><td>Date of birth</td><td><span>02 January 1974</span></td></tr></tbody></table></div>"
      },
      "extension": [ {
        "url": "http://hl7.org/fhir/us/core/StructureDefinition/us-core-race",
        "extension": [ {
          "url": "ombCategory",
          "valueCoding": {
            "system": "urn:oid:2.16.840.1.113883.6.238",
            "code": "1002-5",
            "display": "American Indian or Alaska Native",
            "userSelected": true
          }
        }, {
          "url": "text",
          "valueString": "American Indian or Alaska Native"
        } ]
      }, {
        "url": "http://hl7.org/fhir/us/core/StructureDefinition/us-core-ethnicity",
        "extension": [ {
          "url": "ombCategory",
          "valueCoding": {
            "system": "urn:oid:2.16.840.1.113883.6.238",
            "code": "2135-2",
            "display": "Hispanic or Latino",
            "userSelected": true
          }
        }, {
          "url": "text",
          "valueString": "Hispanic or Latino"
        } ]
      } ],
      "identifier": [ {
        "type": {
          "coding": [ {
            "system": "http://terminology.hl7.org/CodeSystem/v2-0203",
            "code": "MR"
          } ]
        },
        "system": "https://bonnie-fhir.healthit.gov/",
        "value": "612e6a8802c62a011f2ea423"
      } ],
      "active": true,
      "name": [ {
        "use": "usual",
        "family": "NUMERPass",
        "given": [ "MedReasonMALMWHDOGCSIPEnc" ]
      } ],
      "gender": "male",
      "birthDate": "1975-01-02"
    },
    "request": {
      "method": "PUT",
      "url": "Patient/f00f3778-6ad1-466d-a3bd-bcbc63d62b55"
    }
  }, {
    "fullUrl": "https://madie.cms.gov/Encounter/63add47d-2d43-4164-a964-9421514fc247",
    "resource": {
      "resourceType": "Encounter",
      "id": "63add47d-2d43-4164-a964-9421514fc247",
      "meta": {
        "profile": [ "http://hl7.org/fhir/us/qicore/StructureDefinition/qicore-encounter" ]
      },
      "status": "finished",
      "class": {
        "system": "http://terminology.hl7.org/CodeSystem/v3-ActCode",
        "code": "IMP",
        "display": "inpatient encounter"
      },
      "type": [ {
        "coding": [ {
          "system": "http://snomed.info/sct",
          "code": "8715000"
        } ]
      } ],
      "subject": {
        "reference": "Patient/f00f3778-6ad1-466d-a3bd-bcbc63d62b55"
      },
      "period": {
        "start": "2026-11-01T08:00:00.000+00:00",
        "end": "2026-11-26T08:15:00.000+00:00"
      },
      "length": {
        "value": 25,
        "unit": "days"
      },
      "location": [ {
        "location": {
          "reference": "Location/09a1d630-e3e2-4a74-952e-dcc19cab00b8"
        },
        "period": {
          "start": "2026-11-01T09:00:00.000+00:00",
          "end": "2026-11-10T08:15:00.000+00:00"
        }
      } ]
    },
    "request": {
      "method": "PUT",
      "url": "Encounter/63add47d-2d43-4164-a964-9421514fc247"
    }
  }, {
    "fullUrl": "https://madie.cms.gov/Coverage/dabb1c5c-3216-4ca4-8fa9-1c56ece53524",
    "resource": {
      "resourceType": "Coverage",
      "id": "dabb1c5c-3216-4ca4-8fa9-1c56ece53524",
      "status": "active",
      "beneficiary": {
        "reference": "Patient/f00f3778-6ad1-466d-a3bd-bcbc63d62b55"
      },
      "period": {
        "start": "1975-01-02T08:00:00.000+00:00"
      },
      "payor": [ {
        "reference": "Organization/204f668e-7a95-484c-9b0b-df20229b733f"
      } ]
    },
    "request": {
      "method": "PUT",
      "url": "Coverage/dabb1c5c-3216-4ca4-8fa9-1c56ece53524"
    }
  }, {
    "fullUrl": "https://madie.cms.gov/MedicationAdministration/01821d81-676b-46d9-a453-a748f48be4f9",
    "resource": {
      "resourceType": "MedicationAdministration",
      "id": "01821d81-676b-46d9-a453-a748f48be4f9",
      "meta": {
        "profile": [ "http://hl7.org/fhir/us/qicore/StructureDefinition/qicore-medicationadministrationnotdone" ]
      },
      "extension": [ {
        "url": "http://hl7.org/fhir/us/qicore/StructureDefinition/qicore-recorded",
        "valueDateTime": "2026-11-02T09:00:00.000+00:00"
      } ],
      "status": "not-done",
      "statusReason": [ {
        "coding": [ {
          "system": "http://snomed.info/sct",
          "code": "183932001",
          "display": "Procedure contraindicated (situation)"
        } ]
      } ],
      "medicationCodeableConcept": {
        "coding": [ {
          "system": "http://www.nlm.nih.gov/research/umls/rxnorm",
          "code": "854228"
        } ]
      },
      "subject": {
        "reference": "Patient/f00f3778-6ad1-466d-a3bd-bcbc63d62b55"
      },
      "effectivePeriod": {
        "start": "2026-11-02T09:00:00.000+00:00"
      }
    },
    "request": {
      "method": "PUT",
      "url": "MedicationAdministration/01821d81-676b-46d9-a453-a748f48be4f9"
    }
  }, {
    "fullUrl": "https://madie.cms.gov/ServiceRequest/d8f5bc92-9e49-49c2-b4fc-aaa829aa5007",
    "resource": {
      "resourceType": "ServiceRequest",
      "id": "d8f5bc92-9e49-49c2-b4fc-aaa829aa5007",
      "meta": {
        "profile": [ "http://hl7.org/fhir/us/qicore/StructureDefinition/qicore-servicenotrequested" ]
      },
      "extension": [ {
        "url": "http://hl7.org/fhir/us/qicore/StructureDefinition/qicore-doNotPerformReason",
        "valueCodeableConcept": {
          "coding": [ {
            "system": "http://snomed.info/sct",
            "code": "183932001",
            "display": "Procedure contraindicated (situation)"
          } ]
        }
      } ],
      "status": "completed",
      "intent": "order",
      "doNotPerform": true,
      "code": {
        "coding": [ {
          "system": "http://snomed.info/sct",
          "version": "2025-03",
          "code": "348681001",
          "display": "Graduated compression elastic hosiery (physical object)",
          "userSelected": true
        } ]
      },
      "subject": {
        "reference": "Patient/f00f3778-6ad1-466d-a3bd-bcbc63d62b55"
      },
      "authoredOn": "2026-11-02T09:00:00.000+00:00",
      "reasonCode": [ {
        "coding": [ {
          "system": "http://snomed.info/sct",
          "code": "183932001",
          "display": "Procedure contraindicated (situation)",
          "userSelected": true
        } ]
      } ]
    },
    "request": {
      "method": "PUT",
      "url": "ServiceRequest/d8f5bc92-9e49-49c2-b4fc-aaa829aa5007"
    }
  }, {
    "fullUrl": "https://madie.cms.gov/Location/09a1d630-e3e2-4a74-952e-dcc19cab00b8",
    "resource": {
      "resourceType": "Location",
      "id": "09a1d630-e3e2-4a74-952e-dcc19cab00b8",
      "meta": {
        "profile": [ "http://hl7.org/fhir/us/qicore/StructureDefinition/qicore-location" ]
      },
      "identifier": [ {
        "use": "usual",
        "system": "http://exampleoflocation.com",
        "value": "B1-S.F2"
      } ],
      "name": "Medical Surgical East, first floor",
      "type": [ {
        "coding": [ {
          "system": "https://www.cdc.gov/nhsn/cdaportal/terminology/codesystem/hsloc.html",
          "code": "1025-6",
          "display": "Trauma Critical Care",
          "userSelected": true
        } ]
      } ]
    },
    "request": {
      "method": "PUT",
      "url": "Location/09a1d630-e3e2-4a74-952e-dcc19cab00b8"
    }
  }, {
    "fullUrl": "https://madie.cms.gov/Organization/204f668e-7a95-484c-9b0b-df20229b733f",
    "resource": {
      "resourceType": "Organization",
      "id": "204f668e-7a95-484c-9b0b-df20229b733f",
      "meta": {
        "profile": [ "http://hl7.org/fhir/us/qicore/StructureDefinition/qicore-organization" ]
      },
      "identifier": [ {
        "use": "temp",
        "system": "urn:oid:2.16.840.1.113883.4.4",
        "value": "21-3259825"
      } ],
      "active": true,
      "type": [ {
        "coding": [ {
          "system": "http://terminology.hl7.org/CodeSystem/organization-type",
          "code": "pay",
          "display": "Payer"
        } ]
      } ],
      "name": "Blue Cross Blue Shield of Texas",
      "telecom": [ {
        "system": "phone",
        "value": "(+1) 972-766-6900"
      } ],
      "address": [ {
        "use": "billing",
        "type": "postal",
        "line": [ "P.O. Box 660044" ],
        "city": "Dallas",
        "state": "TX",
        "postalCode": "75266-0044",
        "country": "USA"
      } ]
    },
    "request": {
      "method": "PUT",
      "url": "Organization/204f668e-7a95-484c-9b0b-df20229b733f"
    }
  }, {
    "fullUrl": "https://madie.cms.gov/Practitioner/d4f23248-d16d-41a3-9526-b77ad954935f",
    "resource": {
      "resourceType": "Practitioner",
      "id": "d4f23248-d16d-41a3-9526-b77ad954935f",
      "identifier": [ {
        "system": "http://hl7.org/fhir/sid/us-npi",
        "value": "123456"
      } ],
      "name": [ {
        "family": "Evil",
        "prefix": [ "Dr" ]
      } ]
    },
    "request": {
      "method": "PUT",
      "url": "Practitioner/d4f23248-d16d-41a3-9526-b77ad954935f"
    }
  }, {
    "fullUrl": "https://madie.cms.gov/MeasureReport/eec02719-4ca4-45d9-ac86-d105c8a32da7",
    "resource": {
      "resourceType": "MeasureReport",
      "id": "eec02719-4ca4-45d9-ac86-d105c8a32da7",
      "meta": {
        "profile": [ "http://hl7.org/fhir/us/cqfmeasures/StructureDefinition/test-case-cqfm" ]
      },
      "contained": [ {
        "resourceType": "Parameters",
        "id": "e50bd067-a5b1-445f-886d-cbe8c82a3ba8-parameters",
        "parameter": [ {
          "name": "subject",
          "valueString": "f00f3778-6ad1-466d-a3bd-bcbc63d62b55"
        } ]
      } ],
      "extension": [ {
        "url": "http://hl7.org/fhir/StructureDefinition/cqf-inputParameters",
        "valueReference": {
          "reference": "#e50bd067-a5b1-445f-886d-cbe8c82a3ba8-parameters"
        }
      }, {
        "url": "http://hl7.org/fhir/us/cqfmeasures/StructureDefinition/cqfm-testCaseDescription",
        "valueMarkdown": "LMWH not adm and GCS not ordered due to medical reason during encounter on the day of ICU start day\n"
      } ],
      "modifierExtension": [ {
        "url": "http://hl7.org/fhir/us/cqfmeasures/StructureDefinition/cqfm-isTestCase",
        "valueBoolean": true
      } ],
      "status": "complete",
      "type": "individual",
      "measure": "https://madie.cms.gov/Measure/CMS190VTEProphylaxisICUFHIR",
      "period": {
        "start": "2026-01-01",
        "end": "2026-12-31"
      },
      "group": [ {
        "id": "Group_1",
        "population": [ {
          "id": "InitialPopulation_1",
          "code": {
            "coding": [ {
              "system": "http://terminology.hl7.org/CodeSystem/measure-population",
              "code": "initial-population",
              "display": "Initial Population"
            } ]
          },
          "count": 1
        }, {
          "id": "Denominator_1",
          "code": {
            "coding": [ {
              "system": "http://terminology.hl7.org/CodeSystem/measure-population",
              "code": "denominator",
              "display": "Denominator"
            } ]
          },
          "count": 1
        }, {
          "id": "DenominatorExclusion_1",
          "code": {
            "coding": [ {
              "system": "http://terminology.hl7.org/CodeSystem/measure-population",
              "code": "denominator-exclusion",
              "display": "Denominator Exclusion"
            } ]
          },
          "count": 0
        }, {
          "id": "Numerator_1",
          "code": {
            "coding": [ {
              "system": "http://terminology.hl7.org/CodeSystem/measure-population",
              "code": "numerator",
              "display": "Numerator"
            } ]
          },
          "count": 1
        }, {
          "id": "DenominatorException_1",
          "code": {
            "coding": [ {
              "system": "http://terminology.hl7.org/CodeSystem/measure-population",
              "code": "denominator-exception",
              "display": "Denominator Exception"
            } ]
          },
          "count": 0
        } ],
        "measureScore": {
          "value": 0.0
        }
      } ],
      "evaluatedResource": [ {
        "reference": "Patient/f00f3778-6ad1-466d-a3bd-bcbc63d62b55"
      }, {
        "reference": "Encounter/63add47d-2d43-4164-a964-9421514fc247"
      }, {
        "reference": "Coverage/dabb1c5c-3216-4ca4-8fa9-1c56ece53524"
      }, {
        "reference": "MedicationAdministration/01821d81-676b-46d9-a453-a748f48be4f9"
      }, {
        "reference": "ServiceRequest/d8f5bc92-9e49-49c2-b4fc-aaa829aa5007"
      }, {
        "reference": "Location/09a1d630-e3e2-4a74-952e-dcc19cab00b8"
      }, {
        "reference": "Organization/204f668e-7a95-484c-9b0b-df20229b733f"
      }, {
        "reference": "Practitioner/d4f23248-d16d-41a3-9526-b77ad954935f"
      } ]
    },
    "request": {
      "method": "PUT",
      "url": "MeasureReport/eec02719-4ca4-45d9-ac86-d105c8a32da7"
    }
  } ]
}