{
  "resourceType": "Bundle",
  "id": "t1f044ef3e654daa2659",
  "type": "transaction",
  "entry": [ {
    "fullUrl": "https://madie.cms.gov/Patient/0dae17b4-e912-4463-896e-4bd78317c9fb",
    "resource": {
      "resourceType": "Patient",
      "id": "0dae17b4-e912-4463-896e-4bd78317c9fb",
      "meta": {
        "profile": [ "http://hl7.org/fhir/us/qicore/StructureDefinition/qicore-patient" ]
      },
      "extension": [ {
        "url": "http://hl7.org/fhir/us/core/StructureDefinition/us-core-race",
        "extension": [ {
          "url": "ombCategory",
          "valueCoding": {
            "system": "urn:oid:2.16.840.1.113883.6.238",
            "code": "1002-5",
            "display": "American Indian or Alaska Native",
            "userSelected": true
          }
        }, {
          "url": "text",
          "valueString": "American Indian or Alaska Native"
        } ]
      }, {
        "url": "http://hl7.org/fhir/us/core/StructureDefinition/us-core-ethnicity",
        "extension": [ {
          "url": "ombCategory",
          "valueCoding": {
            "system": "urn:oid:2.16.840.1.113883.6.238",
            "code": "2135-2",
            "display": "Hispanic or Latino",
            "userSelected": true
          }
        }, {
          "url": "text",
          "valueString": "Hispanic or Latino"
        } ]
      }, {
        "url": "http://hl7.org/fhir/us/core/StructureDefinition/us-core-sex",
        "valueCode": "248153007"
      } ],
      "identifier": [ {
        "type": {
          "coding": [ {
            "system": "http://terminology.hl7.org/CodeSystem/v2-0203",
            "code": "MR"
          } ]
        },
        "system": "https://bonnie-fhir.healthit.gov/",
        "value": "t1f044ef3e654daa2659"
      } ],
      "name": [ {
        "family": "DENEXCL11FAIL",
        "given": [ "HospiceEncDiagnosisEndsBeforeED" ]
      } ],
      "gender": "male",
      "birthDate": "1988-10-15"
    },
    "request": {
      "method": "PUT",
      "url": "Patient/0dae17b4-e912-4463-896e-4bd78317c9fb"
    }
  }, {
    "fullUrl": "https://madie.cms.gov/Encounter/1f7c2694-2c57-4362-88e8-e8cf1e9f66bb",
    "resource": {
      "resourceType": "Encounter",
      "id": "1f7c2694-2c57-4362-88e8-e8cf1e9f66bb",
      "meta": {
        "profile": [ "http://hl7.org/fhir/us/qicore/StructureDefinition/qicore-encounter" ]
      },
      "status": "finished",
      "class": {
        "system": "http://terminology.hl7.org/CodeSystem/v3-ActCode",
        "code": "EMER",
        "display": "emergency",
        "userSelected": true
      },
      "type": [ {
        "coding": [ {
          "system": "http://snomed.info/sct",
          "version": "2020-09",
          "code": "4525004",
          "display": "Emergency department patient visit",
          "userSelected": true
        } ]
      } ],
      "subject": {
        "reference": "Patient/0dae17b4-e912-4463-896e-4bd78317c9fb"
      },
      "period": {
        "start": "2026-10-09T05:00:00.000+00:00",
        "end": "2026-10-13T17:00:00.000+00:00"
      },
      "reasonCode": [ {
        "coding": [ {
          "system": "http://hl7.org/fhir/sid/icd-10-cm",
          "code": "I21.21",
          "display": "ST elevation (STEMI) myocardial infarction involving left circumflex coronary artery",
          "userSelected": true
        } ]
      } ],
      "reasonReference": [ {
        "reference": "Condition/90821c25-7f88-4467-be43-9c27768e47de"
      } ]
    },
    "request": {
      "method": "PUT",
      "url": "Encounter/1f7c2694-2c57-4362-88e8-e8cf1e9f66bb"
    }
  }, {
    "fullUrl": "https://madie.cms.gov/Condition/90821c25-7f88-4467-be43-9c27768e47de",
    "resource": {
      "resourceType": "Condition",
      "id": "90821c25-7f88-4467-be43-9c27768e47de",
      "meta": {
        "profile": [ "http://hl7.org/fhir/us/qicore/StructureDefinition/qicore-condition-problems-health-concerns" ]
      },
      "clinicalStatus": {
        "coding": [ {
          "system": "http://terminology.hl7.org/CodeSystem/condition-clinical",
          "code": "inactive",
          "display": "Inactive",
          "userSelected": true
        } ]
      },
      "verificationStatus": {
        "coding": [ {
          "system": "http://terminology.hl7.org/CodeSystem/condition-ver-status",
          "code": "differential"
        } ]
      },
      "category": [ {
        "coding": [ {
          "system": "http://terminology.hl7.org/CodeSystem/condition-category",
          "code": "problem-list-item",
          "display": "Problem List Item",
          "userSelected": true
        } ]
      } ],
      "code": {
        "coding": [ {
          "system": "http://snomed.info/sct",
          "code": "170936009",
          "display": "Shared care - hospice and general practitioner (finding)",
          "userSelected": true
        } ]
      },
      "subject": {
        "reference": "Patient/0dae17b4-e912-4463-896e-4bd78317c9fb"
      },
      "onsetDateTime": "2026-08-03T12:00:00.000+00:00",
      "abatementDateTime": "2026-08-04T02:00:00.000+00:00"
    },
    "request": {
      "method": "PUT",
      "url": "Condition/90821c25-7f88-4467-be43-9c27768e47de"
    }
  }, {
    "fullUrl": "https://madie.cms.gov/MeasureReport/cdd51306-a82c-4abf-824d-b0fb21ec1daf",
    "resource": {
      "resourceType": "MeasureReport",
      "id": "cdd51306-a82c-4abf-824d-b0fb21ec1daf",
      "meta": {
        "profile": [ "http://hl7.org/fhir/us/cqfmeasures/StructureDefinition/test-case-cqfm" ]
      },
      "contained": [ {
        "resourceType": "Parameters",
        "id": "96da121b-2903-4995-b525-1313fe52d805-parameters",
        "parameter": [ {
          "name": "subject",
          "valueString": "0dae17b4-e912-4463-896e-4bd78317c9fb"
        } ]
      } ],
      "extension": [ {
        "url": "http://hl7.org/fhir/StructureDefinition/cqf-inputParameters",
        "valueReference": {
          "reference": "#96da121b-2903-4995-b525-1313fe52d805-parameters"
        }
      }, {
        "url": "http://hl7.org/fhir/us/cqfmeasures/StructureDefinition/cqfm-testCaseDescription",
        "valueMarkdown": "Patients has problem hospice diagnosis that ends before ED"
      } ],
      "modifierExtension": [ {
        "url": "http://hl7.org/fhir/us/cqfmeasures/StructureDefinition/cqfm-isTestCase",
        "valueBoolean": true
      } ],
      "status": "complete",
      "type": "individual",
      "measure": "https://madie.cms.gov/Measure/CMS996FHIRAptTxforSTEMI",
      "period": {
        "start": "2026-01-01",
        "end": "2026-12-31"
      },
      "group": [ {
        "id": "Group_1",
        "population": [ {
          "id": "InitialPopulation_1",
          "code": {
            "coding": [ {
              "system": "http://terminology.hl7.org/CodeSystem/measure-population",
              "code": "initial-population",
              "display": "Initial Population"
            } ]
          },
          "count": 1
        }, {
          "id": "Denominator_1",
          "code": {
            "coding": [ {
              "system": "http://terminology.hl7.org/CodeSystem/measure-population",
              "code": "denominator",
              "display": "Denominator"
            } ]
          },
          "count": 1
        }, {
          "id": "DenominatorExclusion_1",
          "code": {
            "coding": [ {
              "system": "http://terminology.hl7.org/CodeSystem/measure-population",
              "code": "denominator-exclusion",
              "display": "Denominator Exclusion"
            } ]
          },
          "count": 0
        }, {
          "id": "Numerator_1",
          "code": {
            "coding": [ {
              "system": "http://terminology.hl7.org/CodeSystem/measure-population",
              "code": "numerator",
              "display": "Numerator"
            } ]
          },
          "count": 0
        }, {
          "id": "DenominatorException_1",
          "code": {
            "coding": [ {
              "system": "http://terminology.hl7.org/CodeSystem/measure-population",
              "code": "denominator-exception",
              "display": "Denominator Exception"
            } ]
          },
          "count": 0
        } ],
        "measureScore": {
          "value": 0.0
        }
      } ],
      "evaluatedResource": [ {
        "reference": "Patient/0dae17b4-e912-4463-896e-4bd78317c9fb"
      }, {
        "reference": "Encounter/1f7c2694-2c57-4362-88e8-e8cf1e9f66bb"
      }, {
        "reference": "Condition/90821c25-7f88-4467-be43-9c27768e47de"
      } ]
    },
    "request": {
      "method": "PUT",
      "url": "MeasureReport/cdd51306-a82c-4abf-824d-b0fb21ec1daf"
    }
  } ]
}