{"resourceType":"Bundle","id":"tests-90346970-2f5c-43aa-81ab-30e4f5d74830-bundle","type":"transaction","entry":[{"resource":{"resourceType":"Bundle","id":"610965b998086b538055c156","type":"transaction","entry":[{"fullUrl":"https://madie.cms.gov/Patient/90346970-2f5c-43aa-81ab-30e4f5d74830","resource":{"resourceType":"Patient","id":"90346970-2f5c-43aa-81ab-30e4f5d74830","meta":{"profile":["http://hl7.org/fhir/us/qicore/StructureDefinition/qicore-patient"]},"text":{"status":"generated","div":"<div xmlns=\"http://www.w3.org/1999/xhtml\"><div class=\"hapiHeaderText\">LabTestTooYoung <b>NUMERFAIL </b></div><table class=\"hapiPropertyTable\"><tbody><tr><td>Identifier</td><td>3a3b648e0cc14e200f2d48b72852219e3b95e5787df1549ba35aedfebdf90868</td></tr><tr><td>Date of birth</td><td><span>31 July 1994</span></td></tr></tbody></table></div>"},"extension":[{"url":"http://hl7.org/fhir/us/core/StructureDefinition/us-core-race","extension":[{"url":"ombCategory","valueCoding":{"system":"urn:oid:2.16.840.1.113883.6.238","code":"2106-3","display":"White","userSelected":true}},{"url":"text","valueString":"White"}]},{"url":"http://hl7.org/fhir/us/core/StructureDefinition/us-core-ethnicity","extension":[{"url":"ombCategory","valueCoding":{"system":"urn:oid:2.16.840.1.113883.6.238","code":"2186-5","display":"Not Hispanic or Latino","userSelected":true}},{"url":"text","valueString":"Not Hispanic or Latino"}]}],"identifier":[{"type":{"coding":[{"system":"http://terminology.hl7.org/CodeSystem/v2-0203","code":"MR"}]},"system":"https://bonnie-fhir.healthit.gov/","value":"610965b998086b538055c156"}],"active":true,"name":[{"use":"usual","family":"NUMERFail","given":["LabTestTooYoung"]}],"gender":"female","birthDate":"2004-07-31"},"request":{"method":"PUT","url":"Patient/90346970-2f5c-43aa-81ab-30e4f5d74830"}},{"fullUrl":"https://madie.cms.gov/Encounter/c25a0916-cc13-4720-93c6-b218f770fdb7","resource":{"resourceType":"Encounter","id":"c25a0916-cc13-4720-93c6-b218f770fdb7","meta":{"profile":["http://hl7.org/fhir/us/qicore/StructureDefinition/qicore-encounter"]},"status":"finished","class":{"system":"http://terminology.hl7.org/CodeSystem/v3-ActCode","code":"AMB","display":"ambulatory","userSelected":true},"type":[{"coding":[{"system":"http://www.ama-assn.org/go/cpt","code":"99391"}]}],"subject":{"reference":"Patient/90346970-2f5c-43aa-81ab-30e4f5d74830"},"period":{"start":"2026-02-06T08:00:00.000+00:00","end":"2026-02-06T08:15:00.000+00:00"}},"request":{"method":"PUT","url":"Encounter/c25a0916-cc13-4720-93c6-b218f770fdb7"}},{"fullUrl":"https://madie.cms.gov/Observation/d0623118-ed5a-4157-bed0-ec1ec2181a71","resource":{"resourceType":"Observation","id":"d0623118-ed5a-4157-bed0-ec1ec2181a71","meta":{"profile":["http://hl7.org/fhir/us/qicore/StructureDefinition/qicore-observation-lab"]},"status":"final","category":[{"coding":[{"system":"http://terminology.hl7.org/CodeSystem/observation-category","code":"laboratory","display":"Laboratory","userSelected":true}]}],"code":{"coding":[{"system":"http://loinc.org","code":"10901-7"}]},"subject":{"reference":"Patient/90346970-2f5c-43aa-81ab-30e4f5d74830"},"effectiveDateTime":"2011-07-30T23:59:00.000+00:00","valueBoolean":true},"request":{"method":"PUT","url":"Observation/d0623118-ed5a-4157-bed0-ec1ec2181a71"}},{"fullUrl":"https://madie.cms.gov/MeasureReport/702e8bea-f0c5-429a-a4f6-8a2fa090c44f","resource":{"resourceType":"MeasureReport","id":"702e8bea-f0c5-429a-a4f6-8a2fa090c44f","meta":{"profile":["http://hl7.org/fhir/us/cqfmeasures/StructureDefinition/test-case-cqfm"]},"contained":[{"resourceType":"Parameters","id":"79bba2da-54f2-437f-bee9-e11b1b445615-parameters","parameter":[{"name":"subject","valueString":"90346970-2f5c-43aa-81ab-30e4f5d74830"}]}],"extension":[{"url":"http://hl7.org/fhir/StructureDefinition/cqf-inputParameters","valueReference":{"reference":"#79bba2da-54f2-437f-bee9-e11b1b445615-parameters"}},{"url":"http://hl7.org/fhir/us/cqfmeasures/StructureDefinition/cqfm-testCaseDescription","valueMarkdown":"Patient 20 at start of MP, qual encounter during MP, lab test under 15"}],"modifierExtension":[{"url":"http://hl7.org/fhir/us/cqfmeasures/StructureDefinition/cqfm-isTestCase","valueBoolean":true}],"status":"complete","type":"individual","measure":"https://madie.cms.gov/Measure/CMS349FHIRHIVScreening","period":{"start":"2026-01-01","end":"2026-12-31"},"group":[{"id":"Group_1","population":[{"id":"InitialPopulation_1","code":{"coding":[{"system":"http://terminology.hl7.org/CodeSystem/measure-population","code":"initial-population","display":"Initial Population"}]},"count":1},{"id":"Denominator_1","code":{"coding":[{"system":"http://terminology.hl7.org/CodeSystem/measure-population","code":"denominator","display":"Denominator"}]},"count":1},{"id":"DenominatorExclusion_1","code":{"coding":[{"system":"http://terminology.hl7.org/CodeSystem/measure-population","code":"denominator-exclusion","display":"Denominator Exclusion"}]},"count":0},{"id":"Numerator_1","code":{"coding":[{"system":"http://terminology.hl7.org/CodeSystem/measure-population","code":"numerator","display":"Numerator"}]},"count":0},{"id":"DenominatorException_1","code":{"coding":[{"system":"http://terminology.hl7.org/CodeSystem/measure-population","code":"denominator-exception","display":"Denominator Exception"}]},"count":0}],"measureScore":{"value":1.0}}],"evaluatedResource":[{"reference":"Patient/90346970-2f5c-43aa-81ab-30e4f5d74830"},{"reference":"Encounter/c25a0916-cc13-4720-93c6-b218f770fdb7"},{"reference":"Observation/d0623118-ed5a-4157-bed0-ec1ec2181a71"}]},"request":{"method":"PUT","url":"MeasureReport/702e8bea-f0c5-429a-a4f6-8a2fa090c44f"}}]},"request":{"method":"PUT","url":"Bundle/610965b998086b538055c156"}},{"resource":{"resourceType":"MeasureReport","id":"702e8bea-f0c5-429a-a4f6-8a2fa090c44f","meta":{"profile":["http://hl7.org/fhir/us/cqfmeasures/StructureDefinition/test-case-cqfm"]},"contained":[{"resourceType":"Parameters","id":"79bba2da-54f2-437f-bee9-e11b1b445615-parameters","parameter":[{"name":"subject","valueString":"90346970-2f5c-43aa-81ab-30e4f5d74830"}]}],"extension":[{"url":"http://hl7.org/fhir/StructureDefinition/cqf-inputParameters","valueReference":{"reference":"#79bba2da-54f2-437f-bee9-e11b1b445615-parameters"}},{"url":"http://hl7.org/fhir/us/cqfmeasures/StructureDefinition/cqfm-testCaseDescription","valueMarkdown":"Patient 20 at start of MP, qual encounter during MP, lab test under 15"}],"modifierExtension":[{"url":"http://hl7.org/fhir/us/cqfmeasures/StructureDefinition/cqfm-isTestCase","valueBoolean":true}],"status":"complete","type":"individual","measure":"https://madie.cms.gov/Measure/CMS349FHIRHIVScreening","period":{"start":"2026-01-01","end":"2026-12-31"},"group":[{"id":"Group_1","population":[{"id":"InitialPopulation_1","code":{"coding":[{"system":"http://terminology.hl7.org/CodeSystem/measure-population","code":"initial-population","display":"Initial Population"}]},"count":1},{"id":"Denominator_1","code":{"coding":[{"system":"http://terminology.hl7.org/CodeSystem/measure-population","code":"denominator","display":"Denominator"}]},"count":1},{"id":"DenominatorExclusion_1","code":{"coding":[{"system":"http://terminology.hl7.org/CodeSystem/measure-population","code":"denominator-exclusion","display":"Denominator Exclusion"}]},"count":0},{"id":"Numerator_1","code":{"coding":[{"system":"http://terminology.hl7.org/CodeSystem/measure-population","code":"numerator","display":"Numerator"}]},"count":0},{"id":"DenominatorException_1","code":{"coding":[{"system":"http://terminology.hl7.org/CodeSystem/measure-population","code":"denominator-exception","display":"Denominator Exception"}]},"count":0}],"measureScore":{"value":1.0}}],"evaluatedResource":[{"reference":"Patient/90346970-2f5c-43aa-81ab-30e4f5d74830"},{"reference":"Encounter/c25a0916-cc13-4720-93c6-b218f770fdb7"},{"reference":"Observation/d0623118-ed5a-4157-bed0-ec1ec2181a71"}]},"request":{"method":"PUT","url":"MeasureReport/702e8bea-f0c5-429a-a4f6-8a2fa090c44f"}},{"resource":{"resourceType":"Encounter","id":"c25a0916-cc13-4720-93c6-b218f770fdb7","meta":{"profile":["http://hl7.org/fhir/us/qicore/StructureDefinition/qicore-encounter"]},"status":"finished","class":{"system":"http://terminology.hl7.org/CodeSystem/v3-ActCode","code":"AMB","display":"ambulatory","userSelected":true},"type":[{"coding":[{"system":"http://www.ama-assn.org/go/cpt","code":"99391"}]}],"subject":{"reference":"Patient/90346970-2f5c-43aa-81ab-30e4f5d74830"},"period":{"start":"2026-02-06T08:00:00.000+00:00","end":"2026-02-06T08:15:00.000+00:00"}},"request":{"method":"PUT","url":"Encounter/c25a0916-cc13-4720-93c6-b218f770fdb7"}},{"resource":{"resourceType":"Observation","id":"d0623118-ed5a-4157-bed0-ec1ec2181a71","meta":{"profile":["http://hl7.org/fhir/us/qicore/StructureDefinition/qicore-observation-lab"]},"status":"final","category":[{"coding":[{"system":"http://terminology.hl7.org/CodeSystem/observation-category","code":"laboratory","display":"Laboratory","userSelected":true}]}],"code":{"coding":[{"system":"http://loinc.org","code":"10901-7"}]},"subject":{"reference":"Patient/90346970-2f5c-43aa-81ab-30e4f5d74830"},"effectiveDateTime":"2011-07-30T23:59:00.000+00:00","valueBoolean":true},"request":{"method":"PUT","url":"Observation/d0623118-ed5a-4157-bed0-ec1ec2181a71"}},{"resource":{"resourceType":"Patient","id":"90346970-2f5c-43aa-81ab-30e4f5d74830","meta":{"profile":["http://hl7.org/fhir/us/qicore/StructureDefinition/qicore-patient"]},"text":{"status":"generated","div":"<div xmlns=\"http://www.w3.org/1999/xhtml\"><div class=\"hapiHeaderText\">LabTestTooYoung <b>NUMERFAIL </b></div><table class=\"hapiPropertyTable\"><tbody><tr><td>Identifier</td><td>3a3b648e0cc14e200f2d48b72852219e3b95e5787df1549ba35aedfebdf90868</td></tr><tr><td>Date of birth</td><td><span>31 July 1994</span></td></tr></tbody></table></div>"},"extension":[{"url":"http://hl7.org/fhir/us/core/StructureDefinition/us-core-race","extension":[{"url":"ombCategory","valueCoding":{"system":"urn:oid:2.16.840.1.113883.6.238","code":"2106-3","display":"White","userSelected":true}},{"url":"text","valueString":"White"}]},{"url":"http://hl7.org/fhir/us/core/StructureDefinition/us-core-ethnicity","extension":[{"url":"ombCategory","valueCoding":{"system":"urn:oid:2.16.840.1.113883.6.238","code":"2186-5","display":"Not Hispanic or Latino","userSelected":true}},{"url":"text","valueString":"Not Hispanic or Latino"}]}],"identifier":[{"type":{"coding":[{"system":"http://terminology.hl7.org/CodeSystem/v2-0203","code":"MR"}]},"system":"https://bonnie-fhir.healthit.gov/","value":"610965b998086b538055c156"}],"active":true,"name":[{"use":"usual","family":"NUMERFail","given":["LabTestTooYoung"]}],"gender":"female","birthDate":"2004-07-31"},"request":{"method":"PUT","url":"Patient/90346970-2f5c-43aa-81ab-30e4f5d74830"}}]}